Time (ms),EMG1,EMG2,EMG3,EMG4,AccX,AccY,AccZ,GyroX,GyroY,GyroZ
1532.6850000000002,0,0,0,0,0,0,0,0,0,0
1532.6850000000002,0,0,0,0,0,0,0,0,0,0
1550.242,343,301,326,287,0,0,0,0,0,0
1551.51,347,303,326,287,0,0,0,0,0,0
1551.51,350,304,326,287,0,0,0,0,0,0
1557.5330000000001,353,306,327,287,0,0,0,0,0,0
1557.5330000000001,357,307,327,288,0,0,0,0,0,0
1565.741,361,308,327,289,0,0,0,0,0,0
1568.762,366,309,327,290,0,0,0,0,0,0
1572.623,369,309,326,290,0,0,0,0,0,0
1572.623,371,309,325,291,0,0,0,0,0,0
1579.359,374,308,325,291,0,0,0,0,0,0
1581.9399999999998,376,308,324,292,0,0,0,0,0,0
1581.9399999999998,377,308,323,292,0,0,0,0,0,0
1592.921,379,307,322,292,2408,6548,14444,-237,-91,37
1598.148,382,305,321,292,2408,6548,14444,-237,-91,37
1603.071,384,303,320,293,2408,6548,14444,-237,-91,37
1605.663,386,299,320,294,2408,6548,14444,-237,-91,37
1613.186,387,298,318,294,2408,6548,14444,-237,-91,37
1616.693,388,296,316,295,2408,6548,14444,-237,-91,37
1624.4209999999998,386,296,315,296,2408,6548,14444,-237,-91,37
1630.598,383,296,313,297,2408,6548,14444,-237,-91,37
1638.266,380,298,311,297,2272,6996,14420,-8,-60,77
1642.3980000000001,377,299,310,298,2272,6996,14420,-8,-60,77
1646.4289999999999,375,300,309,300,2272,6996,14420,-8,-60,77
1650.7179999999998,373,301,308,299,2272,6996,14420,-8,-60,77
1660.931,372,302,307,300,2272,6996,14420,-8,-60,77
1663.9219999999998,369,303,306,301,2272,6996,14420,-8,-60,77
1668.604,368,303,305,302,2272,6996,14420,-8,-60,77
1677.252,366,303,304,302,2432,6528,14436,-585,28,-14
1679.605,363,303,304,303,2432,6528,14436,-585,28,-14
1683.5059999999999,361,302,304,304,2432,6528,14436,-585,28,-14
1691.1529999999998,359,302,303,305,2432,6528,14436,-585,28,-14
1696.457,356,300,301,305,2432,6528,14436,-585,28,-14
1701.705,354,298,300,306,2432,6528,14436,-585,28,-14
1707.689,353,296,300,307,2432,6528,14436,-585,28,-14
1713.106,352,296,298,307,2348,6800,14500,-449,152,29
1722.2569999999998,349,295,297,307,2348,6800,14500,-449,152,29
1722.2569999999998,348,295,296,308,2348,6800,14500,-449,152,29
1728.864,346,295,294,308,2348,6800,14500,-449,152,29
1735.4879999999998,345,294,292,308,2348,6800,14500,-449,152,29
1741.873,344,295,291,309,2348,6800,14500,-449,152,29
1746.547,342,296,290,310,2348,6800,14500,-449,152,29
1753.498,340,298,288,309,2196,6692,14548,-182,65,175
1757.6670000000001,338,297,285,309,2196,6692,14548,-182,65,175
1761.283,337,296,283,311,2196,6692,14548,-182,65,175
1768.969,335,293,280,310,2196,6692,14548,-182,65,175
1779.271,334,291,277,310,2196,6692,14548,-182,65,175
1779.271,333,290,276,309,2196,6692,14548,-182,65,175
1785.913,333,288,277,310,2196,6692,14548,-182,65,175
1790.818,332,285,277,309,2356,6504,14416,281,-116,43
1798.633,330,283,278,309,2356,6504,14416,281,-116,43
1801.59,329,282,279,309,2356,6504,14416,281,-116,43
1806.597,330,281,279,310,2356,6504,14416,281,-116,43
1816.467,331,279,278,309,2356,6504,14416,281,-116,43
1823.903,334,278,279,309,2356,6504,14416,281,-116,43
1826.327,337,277,280,309,2356,6504,14416,281,-116,43
1834.339,342,276,281,310,2256,6888,14380,334,-52,29
1836.0749999999998,348,276,281,309,2256,6888,14380,334,-52,29
1843.1770000000001,351,276,281,310,2256,6888,14380,334,-52,29
1846.227,355,276,279,310,2256,6888,14380,334,-52,29
1857.008,360,277,276,310,2256,6888,14380,334,-52,29
1859.266,365,277,272,310,2256,6888,14380,334,-52,29
1859.266,372,277,268,311,2256,6888,14380,334,-52,29
1869.408,378,278,265,311,2256,6888,14380,334,-52,29
1877.4189999999999,383,280,261,311,2340,6728,14464,-192,120,-49
1879.684,387,282,258,311,2340,6728,14464,-192,120,-49
1890.0110000000002,392,285,259,311,2340,6728,14464,-192,120,-49
1894.584,400,287,260,311,2340,6728,14464,-192,120,-49
1902.4430000000002,411,289,262,311,2340,6728,14464,-192,120,-49
1906.567,421,290,269,312,2340,6728,14464,-192,120,-49
1914.634,429,289,272,312,2340,6728,14464,-192,120,-49
1916.658,436,289,276,311,2248,6624,14536,-363,168,-65
1923.929,438,286,279,310,2248,6624,14536,-363,168,-65
1923.929,435,284,281,311,2248,6624,14536,-363,168,-65
1935.03,432,282,282,309,2248,6624,14536,-363,168,-65
1937.139,428,281,283,308,2248,6624,14536,-363,168,-65
1946.618,425,281,283,309,2248,6624,14536,-363,168,-65
1946.618,424,283,284,309,2248,6624,14536,-363,168,-65
1957.5739999999998,423,283,286,308,2252,6744,14592,-379,152,-93
1957.5739999999998,423,285,291,308,2252,6744,14592,-379,152,-93
1968.6090000000002,423,285,292,309,2252,6744,14592,-379,152,-93
1975.333,418,286,294,309,2252,6744,14592,-379,152,-93
1979.453,415,287,294,309,2252,6744,14592,-379,152,-93
1986.804,410,288,295,310,2252,6744,14592,-379,152,-93
1991.158,405,289,294,311,2252,6744,14592,-379,152,-93
1994.6280000000002,400,290,294,310,2336,6788,14336,-2,125,-38
2002.1499999999999,395,291,294,310,2336,6788,14336,-2,125,-38
2002.1499999999999,389,292,294,311,2336,6788,14336,-2,125,-38
2016.734,383,294,295,310,2336,6788,14336,-2,125,-38
2019.53,377,295,297,310,2336,6788,14336,-2,125,-38
2024.188,373,297,299,310,2336,6788,14336,-2,125,-38
2027.323,369,299,301,311,2336,6788,14336,-2,125,-38
2035.062,365,300,304,310,2300,6760,14452,20,-169,38
2035.062,361,302,309,311,2300,6760,14452,20,-169,38
2046.2500000000002,360,303,311,311,2300,6760,14452,20,-169,38
2052.384,361,305,313,311,2300,6760,14452,20,-169,38
2057.3709999999996,366,306,315,310,2300,6760,14452,20,-169,38
2064.4840000000004,377,309,317,311,2300,6760,14452,20,-169,38
2068.415,387,311,319,311,2300,6760,14452,20,-169,38
2072.556,398,312,319,310,2240,6808,14492,-497,218,-104
2079.9919999999997,407,314,319,310,2240,6808,14492,-497,218,-104
2079.9919999999997,414,315,320,311,2240,6808,14492,-497,218,-104
2090.795,416,316,319,311,2240,6808,14492,-497,218,-104
2097.512,419,317,319,310,2240,6808,14492,-497,218,-104
2101.8430000000003,419,317,317,310,2240,6808,14492,-497,218,-104
2110.551,417,318,315,311,2240,6808,14492,-497,218,-104
2116.85,411,318,313,310,2324,6256,14648,-925,217,-82
2124.226,406,317,312,310,2324,6256,14648,-925,217,-82
2124.226,401,318,311,311,2324,6256,14648,-925,217,-82
2132.752,398,317,311,311,2324,6256,14648,-925,217,-82
2138.419,397,318,312,310,2324,6256,14648,-925,217,-82
2147.392,395,318,315,311,2324,6256,14648,-925,217,-82
2147.392,394,317,319,311,2324,6256,14648,-925,217,-82
2157.684,391,317,320,311,2136,6700,14560,-669,344,-290
2157.684,387,316,320,311,2136,6700,14560,-669,344,-290
2167.9900000000002,384,316,320,311,2136,6700,14560,-669,344,-290
2172.699,380,316,318,310,2136,6700,14560,-669,344,-290
2179.745,376,315,314,310,2136,6700,14560,-669,344,-290
2188.733,368,315,310,310,2136,6700,14560,-669,344,-290
2190.899,359,315,303,310,2136,6700,14560,-669,344,-290
2201.8430000000003,347,314,296,309,2268,6644,14580,-1157,471,-428
2201.8430000000003,330,312,289,309,2268,6644,14580,-1157,471,-428
2213.13,318,311,283,309,2268,6644,14580,-1157,471,-428
2216.9660000000003,302,310,277,308,2268,6644,14580,-1157,471,-428
2225.005,288,308,272,308,2268,6644,14580,-1157,471,-428
2225.005,276,307,268,308,2268,6644,14580,-1157,471,-428
2235.0919999999996,264,308,264,307,2128,6204,14496,-1598,599,-455
2243.642,254,307,259,307,2128,6204,14496,-1598,599,-455
2246.187,248,307,257,306,2128,6204,14496,-1598,599,-455
2255.2690000000002,243,307,255,306,2128,6204,14496,-1598,599,-455
2257.06,239,307,251,305,2128,6204,14496,-1598,599,-455
2266.276,236,307,248,304,2128,6204,14496,-1598,599,-455
2268.337,235,307,244,304,2128,6204,14496,-1598,599,-455
2279.747,234,308,242,303,2128,6596,14556,-1308,486,-320
2279.747,234,307,239,303,2128,6596,14556,-1308,486,-320
2290.4390000000003,234,304,237,303,2128,6596,14556,-1308,486,-320
2293.5080000000003,236,300,235,302,2128,6596,14556,-1308,486,-320
2303.3100000000004,240,294,234,301,2128,6596,14556,-1308,486,-320
2303.3100000000004,245,289,235,302,2128,6596,14556,-1308,486,-320
2312.9,250,284,237,302,2128,6596,14556,-1308,486,-320
2318.7509999999997,254,278,240,301,2080,6132,14652,-822,85,-157
2323.5969999999998,261,272,243,302,2080,6132,14652,-822,85,-157
2326.295,265,268,247,303,2080,6132,14652,-822,85,-157
2335.623,268,265,252,302,2080,6132,14652,-822,85,-157
2344.418,271,260,256,302,2080,6132,14652,-822,85,-157
2346.3669999999997,273,257,261,304,2080,6132,14652,-822,85,-157
2351.917,272,253,265,303,2080,6132,14652,-822,85,-157
2356.768,270,251,269,303,2060,6104,14672,33,-60,-110
2363.8650000000002,269,247,274,303,2060,6104,14672,33,-60,-110
2368.5330000000004,267,246,277,304,2060,6104,14672,33,-60,-110
2375.653,266,245,280,304,2060,6104,14672,33,-60,-110
2380.163,264,243,283,304,2060,6104,14672,33,-60,-110
2383.538,262,242,288,305,2060,6104,14672,33,-60,-110
2391.7099999999996,260,241,291,305,2060,6104,14672,33,-60,-110
2402.32,259,239,296,304,2084,6208,14652,-13,-127,-139
2402.32,257,237,300,305,2084,6208,14652,-13,-127,-139
2408.411,256,236,305,306,2084,6208,14652,-13,-127,-139
2416.835,255,235,308,305,2084,6208,14652,-13,-127,-139
2421.0919999999996,254,234,312,305,2084,6208,14652,-13,-127,-139
2423.708,253,232,315,307,2084,6208,14652,-13,-127,-139
2435.14,252,232,320,306,2084,6208,14652,-13,-127,-139
2435.14,251,231,324,305,2084,6172,14700,-285,-36,0
2446.088,250,231,328,306,2084,6172,14700,-285,-36,0
2449.231,250,231,331,307,2084,6172,14700,-285,-36,0
2458.388,249,231,333,307,2084,6172,14700,-285,-36,0
2458.388,249,232,335,307,2084,6172,14700,-285,-36,0
2465.77,249,233,338,308,2084,6172,14700,-285,-36,0
2468.579,250,235,341,308,2084,6172,14700,-285,-36,0
2479.485,249,236,343,308,2180,6260,14636,52,-25,185
2481.878,250,238,346,309,2180,6260,14636,52,-25,185
2492.234,248,241,349,310,2180,6260,14636,52,-25,185
2492.234,248,244,351,310,2180,6260,14636,52,-25,185
2498.675,248,248,355,310,2180,6260,14636,52,-25,185
2502.0370000000003,248,254,360,311,2180,6260,14636,52,-25,185
2512.7039999999997,248,259,364,312,2180,6260,14636,52,-25,185
2516.72,248,266,368,311,2216,6092,14876,490,20,269
2523.881,248,274,371,312,2216,6092,14876,490,20,269
2526.4449999999997,246,281,373,313,2216,6092,14876,490,20,269
2526.4449999999997,246,288,375,313,2216,6092,14876,490,20,269
2535.977,246,298,377,313,2216,6092,14876,490,20,269
2546.211,246,307,378,313,2216,6092,14876,490,20,269
2546.211,248,320,378,314,2216,6092,14876,490,20,269
2557.547,249,332,376,313,2164,6480,14688,912,163,136
2560.092,252,343,372,313,2164,6480,14688,912,163,136
2560.092,252,348,368,314,2164,6480,14688,912,163,136
2569.516,253,351,363,314,2164,6480,14688,912,163,136
2576.34,255,355,359,312,2164,6480,14688,912,163,136
2579.656,257,359,356,313,2164,6480,14688,912,163,136
2590.314,258,363,358,313,2164,6480,14688,912,163,136
2590.314,260,366,359,312,1996,6300,15156,-57,305,-164
2601.7039999999997,258,367,364,312,1996,6300,15156,-57,305,-164
2604.304,256,364,371,311,1996,6300,15156,-57,305,-164
2613.508,255,352,385,311,1996,6300,15156,-57,305,-164
2616.578,256,337,400,311,1996,6300,15156,-57,305,-164
2623.745,262,326,416,311,1996,6300,15156,-57,305,-164
2625.412,269,319,428,312,1996,6300,15156,-57,305,-164
2633.0879999999997,277,312,433,311,1948,6128,14828,-353,46,-217
2638.114,288,307,429,310,1948,6128,14828,-353,46,-217
2647.094,295,304,422,310,1948,6128,14828,-353,46,-217
2647.094,301,301,413,309,1948,6128,14828,-353,46,-217
2657.375,307,298,403,307,1948,6128,14828,-353,46,-217
2662.461,312,295,395,307,1948,6128,14828,-353,46,-217
2668.236,314,294,390,307,1948,6128,14828,-353,46,-217
2676.304,316,293,387,306,2160,6428,14504,-282,105,-331
2683.315,317,294,387,304,2160,6428,14504,-282,105,-331
2688.736,318,294,388,304,2160,6428,14504,-282,105,-331
2691.105,320,295,391,303,2160,6428,14504,-282,105,-331
2702.029,320,294,395,302,2160,6428,14504,-282,105,-331
2702.029,321,294,398,301,2160,6428,14504,-282,105,-331
2713.354,322,295,399,301,2160,6428,14504,-282,105,-331
2716.863,320,296,397,299,1924,5992,14572,144,526,-289
2722.1389999999997,316,301,392,299,1924,5992,14572,144,526,-289
2730.147,310,306,389,299,1924,5992,14572,144,526,-289
2733.132,304,313,385,298,1924,5992,14572,144,526,-289
2742.054,301,317,382,297,1924,5992,14572,144,526,-289
2746.417,294,323,381,296,1924,5992,14572,144,526,-289
2748.325,289,328,379,296,1924,5992,14572,144,526,-289
2757.552,283,330,375,295,2092,6752,14620,1000,429,-163
2760.451,275,332,370,294,2092,6752,14620,1000,429,-163
2769.375,269,333,363,294,2092,6752,14620,1000,429,-163
2769.375,259,333,355,293,2092,6752,14620,1000,429,-163
2779.644,250,333,346,292,2092,6752,14620,1000,429,-163
2785.638,239,333,336,293,2092,6752,14620,1000,429,-163
2790.331,232,334,328,293,2092,6752,14620,1000,429,-163
2797.393,228,333,318,292,1812,6548,14984,-277,600,-335
2802.0429999999997,226,333,312,293,1812,6548,14984,-277,600,-335
2809.851,228,334,307,294,1812,6548,14984,-277,600,-335
2816.926,232,333,303,294,1812,6548,14984,-277,600,-335
2823.919,237,333,298,294,1812,6548,14984,-277,600,-335
2825.974,242,334,295,295,1812,6548,14984,-277,600,-335
2835.4849999999997,249,333,291,295,1812,6548,14984,-277,600,-335
2835.4849999999997,254,333,288,296,1896,6208,14848,-1431,993,-424
2846.294,261,332,285,297,1896,6208,14848,-1431,993,-424
2846.294,265,330,282,298,1896,6208,14848,-1431,993,-424
2857.26,268,329,276,298,1896,6208,14848,-1431,993,-424
2863.075,267,328,274,298,1896,6208,14848,-1431,993,-424
2868.002,263,328,269,299,1896,6208,14848,-1431,993,-424
2875.603,257,330,264,299,1892,6244,14776,-1150,1273,-568
2880.219,253,331,259,300,1892,6244,14776,-1150,1273,-568
2887.645,252,335,257,301,1892,6244,14776,-1150,1273,-568
2890.573,250,339,253,301,1892,6244,14776,-1150,1273,-568
2902.324,250,344,249,301,1892,6244,14776,-1150,1273,-568
2910.386,248,351,244,304,1892,6244,14776,-1150,1273,-568
2913.161,249,355,242,306,1892,6244,14776,-1150,1273,-568
2917.178,250,360,238,309,1552,6116,14692,-808,1588,-698
2924.03,251,363,237,312,1552,6116,14692,-808,1588,-698
2924.03,252,364,234,317,1552,6116,14692,-808,1588,-698
2935.19,254,364,231,321,1552,6116,14692,-808,1588,-698
2944.241,255,362,229,325,1552,6116,14692,-808,1588,-698
2945.536,257,361,228,329,1552,6116,14692,-808,1588,-698
2952.768,263,364,229,333,1552,6116,14692,-808,1588,-698
2957.435,271,370,229,335,1400,5516,15016,-260,1371,-522
2968.3480000000004,285,378,230,340,1400,5516,15016,-260,1371,-522
2968.3480000000004,299,383,227,343,1400,5516,15016,-260,1371,-522
2979.4809999999998,312,384,227,345,1400,5516,15016,-260,1371,-522
2987.578,325,378,229,349,1400,5516,15016,-260,1371,-522
2991.241,335,363,231,352,1400,5516,15016,-260,1371,-522
2993.7079999999996,345,353,228,354,1204,6648,14776,-115,1468,-554
3001.805,352,346,227,355,1204,6648,14776,-115,1468,-554
3011.333,358,342,225,356,1204,6648,14776,-115,1468,-554
3017.019,363,338,224,356,1204,6648,14776,-115,1468,-554
3023.993,365,333,222,355,1204,6648,14776,-115,1468,-554
3023.993,367,328,222,356,1204,6648,14776,-115,1468,-554
3033.555,367,322,224,356,1204,6648,14776,-115,1468,-554
3035.551,366,315,225,355,984,5568,14928,-1405,1366,-712
3043.454,364,309,228,354,984,5568,14928,-1405,1366,-712
3054.172,363,306,229,353,984,5568,14928,-1405,1366,-712
3057.448,362,304,230,350,984,5568,14928,-1405,1366,-712
3065.496,360,305,232,348,984,5568,14928,-1405,1366,-712
3068.782,358,305,235,346,984,5568,14928,-1405,1366,-712
3078.095,357,305,239,343,984,5568,14928,-1405,1366,-712
3080.304,356,303,242,339,1080,5940,15048,-622,926,-330
3090.6189999999997,355,301,246,337,1080,5940,15048,-622,926,-330
3090.6189999999997,354,300,247,333,1080,5940,15048,-622,926,-330
3097.159,354,298,249,329,1080,5940,15048,-622,926,-330
3101.8089999999997,354,297,251,323,1080,5940,15048,-622,926,-330
3108.985,355,296,254,318,1080,5940,15048,-622,926,-330
3118.4249999999997,354,295,256,312,800,6036,14960,-416,270,-416
3118.4249999999997,355,294,259,305,800,6036,14960,-416,270,-416
3124.977,355,295,261,302,800,6036,14960,-416,270,-416
3133.2200000000003,356,296,262,298,800,6036,14960,-416,270,-416
3138.1679999999997,356,297,265,292,800,6036,14960,-416,270,-416
3146.49,357,299,269,289,800,6036,14960,-416,270,-416
3146.49,358,302,271,286,800,6036,14960,-416,270,-416
3157.546,358,304,273,283,1052,6124,14764,-1066,1012,-533
3157.546,356,305,273,281,1052,6124,14764,-1066,1012,-533
3167.759,356,307,276,280,1052,6124,14764,-1066,1012,-533
3173.947,355,308,276,278,1052,6124,14764,-1066,1012,-533
3179.194,353,312,277,276,1052,6124,14764,-1066,1012,-533
3186.2219999999998,352,314,278,276,1052,6124,14764,-1066,1012,-533
3196.8450000000003,351,317,276,275,1052,6124,14764,-1066,1012,-533
3198.3259999999996,350,321,273,274,700,5388,14972,-73,564,160
3202.2659999999996,347,325,271,275,700,5388,14972,-73,564,160
3213.15,346,328,270,276,700,5388,14972,-73,564,160
3217.656,342,331,268,276,700,5388,14972,-73,564,160
3219.948,339,334,264,278,700,5388,14972,-73,564,160
3224.108,336,337,261,280,700,5388,14972,-73,564,160
3231.647,332,338,258,282,700,5388,14972,-73,564,160
3235.511,329,339,254,284,900,6480,14796,290,194,-33
3245.581,326,340,251,286,900,6480,14796,290,194,-33
3247.545,324,340,249,289,900,6480,14796,290,194,-33
3257.588,321,340,248,291,900,6480,14796,290,194,-33
3259.726,318,341,244,294,900,6480,14796,290,194,-33
3259.726,316,340,243,296,900,6480,14796,290,194,-33
3269.165,314,341,245,299,900,6480,14796,290,194,-33
3277.5699999999997,312,341,245,301,704,5352,15096,-396,439,33
3280.1809999999996,309,340,246,304,704,5352,15096,-396,439,33
3290.1820000000002,308,338,249,306,704,5352,15096,-396,439,33
3290.1820000000002,306,335,251,309,704,5352,15096,-396,439,33
3297.2709999999997,303,331,252,311,704,5352,15096,-396,439,33
3301.984,301,327,256,314,704,5352,15096,-396,439,33
3309.572,300,323,258,316,704,5352,15096,-396,439,33
3312.864,300,320,262,317,704,5352,15096,-396,439,33
3323.659,300,318,267,319,812,6276,15048,259,-281,-40
3325.701,301,315,274,321,812,6276,15048,259,-281,-40
3325.701,300,314,277,323,812,6276,15048,259,-281,-40
3335.9480000000003,301,311,283,323,812,6276,15048,259,-281,-40
3342.341,300,308,288,325,812,6276,15048,259,-281,-40
3346.252,300,306,292,326,812,6276,15048,259,-281,-40
3357.056,300,302,298,327,812,6276,15048,259,-281,-40
3357.056,298,298,302,327,880,5616,14884,-944,134,-175
3368.688,298,294,306,328,880,5616,14884,-944,134,-175
3368.688,298,292,310,328,880,5616,14884,-944,134,-175
3380.162,296,289,312,327,880,5616,14884,-944,134,-175
3383.1910000000003,296,287,316,327,880,5616,14884,-944,134,-175
3383.1910000000003,296,285,319,327,880,5616,14884,-944,134,-175
3391.93,297,284,322,325,880,5616,14884,-944,134,-175
3401.735,297,281,325,323,940,6328,14904,-335,-20,-3
3409.837,300,280,327,322,940,6328,14904,-335,-20,-3
3412.754,302,279,329,320,940,6328,14904,-335,-20,-3
3418.3810000000003,304,277,330,318,940,6328,14904,-335,-20,-3
3424.078,307,276,333,315,940,6328,14904,-335,-20,-3
3428.202,310,275,336,313,940,6328,14904,-335,-20,-3
3435.028,315,274,340,311,940,6328,14904,-335,-20,-3
3436.048,318,273,341,307,440,4704,14988,-643,5,-7
3446.634,322,271,343,305,440,4704,14988,-643,5,-7
3446.634,325,270,344,304,440,4704,14988,-643,5,-7
3455.306,328,270,346,301,440,4704,14988,-643,5,-7
3457.569,330,269,347,298,440,4704,14988,-643,5,-7
3466.434,331,268,348,295,440,4704,14988,-643,5,-7
3467.992,332,268,349,293,440,4704,14988,-643,5,-7
3473.026,333,267,349,290,440,4704,14988,-643,5,-7
3479.173,334,267,349,288,360,5768,15356,-168,261,142
3486.113,334,266,350,287,360,5768,15356,-168,261,142
3490.573,335,265,349,286,360,5768,15356,-168,261,142
3497.944,335,265,349,283,360,5768,15356,-168,261,142
3504.364,337,264,350,282,360,5768,15356,-168,261,142
3512.3160000000003,338,263,349,282,360,5768,15356,-168,261,142
3516.95,338,262,350,282,360,5768,15356,-168,261,142
3521.136,340,262,350,280,940,5708,14772,-120,116,-79
3528.5389999999998,342,260,350,279,940,5708,14772,-120,116,-79
3530.6000000000004,344,260,350,278,940,5708,14772,-120,116,-79
3535.743,346,259,349,276,940,5708,14772,-120,116,-79
3542.882,348,260,350,275,940,5708,14772,-120,116,-79
3546.373,350,260,349,273,940,5708,14772,-120,116,-79
3557.023,351,261,350,272,940,5708,14772,-120,116,-79
3557.023,351,262,348,269,680,5784,15224,-411,267,-186
3568.293,353,263,349,267,680,5784,15224,-411,267,-186
3571.542,353,263,348,266,680,5784,15224,-411,267,-186
3571.542,353,261,347,264,680,5784,15224,-411,267,-186
3580.254,355,260,346,264,680,5784,15224,-411,267,-186
3590.721,355,259,346,264,680,5784,15224,-411,267,-186
3598.741,356,258,344,263,680,5784,15224,-411,267,-186
3602.221,355,258,343,262,660,5784,14892,-38,55,-130
3602.221,356,258,342,264,660,5784,14892,-38,55,-130
3612.855,355,258,340,264,660,5784,14892,-38,55,-130
3618.6189999999997,355,258,340,264,660,5784,14892,-38,55,-130
3618.6189999999997,356,259,339,265,660,5784,14892,-38,55,-130
3624.45,356,258,336,265,660,5784,14892,-38,55,-130
3633.724,356,260,335,265,660,5784,14892,-38,55,-130
3637.719,355,260,335,267,564,5744,15080,-136,-174,-42
3646.4880000000003,354,261,335,269,564,5744,15080,-136,-174,-42
3646.4880000000003,354,263,334,271,564,5744,15080,-136,-174,-42
3657.902,354,265,333,271,564,5744,15080,-136,-174,-42
3657.902,354,266,333,272,564,5744,15080,-136,-174,-42
3668.152,354,269,331,275,564,5744,15080,-136,-174,-42
3676.54,353,270,330,276,564,5744,15080,-136,-174,-42
3679.6549999999997,352,272,330,277,896,5672,14940,-255,-176,21
3683.574,350,274,330,279,896,5672,14940,-255,-176,21
3692.0769999999998,349,276,329,280,896,5672,14940,-255,-176,21
3692.0769999999998,348,277,328,282,896,5672,14940,-255,-176,21
3703.205,346,279,327,283,896,5672,14940,-255,-176,21
3708.11,345,280,327,285,896,5672,14940,-255,-176,21
3713.0420000000004,344,281,326,286,896,5672,14940,-255,-176,21
3719.148,342,281,325,287,772,5784,14996,-234,-31,88
3723.7619999999997,340,283,324,289,772,5784,14996,-234,-31,88
3726.7549999999997,339,283,323,290,772,5784,14996,-234,-31,88
3735.5260000000003,338,283,322,291,772,5784,14996,-234,-31,88
3739.022,337,284,321,292,772,5784,14996,-234,-31,88
3746.23,335,285,321,294,772,5784,14996,-234,-31,88
3751.878,334,284,320,295,772,5784,14996,-234,-31,88
3757.123,332,284,318,295,760,5540,15044,-408,57,-88
3759.991,331,284,318,297,760,5540,15044,-408,57,-88
3769.407,329,284,317,298,760,5540,15044,-408,57,-88
3769.407,328,284,317,299,760,5540,15044,-408,57,-88
3779.629,327,284,318,299,760,5540,15044,-408,57,-88
3779.629,326,285,318,300,760,5540,15044,-408,57,-88
3790.384,325,285,317,302,760,5540,15044,-408,57,-88
3798.462,324,286,317,302,760,5540,15044,-408,57,-88
3802.0930000000003,324,286,318,303,620,5480,15052,-133,109,-30
3802.0930000000003,323,286,319,305,620,5480,15052,-133,109,-30
3812.897,322,287,319,304,620,5480,15052,-133,109,-30
3818.868,321,287,318,304,620,5480,15052,-133,109,-30
3823.364,320,287,317,305,620,5480,15052,-133,109,-30
3829.81,320,287,317,306,620,5480,15052,-133,109,-30
3834.956,320,287,317,306,620,5480,15052,-133,109,-30
3837.752,319,286,316,306,776,5608,14960,-237,154,-126
3847.435,318,285,315,307,776,5608,14960,-237,154,-126
3855.518,318,285,315,307,776,5608,14960,-237,154,-126
3857.633,317,284,313,307,776,5608,14960,-237,154,-126
3862.409,316,284,313,308,776,5608,14960,-237,154,-126
3868.0249999999996,316,284,311,308,776,5608,14960,-237,154,-126
3874.3439999999996,316,284,311,308,776,5608,14960,-237,154,-126
3879.504,317,285,311,309,616,5568,15072,-42,256,-95
3886.516,317,285,311,310,616,5568,15072,-42,256,-95
3891.371,317,286,310,310,616,5568,15072,-42,256,-95
3901.489,316,287,309,310,616,5568,15072,-42,256,-95
3902.808,315,287,308,310,616,5568,15072,-42,256,-95
3910.808,315,288,307,310,616,5568,15072,-42,256,-95
3913.0530000000003,314,288,306,310,616,5568,15072,-42,256,-95
3919.31,314,289,306,310,700,5764,14904,236,70,-19
3924.3160000000003,313,289,305,310,700,5764,14904,236,70,-19
3933.3469999999998,313,289,304,311,700,5764,14904,236,70,-19
3935.476,311,290,303,310,700,5764,14904,236,70,-19
3940.941,311,291,302,310,700,5764,14904,236,70,-19
3945.675,310,291,303,311,700,5764,14904,236,70,-19
3952.032,310,293,303,311,700,5764,14904,236,70,-19
3957.376,309,293,301,311,628,5428,15064,135,161,66
3957.376,308,294,302,311,628,5428,15064,135,161,66
3968.714,308,295,302,311,628,5428,15064,135,161,66
3968.714,307,295,302,312,628,5428,15064,135,161,66
3978.7650000000003,306,296,301,311,628,5428,15064,135,161,66
3980.8759999999997,306,298,302,312,628,5428,15064,135,161,66
3990.505,305,298,302,313,628,5428,15064,135,161,66
3993.268,304,299,302,312,628,5428,15064,135,161,66
4002.643,304,300,301,312,664,5800,15136,503,32,-16
4002.643,304,300,302,312,664,5800,15136,503,32,-16
4011.2560000000003,304,301,302,312,664,5800,15136,503,32,-16
4019.0919999999996,304,301,302,311,664,5800,15136,503,32,-16
4023.6020000000003,304,302,301,311,664,5800,15136,503,32,-16
4026.0179999999996,304,303,303,311,664,5800,15136,503,32,-16
4035.8910000000005,304,302,303,311,664,5800,15136,503,32,-16
4035.8910000000005,304,302,302,310,692,5628,15016,141,48,-81
4042.592,305,303,303,310,692,5628,15016,141,48,-81
4046.6629999999996,306,303,302,311,692,5628,15016,141,48,-81
4057.302,306,303,302,311,692,5628,15016,141,48,-81
4057.302,306,303,301,310,692,5628,15016,141,48,-81
4063.395,306,303,302,310,692,5628,15016,141,48,-81
4068.307,307,304,303,310,692,5628,15016,141,48,-81
4075.8409999999994,307,304,303,309,692,5628,15016,141,48,-81
4079.636,308,305,304,309,556,5604,15060,324,-149,101
4083.7969999999996,308,305,305,309,556,5604,15060,324,-149,101
4090.637,308,304,306,308,556,5604,15060,324,-149,101
4101.39,307,304,305,308,556,5604,15060,324,-149,101
4103.816,308,305,306,308,556,5604,15060,324,-149,101
4103.816,308,304,306,308,556,5604,15060,324,-149,101
4114.485000000001,307,305,306,307,556,5604,15060,324,-149,101
4120.168,306,304,306,307,736,5972,14876,546,-194,-46
4124.549,306,304,306,307,736,5972,14876,546,-194,-46
4133.179,306,304,306,307,736,5972,14876,546,-194,-46
4138.277999999999,305,304,305,307,736,5972,14876,546,-194,-46
4146.0470000000005,305,303,306,308,736,5972,14876,546,-194,-46
4148.746,305,305,307,308,736,5972,14876,546,-194,-46
4148.746,304,306,307,308,736,5972,14876,546,-194,-46
4158.25,302,307,306,308,696,5700,14992,145,-48,-60
4165.583,301,307,306,308,696,5700,14992,145,-48,-60
4168.87,300,308,307,309,696,5700,14992,145,-48,-60
4179.873,299,309,308,308,696,5700,14992,145,-48,-60
4181.044,298,310,309,309,696,5700,14992,145,-48,-60
4189.066000000001,296,311,309,310,696,5700,14992,145,-48,-60
4191.5560000000005,295,312,310,310,696,5700,14992,145,-48,-60
4198.316,291,314,311,310,648,5848,15000,587,-171,124
4201.870000000001,290,315,311,310,648,5848,15000,587,-171,124
4213.001,288,316,312,311,648,5848,15000,587,-171,124
4216.926,288,317,313,310,648,5848,15000,587,-171,124
4223.881,287,317,313,311,648,5848,15000,587,-171,124
4226.445,286,318,314,311,648,5848,15000,587,-171,124
4234.4439999999995,286,318,316,311,648,5848,15000,587,-171,124
4235.445000000001,286,319,316,311,688,6068,15092,775,-187,0
4242.867,286,319,316,311,688,6068,15092,775,-187,0
4247.200000000001,287,319,317,311,688,6068,15092,775,-187,0
4257.839,288,319,318,311,688,6068,15092,775,-187,0
4257.839,288,319,318,311,688,6068,15092,775,-187,0
4264.951,290,318,318,311,688,6068,15092,775,-187,0
4269.032,292,317,318,311,688,6068,15092,775,-187,0
4276.23,293,317,318,310,688,6068,15092,775,-187,0
4279.549,294,316,318,310,640,5908,15020,16,-41,77
4290.456,295,315,318,311,640,5908,15020,16,-41,77
4291.8640000000005,296,315,317,310,640,5908,15020,16,-41,77
4291.8640000000005,298,313,317,310,640,5908,15020,16,-41,77
4302.889999999999,298,312,315,309,640,5908,15020,16,-41,77
4311.093,300,311,314,310,640,5908,15020,16,-41,77
4313.417,301,309,312,309,640,5908,15020,16,-41,77
4320.14,302,307,311,309,716,5868,14780,-101,-80,70
4323.478,303,307,311,309,716,5868,14780,-101,-80,70
4329.271000000001,304,306,311,309,716,5868,14780,-101,-80,70
4334.702,304,305,310,309,716,5868,14780,-101,-80,70
4337.438999999999,305,304,309,308,716,5868,14780,-101,-80,70
4346.746999999999,304,303,309,307,716,5868,14780,-101,-80,70
4346.746999999999,305,302,308,308,716,5868,14780,-101,-80,70
4357.185,306,301,306,307,716,5868,14780,-101,-80,70
4362.201,305,299,305,306,788,5952,14880,-128,63,-1
4368.022,305,299,304,306,788,5952,14880,-128,63,-1
4368.022,305,298,303,306,788,5952,14880,-128,63,-1
4379.455,305,297,302,305,788,5952,14880,-128,63,-1
4379.455,305,297,300,305,788,5952,14880,-128,63,-1
4391.014,305,296,299,305,788,5952,14880,-128,63,-1
4391.014,305,295,297,305,788,5952,14880,-128,63,-1
4401.606,306,295,296,304,732,5844,14860,96,-123,-96
4401.606,305,295,295,304,732,5844,14860,96,-123,-96
4412.851,306,295,295,304,732,5844,14860,96,-123,-96
4412.851,306,295,295,303,732,5844,14860,96,-123,-96
4424.254,306,295,294,303,732,5844,14860,96,-123,-96
4427.570000000001,306,295,293,303,732,5844,14860,96,-123,-96
4427.570000000001,306,295,292,303,732,5844,14860,96,-123,-96
4436.392,307,294,291,303,668,6120,14956,123,-152,23
4446.3730000000005,307,294,290,303,668,6120,14956,123,-152,23
4446.3730000000005,307,294,289,303,668,6120,14956,123,-152,23
4457.2390000000005,307,294,288,303,668,6120,14956,123,-152,23
4460.451,307,293,287,302,668,6120,14956,123,-152,23
4460.451,307,293,287,302,668,6120,14956,123,-152,23
4469.535,308,292,286,303,668,6120,14956,123,-152,23
4477.544,307,292,284,302,668,6120,14956,123,-152,23
4479.625999999999,309,292,283,302,892,6124,14924,-88,-81,-49
4490.759,309,291,283,303,892,6124,14924,-88,-81,-49
4490.759,310,291,281,302,892,6124,14924,-88,-81,-49
4501.9130000000005,309,292,281,302,892,6124,14924,-88,-81,-49
4501.9130000000005,309,291,281,303,892,6124,14924,-88,-81,-49
4509.981,310,291,281,303,892,6124,14924,-88,-81,-49
4512.708,309,291,280,302,892,6124,14924,-88,-81,-49
4524.1759999999995,309,291,280,302,728,5908,14896,-199,2,-55
4524.1759999999995,310,292,281,303,728,5908,14896,-199,2,-55
4530.024,310,292,282,303,728,5908,14896,-199,2,-55
4539.943,309,292,282,303,728,5908,14896,-199,2,-55
4539.943,309,293,282,302,728,5908,14896,-199,2,-55
4546.679,308,293,283,303,728,5908,14896,-199,2,-55
4555.3949999999995,308,293,283,303,728,5908,14896,-199,2,-55
4557.405,308,293,283,302,748,5996,14900,-48,-27,-17
4562.933,308,293,284,303,748,5996,14900,-48,-27,-17
4568.031,308,292,285,303,748,5996,14900,-48,-27,-17
4575.532,307,292,284,303,748,5996,14900,-48,-27,-17
4579.669,307,292,285,303,748,5996,14900,-48,-27,-17
4583.451,307,292,285,303,748,5996,14900,-48,-27,-17
4591.062,307,292,285,304,748,5996,14900,-48,-27,-17
4601.673,306,292,285,303,748,5996,14900,-48,-27,-17
4601.673,306,291,284,303,800,5952,14924,-45,-81,-31
4607.819,307,291,285,304,800,5952,14924,-45,-81,-31
4616.862,306,291,284,303,800,5952,14924,-45,-81,-31
4620.377,305,291,284,304,800,5952,14924,-45,-81,-31
4624.531,305,291,286,303,800,5952,14924,-45,-81,-31
4633.161,305,291,286,304,800,5952,14924,-45,-81,-31
4633.161,305,292,285,303,800,5952,14924,-45,-81,-31
4639.463,305,292,285,303,692,5804,14996,-8,-17,-36
4646.814,305,292,287,304,692,5804,14996,-8,-17,-36
4655.363,305,292,287,304,692,5804,14996,-8,-17,-36
4658.031,306,292,287,304,692,5804,14996,-8,-17,-36
4666.496,305,293,287,304,692,5804,14996,-8,-17,-36
4666.496,305,293,287,304,692,5804,14996,-8,-17,-36
4672.135,304,293,287,304,692,5804,14996,-8,-17,-36
4680.170999999999,304,294,288,303,788,6076,14896,-3,-35,-32
4688.192,304,294,288,303,788,6076,14896,-3,-35,-32
4691.861,304,294,288,304,788,6076,14896,-3,-35,-32
4691.861,304,294,288,303,788,6076,14896,-3,-35,-32
4701.753,305,295,289,303,788,6076,14896,-3,-35,-32
4701.753,305,295,288,304,788,6076,14896,-3,-35,-32
4712.097,304,295,289,304,788,6076,14896,-3,-35,-32
4721.074,304,296,288,303,788,6076,14896,-3,-35,-32
4724.62,304,296,288,304,712,5952,14968,-227,-11,-24
4727.2480000000005,304,297,288,304,712,5952,14968,-227,-11,-24
4736.094999999999,305,297,288,304,712,5952,14968,-227,-11,-24
4736.094999999999,304,297,288,304,712,5952,14968,-227,-11,-24
4746.561,305,297,288,304,712,5952,14968,-227,-11,-24
4751.158,304,298,289,304,712,5952,14968,-227,-11,-24
4757.295,304,299,290,304,712,5952,14968,-227,-11,-24
4759.121,304,299,290,304,652,5904,15076,-12,19,30
4769.353,304,299,291,304,652,5904,15076,-12,19,30
4769.353,304,300,291,304,652,5904,15076,-12,19,30
4775.26,304,299,291,304,652,5904,15076,-12,19,30
4780.089,304,300,291,304,652,5904,15076,-12,19,30
4790.445,305,300,292,304,652,5904,15076,-12,19,30
4790.876,304,300,292,304,652,5904,15076,-12,19,30
4801.541,303,301,292,304,652,5904,15076,-12,19,30
4801.541,303,301,292,303,780,6000,14912,52,-128,-17
4809.1720000000005,302,301,293,304,780,6000,14912,52,-128,-17
4812.805,302,300,293,303,780,6000,14912,52,-128,-17
4821.1449999999995,302,301,292,303,780,6000,14912,52,-128,-17
4823.999,302,301,292,303,780,6000,14912,52,-128,-17
4834.821,302,301,294,304,780,6000,14912,52,-128,-17
4837.003000000001,301,301,294,303,780,6000,14912,52,-128,-17
4840.017,301,301,294,303,752,5876,15016,-111,-22,13
4846.966,302,301,295,304,752,5876,15016,-111,-22,13
4856.573,301,302,296,304,752,5876,15016,-111,-22,13
4859.996,301,302,296,303,752,5876,15016,-111,-22,13
4867.825,301,302,297,303,752,5876,15016,-111,-22,13
4872.421,301,302,297,303,752,5876,15016,-111,-22,13
4876.88,301,302,297,303,752,5876,15016,-111,-22,13
4883.039,300,303,297,303,756,5972,14960,-2,-46,20
4887.063999999999,301,303,298,303,756,5972,14960,-2,-46,20
4890.9710000000005,301,303,298,303,756,5972,14960,-2,-46,20
4899.705,300,303,298,302,756,5972,14960,-2,-46,20
4901.884,300,303,298,303,756,5972,14960,-2,-46,20
4906.798,302,303,298,304,756,5972,14960,-2,-46,20
4912.373,301,303,298,304,756,5972,14960,-2,-46,20
4920.9,301,303,298,303,756,5972,14960,-2,-46,20
4924.444,300,303,297,303,804,5936,14976,-163,-42,-20
4933.102,300,303,298,304,804,5936,14976,-163,-42,-20
4935.531,301,303,298,304,804,5936,14976,-163,-42,-20
4938.98,300,304,298,304,804,5936,14976,-163,-42,-20
4945.610000000001,300,304,298,304,804,5936,14976,-163,-42,-20
4952.005,300,304,298,305,804,5936,14976,-163,-42,-20
4957.188,300,304,298,305,804,5936,14976,-163,-42,-20
4959.986,301,304,299,304,704,5948,14960,31,-12,-15
4969.646,299,304,299,306,704,5948,14960,31,-12,-15
4969.646,299,304,298,306,704,5948,14960,31,-12,-15
4979.58,299,304,297,305,704,5948,14960,31,-12,-15
4987.599999999999,299,304,298,305,704,5948,14960,31,-12,-15
4990.351000000001,299,304,298,305,704,5948,14960,31,-12,-15
4998.567,300,304,298,305,704,5948,14960,31,-12,-15
5001.793000000001,299,305,297,305,816,5940,14936,-71,-1,-7
5004.524,300,305,298,305,816,5940,14936,-71,-1,-7
5004.524,299,305,299,305,816,5940,14936,-71,-1,-7
5013.524,299,305,298,305,816,5940,14936,-71,-1,-7
5024.0470000000005,299,305,298,305,816,5940,14936,-71,-1,-7
5024.0470000000005,299,306,299,305,816,5940,14936,-71,-1,-7
5035.325000000001,299,305,299,306,816,5940,14936,-71,-1,-7
5037.978,299,305,298,305,816,5940,14936,-71,-1,-7
5037.978,298,306,298,305,724,5916,14944,12,15,28
5047.159,299,307,300,306,724,5916,14944,12,15,28
5055.374,298,307,300,306,724,5916,14944,12,15,28
5057.855,298,307,300,305,724,5916,14944,12,15,28
5062.665,298,307,300,306,724,5916,14944,12,15,28
5067.874,298,307,300,306,724,5916,14944,12,15,28
5067.874,298,307,301,306,724,5916,14944,12,15,28
5079.511,299,307,301,306,724,5916,14944,12,15,28
5079.511,298,307,301,306,888,6072,14832,4,-23,-34
5088.559,298,307,302,307,888,6072,14832,4,-23,-34
5090.612,298,307,301,306,888,6072,14832,4,-23,-34
5101.725,298,307,302,306,888,6072,14832,4,-23,-34
5101.725,298,307,302,306,888,6072,14832,4,-23,-34
5112.883,298,307,303,306,888,6072,14832,4,-23,-34
5116.001,297,307,302,306,888,6072,14832,4,-23,-34
5121.016,298,307,302,306,792,5916,14892,46,31,-1
5125.124,298,307,303,306,792,5916,14892,46,31,-1
5133.3859999999995,299,307,304,307,792,5916,14892,46,31,-1
5133.3859999999995,298,307,303,306,792,5916,14892,46,31,-1
5138.933,298,308,303,306,792,5916,14892,46,31,-1
5146.899,299,308,303,306,792,5916,14892,46,31,-1
5154.956999999999,299,308,303,306,792,5916,14892,46,31,-1
5157.995,299,309,303,306,792,5916,14892,46,31,-1
5160.3,299,308,302,305,740,6120,14928,68,-36,-29
5168.543,300,307,303,306,740,6120,14928,68,-36,-29
5172.424999999999,300,307,303,305,740,6120,14928,68,-36,-29
5179.447999999999,300,307,303,305,740,6120,14928,68,-36,-29
5179.447999999999,300,308,303,305,740,6120,14928,68,-36,-29
5190.491,299,307,303,305,740,6120,14928,68,-36,-29
5190.491,300,308,303,305,740,6120,14928,68,-36,-29
5197.772,299,308,302,305,740,6120,14928,68,-36,-29
5202.126,300,308,303,305,768,5952,14928,-196,10,53
5212.570000000001,300,308,304,305,768,5952,14928,-196,10,53
5212.570000000001,300,308,304,305,768,5952,14928,-196,10,53
5224.218,301,308,304,304,768,5952,14928,-196,10,53
5224.218,299,308,304,305,768,5952,14928,-196,10,53
5232.222,299,309,303,305,768,5952,14928,-196,10,53
5237.525,298,309,304,305,768,5952,14928,-196,10,53
5242.9259999999995,298,309,304,305,836,5928,14908,-31,49,32
5246.721,299,308,305,305,836,5928,14908,-31,49,32
5246.721,299,308,305,306,836,5928,14908,-31,49,32
5257.55,299,309,305,305,836,5928,14908,-31,49,32
5263.637,298,308,305,305,836,5928,14908,-31,49,32
5268.602,297,308,306,306,836,5928,14908,-31,49,32
5271.178,297,309,305,306,836,5928,14908,-31,49,32
5280.685,297,308,305,305,836,5928,14908,-31,49,32
5280.685,297,308,305,306,800,5876,14852,-115,16,9
5287.969,297,308,306,306,800,5876,14852,-115,16,9
5290.728,297,309,306,306,800,5876,14852,-115,16,9
5301.905,297,309,305,306,800,5876,14852,-115,16,9
5301.905,296,309,306,306,800,5876,14852,-115,16,9
5313.273,297,309,307,307,800,5876,14852,-115,16,9
5313.273,296,309,306,306,800,5876,14852,-115,16,9
5321.128,296,309,306,306,720,6000,15004,46,0,-7
5324.277999999999,296,310,306,307,720,6000,15004,46,0,-7
5335.036,297,309,306,307,720,6000,15004,46,0,-7
5335.036,297,310,305,307,720,6000,15004,46,0,-7
5341.173000000001,297,309,305,306,720,6000,15004,46,0,-7
5346.384999999999,297,310,305,306,720,6000,15004,46,0,-7
5348.996999999999,296,310,305,307,720,6000,15004,46,0,-7
5358.597,297,310,304,307,720,6000,15004,46,0,-7
5358.597,296,310,304,306,772,5924,14944,-46,9,1
5365.476000000001,296,310,304,307,772,5924,14944,-46,9,1
5368.446,297,310,304,307,772,5924,14944,-46,9,1
5379.878,297,310,304,307,772,5924,14944,-46,9,1
5379.878,297,311,304,307,772,5924,14944,-46,9,1
5389.103999999999,298,311,304,307,772,5924,14944,-46,9,1
5391.933,298,311,304,307,772,5924,14944,-46,9,1
5391.933,297,311,304,306,772,5924,14944,-46,9,1
5401.828,297,312,304,306,784,5940,14904,-89,51,-48
5407.130999999999,297,313,305,307,784,5940,14904,-89,51,-48
5412.579,297,313,305,306,784,5940,14904,-89,51,-48
5420.921,297,313,304,306,784,5940,14904,-89,51,-48
5424.382,297,313,304,306,784,5940,14904,-89,51,-48
5424.382,298,314,305,306,784,5940,14904,-89,51,-48
5434.883,297,315,306,306,784,5940,14904,-89,51,-48
5439.2789999999995,297,315,305,306,784,5940,14904,-89,51,-48
5439.2789999999995,297,315,304,305,744,5916,14916,-8,25,15
5446.951999999999,298,315,305,306,744,5916,14916,-8,25,15
5457.375,298,316,305,305,744,5916,14916,-8,25,15
5457.375,299,316,305,305,744,5916,14916,-8,25,15
5464.1630000000005,299,316,306,306,744,5916,14916,-8,25,15
5468.742,299,317,306,306,744,5916,14916,-8,25,15
5476.247,300,317,306,306,744,5916,14916,-8,25,15
5479.307000000001,300,317,307,304,744,5916,14916,-8,25,15
5484.473,300,318,308,305,760,5852,15004,3,-33,22
5490.24,301,318,308,305,760,5852,15004,3,-33,22
5496.786,300,317,308,305,760,5852,15004,3,-33,22
5501.757,300,318,308,305,760,5852,15004,3,-33,22
5504.471,301,318,308,305,760,5852,15004,3,-33,22
5513.932,301,317,308,305,760,5852,15004,3,-33,22
5513.932,301,318,308,305,760,5852,15004,3,-33,22
5521.615,301,318,308,304,808,6012,14880,75,-30,-18
5524.356,301,317,308,305,808,6012,14880,75,-30,-18
5535.684,300,317,307,305,808,6012,14880,75,-30,-18
5535.684,301,317,307,304,808,6012,14880,75,-30,-18
5544.577,300,317,307,304,808,6012,14880,75,-30,-18
5547.144,302,316,307,304,808,6012,14880,75,-30,-18
5554.255,301,316,308,305,808,6012,14880,75,-30,-18
5557.41,301,316,308,304,808,6012,14880,75,-30,-18
5568.137,301,316,309,304,708,5984,14988,18,23,61
5570.163,301,316,310,305,708,5984,14988,18,23,61
5570.163,301,316,310,305,708,5984,14988,18,23,61
5580.669,301,316,309,304,708,5984,14988,18,23,61
5588.880999999999,301,316,309,304,708,5984,14988,18,23,61
5591.156,302,315,308,305,708,5984,14988,18,23,61
5594.254,301,315,308,304,708,5984,14988,18,23,61
5601.359,301,314,308,304,708,5984,14988,18,23,61
5601.359,302,314,307,304,796,5992,14880,-41,-45,-33
5612.614,301,314,306,304,796,5992,14880,-41,-45,-33
5612.614,301,313,306,304,796,5992,14880,-41,-45,-33
5623.929,301,312,305,304,796,5992,14880,-41,-45,-33
5623.929,301,312,305,304,796,5992,14880,-41,-45,-33
5632.564,302,312,305,305,796,5992,14880,-41,-45,-33
5638.099999999999,302,311,305,304,796,5992,14880,-41,-45,-33
5646.045,302,311,305,305,728,5988,14984,-94,72,29
5646.045,302,312,305,305,728,5988,14984,-94,72,29
5657.4,302,312,305,305,728,5988,14984,-94,72,29
5660.541,303,312,304,305,728,5988,14984,-94,72,29
5660.541,303,312,304,305,728,5988,14984,-94,72,29
5669.41,303,312,304,305,728,5988,14984,-94,72,29
5676.822999999999,303,311,303,305,728,5988,14984,-94,72,29
5679.593,304,311,302,305,796,6064,14824,104,-49,-24
5690.877,304,311,303,305,796,6064,14824,104,-49,-24
5690.877,304,311,303,304,796,6064,14824,104,-49,-24
5700.266,304,311,303,304,796,6064,14824,104,-49,-24
5703.402,304,310,302,304,796,6064,14824,104,-49,-24
5709.942,304,310,303,305,796,6064,14824,104,-49,-24
5712.9839999999995,305,309,302,304,796,6064,14824,104,-49,-24
5723.896,305,309,302,304,796,6064,14824,104,-49,-24
5725.448,306,308,302,304,788,6144,14892,-88,-27,-12
5725.448,306,308,302,305,788,6144,14892,-88,-27,-12
5735.9439999999995,305,307,301,304,788,6144,14892,-88,-27,-12
5742.478,305,307,300,303,788,6144,14892,-88,-27,-12
5746.616,305,306,302,304,788,6144,14892,-88,-27,-12
5756.768,306,306,302,304,788,6144,14892,-88,-27,-12
5758.357,306,305,301,303,788,6144,14892,-88,-27,-12
5758.357,305,304,301,303,796,5988,14900,-70,-40,-18
5769.415999999999,306,302,301,303,796,5988,14900,-70,-40,-18
5775.189,305,301,300,303,796,5988,14900,-70,-40,-18
5779.916,305,299,300,303,796,5988,14900,-70,-40,-18
5789.023,306,298,299,304,796,5988,14900,-70,-40,-18
5791.292,305,297,297,304,796,5988,14900,-70,-40,-18
5795.101,305,296,297,303,796,5988,14900,-70,-40,-18
5801.494,305,295,296,303,832,5988,14976,-219,59,-71
5808.496,305,295,296,304,832,5988,14976,-219,59,-71
5812.9439999999995,305,295,296,304,832,5988,14976,-219,59,-71
5821.933999999999,304,295,295,303,832,5988,14976,-219,59,-71
5824.581,304,296,295,304,832,5988,14976,-219,59,-71
5833.512,304,296,296,304,832,5988,14976,-219,59,-71
5835.835,304,296,295,305,832,5988,14976,-219,59,-71
5840.1230000000005,303,297,294,304,832,5988,14976,-219,59,-71
5846.182,304,297,295,305,676,6100,14920,6,57,-5
5855.915999999999,304,297,296,305,676,6100,14920,6,57,-5
5858.030000000001,304,297,295,305,676,6100,14920,6,57,-5
5858.030000000001,304,298,295,304,676,6100,14920,6,57,-5
5865.4349999999995,304,298,296,305,676,6100,14920,6,57,-5
5868.352,303,298,295,306,676,6100,14920,6,57,-5
5879.7480000000005,303,298,295,305,676,6100,14920,6,57,-5
5879.7480000000005,302,299,295,305,804,6012,14920,-25,-96,-22
5890.8060000000005,303,298,296,305,804,6012,14920,-25,-96,-22
5890.8060000000005,302,298,296,306,804,6012,14920,-25,-96,-22
5898.228999999999,302,298,296,305,804,6012,14920,-25,-96,-22
5901.7970000000005,301,299,295,305,804,6012,14920,-25,-96,-22
5912.937999999999,301,299,296,306,804,6012,14920,-25,-96,-22
5912.937999999999,300,300,296,306,804,6012,14920,-25,-96,-22
5923.9980000000005,300,300,296,306,804,6012,14920,-25,-96,-22
5926.263,301,300,298,306,680,6028,14928,37,40,16
5926.263,302,301,298,307,680,6028,14928,37,40,16
5936.369,302,301,299,306,680,6028,14928,37,40,16
5944.456,302,301,298,306,680,6028,14928,37,40,16
5946.804,301,302,299,306,680,6028,14928,37,40,16
5946.804,301,302,299,306,680,6028,14928,37,40,16
5957.464,302,303,299,305,680,6028,14928,37,40,16
5959.308,302,303,300,305,796,6052,14928,-68,-10,-47
5968.2570000000005,303,304,300,306,796,6052,14928,-68,-10,-47
5972.17,303,305,300,306,796,6052,14928,-68,-10,-47
5979.523999999999,302,305,299,305,796,6052,14928,-68,-10,-47
5984.153,303,305,300,305,796,6052,14928,-68,-10,-47
5990.412,303,306,300,305,796,6052,14928,-68,-10,-47
5992.046,302,307,302,305,796,6052,14928,-68,-10,-47
6002.262,303,306,302,304,796,6052,14928,-68,-10,-47
6002.262,303,308,302,305,732,5892,14996,-154,61,10
6013.231,303,308,303,306,732,5892,14996,-154,61,10
6013.231,305,309,302,305,732,5892,14996,-154,61,10
6022.554999999999,304,308,302,305,732,5892,14996,-154,61,10
6024.053999999999,305,309,302,305,732,5892,14996,-154,61,10
6035.052000000001,306,309,301,305,732,5892,14996,-154,61,10
6035.052000000001,305,309,300,304,732,5892,14996,-154,61,10
6046.168,304,309,300,304,784,6028,14892,27,-54,-55
6048.817,305,309,300,304,784,6028,14892,27,-54,-55
6056.816000000001,306,308,299,304,784,6028,14892,27,-54,-55
6058.37,306,308,298,304,784,6028,14892,27,-54,-55
6065.629000000001,305,308,299,304,784,6028,14892,27,-54,-55
6068.679,306,308,300,304,784,6028,14892,27,-54,-55
6079.706,306,309,300,304,784,6028,14892,27,-54,-55
6079.706,305,308,300,304,784,6028,14892,27,-54,-55
6087.1269999999995,306,309,300,304,756,5992,14948,-86,49,16
6090.781,306,308,300,304,756,5992,14948,-86,49,16
6094.768,306,308,299,304,756,5992,14948,-86,49,16
6102.481,305,308,299,304,756,5992,14948,-86,49,16
6102.481,306,309,300,304,756,5992,14948,-86,49,16
6113.009,306,309,299,305,756,5992,14948,-86,49,16
6119.3369999999995,306,310,299,303,756,5992,14948,-86,49,16
6124.084,305,310,299,304,768,6008,14860,19,-19,-31
6124.084,305,311,299,305,768,6008,14860,19,-19,-31
6137.8589999999995,305,311,299,304,768,6008,14860,19,-19,-31
6139.478999999999,304,311,300,304,768,6008,14860,19,-19,-31
6146.0419999999995,305,311,301,304,768,6008,14860,19,-19,-31
6146.0419999999995,304,311,300,305,768,6008,14860,19,-19,-31
6157.205,304,311,301,304,768,6008,14860,19,-19,-31
6157.205,305,311,302,304,768,6008,14860,19,-19,-31
6169.099,304,311,303,304,732,6020,14948,-83,31,29
6169.099,304,311,304,305,732,6020,14948,-83,31,29
6179.289,304,311,304,304,732,6020,14948,-83,31,29
6179.289,304,311,304,304,732,6020,14948,-83,31,29
6190.654,305,311,304,305,732,6020,14948,-83,31,29
6190.654,305,311,304,305,732,6020,14948,-83,31,29
6197.58,305,311,305,304,732,6020,14948,-83,31,29
6201.936,305,311,305,304,784,6068,14876,34,-67,-33
6209.424,305,311,306,305,784,6068,14876,34,-67,-33
6213.485000000001,305,311,305,305,784,6068,14876,34,-67,-33
6223.822,305,310,305,304,784,6068,14876,34,-67,-33
6227.837,304,309,305,304,784,6068,14876,34,-67,-33
6233.030000000001,305,309,304,304,784,6068,14876,34,-67,-33
6239.906,305,308,305,304,784,6068,14876,34,-67,-33
6244.12,305,307,305,304,784,6068,14876,34,-67,-33
6246.485,305,306,304,304,748,5852,14972,-164,-22,-14
6250.718,305,305,304,305,748,5852,14972,-164,-22,-14
6258.0070000000005,305,305,304,304,748,5852,14972,-164,-22,-14
6258.0070000000005,305,304,304,304,748,5852,14972,-164,-22,-14
6272.964,305,304,304,304,748,5852,14972,-164,-22,-14
6274.892000000001,306,303,304,304,748,5852,14972,-164,-22,-14
6279.638,306,302,303,303,748,5852,14972,-164,-22,-14
6287.0,306,302,303,304,784,6100,14884,95,-5,-18
6290.687,305,302,303,304,784,6100,14884,95,-5,-18
6295.661,305,302,302,303,784,6100,14884,95,-5,-18
6301.4929999999995,304,302,302,303,784,6100,14884,95,-5,-18
6308.46,305,301,301,303,784,6100,14884,95,-5,-18
6312.769,305,301,302,304,784,6100,14884,95,-5,-18
6315.488,305,300,300,303,784,6100,14884,95,-5,-18
6325.142,305,300,300,303,804,5920,14900,-163,-10,-29
6325.142,305,300,299,304,804,5920,14900,-163,-10,-29
6335.167,304,299,299,304,804,5920,14900,-163,-10,-29
6340.8730000000005,304,300,299,303,804,5920,14900,-163,-10,-29
6345.762,304,299,300,304,804,5920,14900,-163,-10,-29
6345.762,304,299,299,305,804,5920,14900,-163,-10,-29
6357.921,304,299,299,304,804,5920,14900,-163,-10,-29
6366.416,304,299,299,304,804,5920,14900,-163,-10,-29
6368.697,305,298,299,305,812,6120,14852,172,12,-46
6368.697,305,298,298,304,812,6120,14852,172,12,-46
6379.07,303,298,298,304,812,6120,14852,172,12,-46
6381.278,303,299,298,304,812,6120,14852,172,12,-46
6390.671,303,298,299,304,812,6120,14852,172,12,-46
6390.671,303,299,298,304,812,6120,14852,172,12,-46
6402.146,303,299,298,304,812,6120,14852,172,12,-46
6402.146,303,299,298,304,784,5952,14840,-209,17,-83
6410.263,304,299,300,305,784,5952,14840,-209,17,-83
6413.044,302,300,300,304,784,5952,14840,-209,17,-83
6424.1,301,300,301,304,784,5952,14840,-209,17,-83
6424.1,302,301,301,305,784,5952,14840,-209,17,-83
6435.218,301,301,303,305,784,5952,14840,-209,17,-83
6438.393999999999,301,301,304,304,784,5952,14840,-209,17,-83
6438.393999999999,301,302,306,305,760,5932,14900,-49,103,-41
6447.322,302,302,308,305,760,5932,14900,-49,103,-41
6457.543000000001,301,303,308,305,760,5932,14900,-49,103,-41
6465.696999999999,301,303,309,305,760,5932,14900,-49,103,-41
6468.241,300,303,311,305,760,5932,14900,-49,103,-41
6468.241,299,303,312,305,760,5932,14900,-49,103,-41
6480.162,299,303,314,305,760,5932,14900,-49,103,-41
6480.162,299,303,316,305,760,5932,14900,-49,103,-41
6488.706999999999,300,303,318,305,688,5900,14992,-17,10,-29
6490.892,300,303,319,305,688,5900,14992,-17,10,-29
6501.853999999999,299,303,321,305,688,5900,14992,-17,10,-29
6501.853999999999,299,304,323,304,688,5900,14992,-17,10,-29
6510.9310000000005,300,304,326,305,688,5900,14992,-17,10,-29
6518.9349999999995,300,305,328,305,688,5900,14992,-17,10,-29
6523.2080000000005,299,304,330,305,688,5900,14992,-17,10,-29
6525.663,300,305,331,305,784,6164,14892,133,-4,4
6533.045999999999,300,304,334,305,784,6164,14892,133,-4,4
6535.4929999999995,301,304,334,304,784,6164,14892,133,-4,4
6540.93,300,303,334,304,784,6164,14892,133,-4,4
6545.861999999999,300,304,335,305,784,6164,14892,133,-4,4
6555.704000000001,300,304,337,305,784,6164,14892,133,-4,4
6557.876,300,304,338,305,784,6164,14892,133,-4,4
6560.901999999999,300,304,338,304,784,6164,14892,133,-4,4
6568.011,301,305,339,304,636,5876,15036,30,-10,48
6568.011,302,304,338,305,636,5876,15036,30,-10,48
6579.409,301,303,337,304,636,5876,15036,30,-10,48
6579.409,301,303,336,304,636,5876,15036,30,-10,48
6590.771,302,303,336,304,636,5876,15036,30,-10,48
6594.088,301,302,334,305,636,5876,15036,30,-10,48
6594.088,302,302,333,304,636,5876,15036,30,-10,48
6602.438,302,303,333,304,784,6112,14948,117,-153,40
6613.113,302,302,331,304,784,6112,14948,117,-153,40
6613.113,303,301,330,304,784,6112,14948,117,-153,40
6623.764,303,301,329,304,784,6112,14948,117,-153,40
6623.764,303,300,327,304,784,6112,14948,117,-153,40
6631.1720000000005,303,300,325,304,784,6112,14948,117,-153,40
6638.102,303,300,323,304,784,6112,14948,117,-153,40
6643.33,303,299,321,304,784,6112,14948,117,-153,40
6646.275000000001,303,299,319,304,796,6192,14864,147,16,0
6651.7390000000005,303,300,317,304,796,6192,14864,147,16,0
6657.001,304,299,316,304,796,6192,14864,147,16,0
6663.958,303,299,315,304,796,6192,14864,147,16,0
6668.913,304,299,313,304,796,6192,14864,147,16,0
6671.697,304,300,311,304,796,6192,14864,147,16,0
6680.41,303,301,310,304,796,6192,14864,147,16,0
6680.41,304,300,309,304,812,6068,14840,-65,-48,-5
6690.861,303,301,309,305,812,6068,14840,-65,-48,-5
6698.964,303,302,308,304,812,6068,14840,-65,-48,-5
6701.871999999999,304,302,307,304,812,6068,14840,-65,-48,-5
6701.871999999999,303,302,305,304,812,6068,14840,-65,-48,-5
6713.539,303,303,305,305,812,6068,14840,-65,-48,-5
6713.539,303,302,304,304,812,6068,14840,-65,-48,-5
6723.764,303,303,302,304,812,6068,14840,-65,-48,-5
6724.146,303,303,301,305,800,5984,14912,-107,-19,-11
6735.143,302,303,300,306,800,5984,14912,-107,-19,-11
6735.143,302,302,298,305,800,5984,14912,-107,-19,-11
6746.546,303,302,297,305,800,5984,14912,-107,-19,-11
6750.02,303,302,295,305,800,5984,14912,-107,-19,-11
6758.638,303,302,295,305,800,5984,14912,-107,-19,-11
6758.638,303,302,294,304,800,5984,14912,-107,-19,-11
6768.773,302,302,293,305,728,5996,15000,-67,45,-9
6768.773,303,302,292,305,728,5996,15000,-67,45,-9
6779.917,302,303,292,304,728,5996,15000,-67,45,-9
6779.917,302,303,290,304,728,5996,15000,-67,45,-9
6787.689,303,302,290,305,728,5996,15000,-67,45,-9
6793.289,303,303,289,305,728,5996,15000,-67,45,-9
6801.525,304,302,288,305,728,5996,15000,-67,45,-9
6801.898999999999,303,303,288,304,728,5996,15000,-67,45,-9
6812.85,303,304,287,305,800,6068,14868,-27,-12,-16
6815.6990000000005,302,304,287,304,800,6068,14868,-27,-12,-16
6823.344999999999,302,304,285,304,800,6068,14868,-27,-12,-16
6825.801,302,304,284,304,800,6068,14868,-27,-12,-16
6831.892,302,304,285,304,800,6068,14868,-27,-12,-16
6835.345,302,305,285,304,800,6068,14868,-27,-12,-16
6846.577,303,305,285,303,800,6068,14868,-27,-12,-16
6847.647,302,305,284,304,736,6020,14900,-74,36,-5
6847.647,302,306,284,304,736,6020,14900,-74,36,-5
6858.482,301,305,283,303,736,6020,14900,-74,36,-5
6866.691000000001,302,306,283,303,736,6020,14900,-74,36,-5
6868.976,301,305,283,304,736,6020,14900,-74,36,-5
6874.339,302,305,282,304,736,6020,14900,-74,36,-5
6879.571999999999,302,305,282,304,736,6020,14900,-74,36,-5
6884.462,302,305,283,303,744,5976,14900,5,-10,-22
6890.52,302,305,284,304,744,5976,14900,5,-10,-22
6890.52,302,306,284,304,744,5976,14900,5,-10,-22
6901.751,301,306,283,303,744,5976,14900,5,-10,-22
6901.751,302,305,284,303,744,5976,14900,5,-10,-22
6910.531,302,305,284,304,744,5976,14900,5,-10,-22
6913.085,303,305,285,303,744,5976,14900,5,-10,-22
6923.983,303,305,284,302,744,5976,14900,5,-10,-22
6925.995999999999,303,305,284,303,728,6084,14908,-1,-7,38
6932.616,303,305,284,303,728,6084,14908,-1,-7,38
6940.8859999999995,302,305,284,303,728,6084,14908,-1,-7,38
6944.505999999999,302,305,284,302,728,6084,14908,-1,-7,38
6948.852,303,305,284,303,728,6084,14908,-1,-7,38
6953.325000000001,303,305,284,303,728,6084,14908,-1,-7,38
6957.638,304,304,285,303,728,6084,14908,-1,-7,38
6962.476,303,304,285,303,728,6084,14908,-1,-7,38
6968.271,303,305,286,303,772,5880,14920,-39,-24,38
6968.271,304,304,286,304,772,5880,14920,-39,-24,38
6980.359,303,304,287,303,772,5880,14920,-39,-24,38
6980.359,303,304,287,303,772,5880,14920,-39,-24,38
6990.646,303,304,288,304,772,5880,14920,-39,-24,38
6990.646,302,305,288,304,772,5880,14920,-39,-24,38
7000.915,302,304,288,303,772,5880,14920,-39,-24,38
7003.432,302,304,288,304,820,6240,14852,206,24,47
7013.874000000001,301,304,289,304,820,6240,14852,206,24,47
7013.874000000001,302,304,288,304,820,6240,14852,206,24,47
7022.171,301,305,288,304,820,6240,14852,206,24,47
7026.008,301,305,289,304,820,6240,14852,206,24,47
7035.16,302,304,289,305,820,6240,14852,206,24,47
7035.16,301,304,288,304,820,6240,14852,206,24,47
7040.933,301,304,287,304,820,6240,14852,206,24,47
7045.803,301,304,289,305,820,5956,14832,61,-96,49
7053.3910000000005,302,304,290,305,820,5956,14832,61,-96,49
7057.226,301,305,290,305,820,5956,14832,61,-96,49
7061.387,301,305,290,305,820,5956,14832,61,-96,49
7068.371,301,305,290,305,820,5956,14832,61,-96,49
7074.35,301,305,290,306,820,5956,14832,61,-96,49
7079.4259999999995,301,306,290,305,820,5956,14832,61,-96,49
7081.64,301,305,291,305,820,5956,14832,61,-96,49
7092.139,301,305,291,305,768,6172,14936,222,17,-40
7092.139,302,305,291,305,768,6172,14936,222,17,-40
7102.412,302,305,290,305,768,6172,14936,222,17,-40
7102.412,301,306,291,305,768,6172,14936,222,17,-40
7112.609,301,306,291,306,768,6172,14936,222,17,-40
7121.148,301,306,291,305,768,6172,14936,222,17,-40
7123.956,301,307,292,305,768,6172,14936,222,17,-40
7126.228,301,307,292,305,864,6008,14940,-46,126,-27
7134.249,301,307,291,305,864,6008,14940,-46,126,-27
7139.203,301,309,292,304,864,6008,14940,-46,126,-27
7139.203,300,309,293,304,864,6008,14940,-46,126,-27
7146.793,299,310,294,304,864,6008,14940,-46,126,-27
7157.709,299,310,294,304,864,6008,14940,-46,126,-27
7157.709,298,312,294,303,864,6008,14940,-46,126,-27
7168.609,298,313,295,304,820,5960,14804,136,132,59
7171.027999999999,298,315,297,304,820,5960,14804,136,132,59
7179.044,297,316,298,303,820,5960,14804,136,132,59
7180.152999999999,296,318,297,303,820,5960,14804,136,132,59
7190.67,296,319,298,303,820,5960,14804,136,132,59
7190.67,298,320,298,303,820,5960,14804,136,132,59
7197.744000000001,300,322,298,303,820,5960,14804,136,132,59
7201.602,302,324,298,303,820,5960,14804,136,132,59
7208.910000000001,305,327,298,303,720,6304,15020,279,244,39
7213.392,308,329,299,304,720,6304,15020,279,244,39
7216.839,310,331,299,304,720,6304,15020,279,244,39
7225.9710000000005,311,333,299,304,720,6304,15020,279,244,39
7225.9710000000005,313,334,299,305,720,6304,15020,279,244,39
7235.344,313,337,299,304,720,6304,15020,279,244,39
7242.2789999999995,313,338,299,304,720,6304,15020,279,244,39
7246.949,312,339,300,306,680,5956,15084,-459,660,-167
7255.831,311,339,301,306,680,5956,15084,-459,660,-167
7258.095,309,339,302,306,680,5956,15084,-459,660,-167
7268.4439999999995,306,338,302,306,680,5956,15084,-459,660,-167
7268.4439999999995,303,337,301,306,680,5956,15084,-459,660,-167
7279.5779999999995,300,333,297,306,680,5956,15084,-459,660,-167
7282.053,296,326,291,305,680,5956,15084,-459,660,-167
7290.085999999999,293,321,287,306,860,6108,14952,-838,681,-367
7291.884,290,312,281,305,860,6108,14952,-838,681,-367
7299.012000000001,287,306,276,304,860,6108,14952,-838,681,-367
7305.199,285,298,272,304,860,6108,14952,-838,681,-367
7312.845,282,292,268,304,860,6108,14952,-838,681,-367
7315.134,280,285,265,304,860,6108,14952,-838,681,-367
7324.6140000000005,277,277,262,302,860,6108,14952,-838,681,-367
7326.128,276,270,260,303,636,6644,14616,-827,722,-287
7337.837,275,264,258,303,636,6644,14616,-827,722,-287
7342.082,274,259,257,303,636,6644,14616,-827,722,-287
7346.669999999999,274,253,256,303,636,6644,14616,-827,722,-287
7354.127,274,248,256,304,636,6644,14616,-827,722,-287
7357.478999999999,273,244,256,304,636,6644,14616,-827,722,-287
7366.599,272,241,257,305,636,6644,14616,-827,722,-287
7368.566000000001,271,238,257,305,404,5684,15228,-1192,738,-424
7372.532999999999,270,235,258,306,404,5684,15228,-1192,738,-424
7379.098,268,233,260,306,404,5684,15228,-1192,738,-424
7384.556,266,233,262,307,404,5684,15228,-1192,738,-424
7390.224,265,234,265,308,404,5684,15228,-1192,738,-424
7397.482,262,236,268,307,404,5684,15228,-1192,738,-424
7402.072,259,238,271,308,404,5684,15228,-1192,738,-424
7409.476,255,240,276,309,408,5708,15424,316,689,-81
7413.14,250,241,280,309,408,5708,15424,316,689,-81
7424.23,246,242,283,308,408,5708,15424,316,689,-81
7426.35,240,242,288,307,408,5708,15424,316,689,-81
7426.35,236,243,293,306,408,5708,15424,316,689,-81
7436.244000000001,234,247,298,304,408,5708,15424,316,689,-81
7442.227,233,252,302,301,408,5708,15424,316,689,-81
7446.495,233,260,307,299,944,5860,17484,-105,1243,-1293
7454.586,236,267,311,297,944,5860,17484,-105,1243,-1293
7457.539,239,271,315,294,944,5860,17484,-105,1243,-1293
7469.4130000000005,243,273,320,291,944,5860,17484,-105,1243,-1293
7469.4130000000005,247,274,323,289,944,5860,17484,-105,1243,-1293
7479.961,251,275,324,286,944,5860,17484,-105,1243,-1293
7483.028,256,276,326,282,944,5860,17484,-105,1243,-1293
7490.459000000001,262,276,328,280,308,7248,18928,333,4712,-805
7494.825,266,276,330,280,308,7248,18928,333,4712,-805
7501.582,270,277,331,279,308,7248,18928,333,4712,-805
7507.8820000000005,275,280,332,279,308,7248,18928,333,4712,-805
7513.935,282,282,333,278,308,7248,18928,333,4712,-805
7522.213,287,283,331,277,308,7248,18928,333,4712,-805
7526.55,293,283,325,276,308,7248,18928,333,4712,-805
7534.555,302,282,317,277,272,6024,23360,908,8693,-2000
7535.831,313,282,305,275,272,6024,23360,908,8693,-2000
7539.952,329,284,295,274,272,6024,23360,908,8693,-2000
7546.066,341,289,289,275,272,6024,23360,908,8693,-2000
7553.353999999999,352,293,284,274,272,6024,23360,908,8693,-2000
7557.325,361,301,273,273,272,6024,23360,908,8693,-2000
7565.315,365,314,260,271,272,6024,23360,908,8693,-2000
7568.526000000001,367,331,244,268,-44,10264,20632,7251,13930,-5109
7579.496,367,357,208,263,-44,10264,20632,7251,13930,-5109
7588.023,367,375,175,259,-44,10264,20632,7251,13930,-5109
7591.843,366,395,137,256,-44,10264,20632,7251,13930,-5109
7600.374000000001,361,409,117,252,-44,10264,20632,7251,13930,-5109
7603.693,353,430,109,249,-44,10264,20632,7251,13930,-5109
7612.73,345,434,101,249,204,10436,17036,6501,16393,-7666
7615.011,332,394,87,243,204,10436,17036,6501,16393,-7666
7624.072,322,370,72,237,204,10436,17036,6501,16393,-7666
7626.585999999999,311,356,51,232,204,10436,17036,6501,16393,-7666
7633.224,302,354,31,229,204,10436,17036,6501,16393,-7666
7638.854,295,362,11,226,204,10436,17036,6501,16393,-7666
7646.5,291,381,0,224,204,10436,17036,6501,16393,-7666
7650.598,286,409,0,224,-2260,9872,15592,5521,19338,-10526
7657.363,285,423,0,225,-2260,9872,15592,5521,19338,-10526
7668.580000000001,282,424,0,229,-2260,9872,15592,5521,19338,-10526
7671.577,280,416,0,233,-2260,9872,15592,5521,19338,-10526
7680.202,278,401,12,236,-2260,9872,15592,5521,19338,-10526
7680.202,276,381,42,241,-2260,9872,15592,5521,19338,-10526
7690.876,279,363,73,248,-3268,8288,12304,3895,18936,-12630
7696.733,284,340,108,256,-3268,8288,12304,3895,18936,-12630
7701.46,290,317,135,263,-3268,8288,12304,3895,18936,-12630
7713.269,297,298,158,272,-3268,8288,12304,3895,18936,-12630
7716.657999999999,305,281,182,280,-3268,8288,12304,3895,18936,-12630
7726.73,312,259,199,290,-3268,8288,12304,3895,18936,-12630
7726.73,323,224,216,310,-4900,7420,10688,2813,19093,-14154
7735.384,337,187,230,335,-4900,7420,10688,2813,19093,-14154
7744.284000000001,351,159,240,358,-4900,7420,10688,2813,19093,-14154
7745.684,364,134,247,383,-4900,7420,10688,2813,19093,-14154
7757.631,376,106,250,412,-4900,7420,10688,2813,19093,-14154
7762.086,385,82,248,432,-4900,7420,10688,2813,19093,-14154
7768.539,392,60,240,457,-6864,4848,9472,577,17634,-12938
7773.452,396,47,233,480,-6864,4848,9472,577,17634,-12938
7779.388,401,40,225,501,-6864,4848,9472,577,17634,-12938
7786.557,408,38,218,525,-6864,4848,9472,577,17634,-12938
7790.679,409,39,211,548,-6864,4848,9472,577,17634,-12938
7798.662,401,41,204,567,-6864,4848,9472,577,17634,-12938
7801.941,385,43,196,590,-6864,4848,9472,577,17634,-12938
7813.21,369,46,189,611,-8020,5212,8940,1077,17648,-13024
7816.348,354,50,185,635,-8020,5212,8940,1077,17648,-13024
7823.846,345,56,186,650,-8020,5212,8940,1077,17648,-13024
7826.861,329,58,186,665,-8020,5212,8940,1077,17648,-13024
7836.158,308,56,186,681,-8020,5212,8940,1077,17648,-13024
7844.169,288,60,181,694,-8020,5212,8940,1077,17648,-13024
7847.092,273,66,174,706,-9116,4356,7900,1053,16583,-13445
7857.552,261,77,160,717,-9116,4356,7900,1053,16583,-13445
7859.81,256,92,146,723,-9116,4356,7900,1053,16583,-13445
7869.086,252,111,134,726,-9116,4356,7900,1053,16583,-13445
7878.281999999999,252,128,125,726,-9116,4356,7900,1053,16583,-13445
7880.828,252,145,116,722,-9116,4356,7900,1053,16583,-13445
7890.705,250,158,107,717,-9116,4356,7900,1053,16583,-13445
7890.705,245,174,90,706,-11036,1064,4884,-1006,15980,-11670
7901.6320000000005,229,193,67,691,-11036,1064,4884,-1006,15980,-11670
7905.085,218,202,56,680,-11036,1064,4884,-1006,15980,-11670
7913.069,204,221,46,663,-11036,1064,4884,-1006,15980,-11670
7923.479,190,240,43,647,-11036,1064,4884,-1006,15980,-11670
7927.007,177,264,47,629,-11036,1064,4884,-1006,15980,-11670
7934.9439999999995,166,282,54,613,-12296,-208,3568,-1060,13387,-9944
7934.9439999999995,153,300,65,595,-12296,-208,3568,-1060,13387,-9944
7946.772,141,309,76,580,-12296,-208,3568,-1060,13387,-9944
7955.355,130,319,91,562,-12296,-208,3568,-1060,13387,-9944
7958.125,119,329,105,544,-12296,-208,3568,-1060,13387,-9944
7968.411,109,339,120,525,-12296,-208,3568,-1060,13387,-9944
7968.411,99,351,137,502,-14208,-940,2992,-859,11394,-8556
7980.096,88,365,153,478,-14208,-940,2992,-859,11394,-8556
7982.31,82,377,165,460,-14208,-940,2992,-859,11394,-8556
7991.535,74,395,181,434,-14208,-940,2992,-859,11394,-8556
7991.535,69,408,195,412,-14208,-940,2992,-859,11394,-8556
8001.946,66,418,210,388,-14208,-940,2992,-859,11394,-8556
8007.486,66,425,222,364,-15684,-1352,2364,-351,9027,-6274
8012.459,69,429,236,338,-15684,-1352,2364,-351,9027,-6274
8020.3279999999995,74,432,249,315,-15684,-1352,2364,-351,9027,-6274
8027.255999999999,83,427,260,294,-15684,-1352,2364,-351,9027,-6274
8035.183,91,419,271,272,-15684,-1352,2364,-351,9027,-6274
8040.507,104,407,284,248,-15684,-1352,2364,-351,9027,-6274
8045.503999999999,115,399,296,230,-15684,-1352,2364,-351,9027,-6274
8052.771999999999,129,390,308,213,-15752,-16,1540,1706,6345,-3796
8057.299999999999,145,377,321,192,-15752,-16,1540,1706,6345,-3796
8064.849999999999,156,357,330,174,-15752,-16,1540,1706,6345,-3796
8069.215,168,343,341,159,-15752,-16,1540,1706,6345,-3796
8077.652999999999,183,333,353,145,-15752,-16,1540,1706,6345,-3796
8079.955999999999,196,320,364,132,-15752,-16,1540,1706,6345,-3796
8090.48,206,305,374,118,-16132,-700,308,-261,4824,-2698
8099.891,215,276,383,102,-16132,-700,308,-261,4824,-2698
8102.128000000001,225,268,389,93,-16132,-700,308,-261,4824,-2698
8105.124999999999,237,258,401,86,-16132,-700,308,-261,4824,-2698
8113.016,248,250,410,78,-16132,-700,308,-261,4824,-2698
8118.8369999999995,260,250,419,71,-16132,-700,308,-261,4824,-2698
8127.606,271,250,430,65,-16132,-700,308,-261,4824,-2698
8129.92,285,258,440,59,-16292,964,3068,-961,3677,-2743
8138.707,299,262,446,56,-16292,964,3068,-961,3677,-2743
8138.707,311,274,454,54,-16292,964,3068,-961,3677,-2743
8146.240000000001,323,278,459,51,-16292,964,3068,-961,3677,-2743
8157.458999999999,331,272,468,50,-16292,964,3068,-961,3677,-2743
8165.736000000001,339,275,475,49,-16292,964,3068,-961,3677,-2743
8168.286,350,277,483,49,-16292,964,3068,-961,3677,-2743
8177.196999999999,358,281,489,50,-15408,2456,0,479,5713,-3576
8179.708,368,289,495,49,-15408,2456,0,479,5713,-3576
8183.697,374,295,498,50,-15408,2456,0,479,5713,-3576
8190.647999999999,380,297,501,53,-15408,2456,0,479,5713,-3576
8195.794,384,297,506,53,-15408,2456,0,479,5713,-3576
8201.451000000001,388,297,508,53,-15408,2456,0,479,5713,-3576
8203.935,389,298,509,54,-15408,2456,0,479,5713,-3576
8213.478000000001,393,301,510,56,-16412,4668,2796,4894,7406,-3946
8222.324,397,304,512,54,-16412,4668,2796,4894,7406,-3946
8224.229,397,297,515,53,-16412,4668,2796,4894,7406,-3946
8229.315,396,295,516,55,-16412,4668,2796,4894,7406,-3946
8235.356,399,301,518,53,-16412,4668,2796,4894,7406,-3946
8246.087,401,299,514,52,-16412,4668,2796,4894,7406,-3946
8248.699999999999,404,300,514,60,-17244,1188,2144,-3918,4054,-1577
8258.466999999999,405,297,510,62,-17244,1188,2144,-3918,4054,-1577
8258.466999999999,406,296,507,67,-17244,1188,2144,-3918,4054,-1577
8268.477,406,292,505,73,-17244,1188,2144,-3918,4054,-1577
8278.756,401,282,502,77,-17244,1188,2144,-3918,4054,-1577
8281.074,399,280,500,80,-17244,1188,2144,-3918,4054,-1577
8290.829,399,281,496,85,-17244,1188,2144,-3918,4054,-1577
8293.62,395,279,493,90,-16468,-1348,2008,-6195,1223,483
8302.296999999999,395,284,489,96,-16468,-1348,2008,-6195,1223,483
8302.296999999999,396,289,487,100,-16468,-1348,2008,-6195,1223,483
8313.16,396,290,484,107,-16468,-1348,2008,-6195,1223,483
8319.164,395,303,480,110,-16468,-1348,2008,-6195,1223,483
8329.26,393,372,478,115,-16468,-1348,2008,-6195,1223,483
8333.634999999998,391,425,476,118,-16460,-436,1340,-2577,-149,552
8336.558,388,455,473,123,-16460,-436,1340,-2577,-149,552
8344.95,385,469,469,128,-16460,-436,1340,-2577,-149,552
8347.05,380,474,466,134,-16460,-436,1340,-2577,-149,552
8357.428,383,468,461,140,-16460,-436,1340,-2577,-149,552
8365.608,396,467,455,142,-16460,-436,1340,-2577,-149,552
8368.460000000001,409,469,451,148,-16460,-436,1340,-2577,-149,552
8377.689999999999,418,476,448,152,-16160,244,2000,3084,177,60
8380.439,423,484,443,156,-16160,244,2000,3084,177,60
8383.435000000001,422,486,441,159,-16160,244,2000,3084,177,60
8391.599,422,484,438,162,-16160,244,2000,3084,177,60
8391.599,422,482,435,165,-16160,244,2000,3084,177,60
8402.223,421,478,432,167,-16160,244,2000,3084,177,60
8410.964999999998,421,476,429,170,-16160,244,2000,3084,177,60
8413.045,418,471,426,171,-16368,268,1076,2932,-342,-704
8422.074,416,464,422,176,-16368,268,1076,2932,-342,-704
8427.168,414,457,421,179,-16368,268,1076,2932,-342,-704
8435.408000000001,411,444,419,181,-16368,268,1076,2932,-342,-704
8435.408000000001,408,438,416,185,-16368,268,1076,2932,-342,-704
8447.011,406,428,412,186,-16368,268,1076,2932,-342,-704
8447.011,406,422,409,191,-16600,-240,1160,-19,-166,-251
8457.979,406,414,406,195,-16600,-240,1160,-19,-166,-251
8457.979,403,405,404,199,-16600,-240,1160,-19,-166,-251
8468.488000000001,400,390,400,201,-16600,-240,1160,-19,-166,-251
8476.57,393,379,397,206,-16600,-240,1160,-19,-166,-251
8478.913999999999,392,372,395,210,-16600,-240,1160,-19,-166,-251
8482.172999999999,390,365,392,214,-16600,-240,1160,-19,-166,-251
8491.058,387,362,390,218,-16680,-980,924,-2522,-519,123
8499.981,381,356,389,216,-16680,-980,924,-2522,-519,123
8502.264000000001,375,354,386,220,-16680,-980,924,-2522,-519,123
8512.883,369,352,385,224,-16680,-980,924,-2522,-519,123
8512.883,364,348,383,228,-16680,-980,924,-2522,-519,123
8524.330000000002,359,347,382,230,-16680,-980,924,-2522,-519,123
8528.715999999999,354,342,382,233,-16680,-980,924,-2522,-519,123
8534.95,352,342,383,235,-16648,-8,2148,-1749,-1217,494
8539.267,348,340,382,238,-16648,-8,2148,-1749,-1217,494
8550.012,348,338,381,242,-16648,-8,2148,-1749,-1217,494
8550.012,345,336,380,243,-16648,-8,2148,-1749,-1217,494
8558.24,341,337,379,246,-16648,-8,2148,-1749,-1217,494
8564.435,334,335,378,249,-16648,-8,2148,-1749,-1217,494
8568.809,330,334,379,252,-16344,-208,3076,717,-1312,814
8579.228000000001,324,331,378,253,-16344,-208,3076,717,-1312,814
8579.646,323,330,377,257,-16344,-208,3076,717,-1312,814
8590.813,320,326,377,260,-16344,-208,3076,717,-1312,814
8590.813,317,318,376,261,-16344,-208,3076,717,-1312,814
8601.682999999999,314,314,375,261,-16344,-208,3076,717,-1312,814
8605.43,311,310,375,264,-16344,-208,3076,717,-1312,814
8613.953,311,305,375,265,-16332,540,2888,2624,-534,285
8613.953,309,299,374,267,-16332,540,2888,2624,-534,285
8624.248,309,300,374,270,-16332,540,2888,2624,-534,285
8631.005,308,299,374,271,-16332,540,2888,2624,-534,285
8631.005,307,295,373,272,-16332,540,2888,2624,-534,285
8638.275,305,288,372,272,-16332,540,2888,2624,-534,285
8647.035,305,284,371,273,-16332,540,2888,2624,-534,285
8655.512,306,281,371,276,-16296,84,3508,610,254,-392
8657.643,307,279,370,277,-16296,84,3508,610,254,-392
8668.367999999999,305,277,368,278,-16296,84,3508,610,254,-392
8668.367999999999,306,280,368,279,-16296,84,3508,610,254,-392
8675.542,307,284,366,279,-16296,84,3508,610,254,-392
8679.499,306,287,365,280,-16296,84,3508,610,254,-392
8687.735,306,291,365,277,-16296,84,3508,610,254,-392
8690.673,306,298,364,280,-16380,184,2276,-1087,710,-200
8701.392,307,304,361,282,-16380,184,2276,-1087,710,-200
8703.592,308,306,361,283,-16380,184,2276,-1087,710,-200
8713.718,308,312,360,284,-16380,184,2276,-1087,710,-200
8713.718,309,315,358,284,-16380,184,2276,-1087,710,-200
8724.366,310,321,357,285,-16380,184,2276,-1087,710,-200
8728.817,311,324,357,287,-16380,184,2276,-1087,710,-200
8734.491,310,326,355,288,-16360,-176,1596,-1557,683,-155
8741.489,309,326,353,289,-16360,-176,1596,-1557,683,-155
8746.289,310,327,352,288,-16360,-176,1596,-1557,683,-155
8752.393,309,326,352,290,-16360,-176,1596,-1557,683,-155
8757.917000000001,310,324,350,290,-16360,-176,1596,-1557,683,-155
8765.523,311,320,350,291,-16360,-176,1596,-1557,683,-155
8768.63,312,317,349,293,-16512,-52,2084,-160,178,-236
8779.806,310,313,347,293,-16512,-52,2084,-160,178,-236
8788.692,311,311,346,294,-16512,-52,2084,-160,178,-236
8790.657,312,311,346,294,-16512,-52,2084,-160,178,-236
8790.657,314,309,346,296,-16512,-52,2084,-160,178,-236
8801.838,314,306,346,295,-16512,-52,2084,-160,178,-236
8806.543,313,305,344,298,-16512,-52,2084,-160,178,-236
8812.738,313,302,344,300,-16488,-200,2308,1143,77,-343
8817.867,312,301,342,301,-16488,-200,2308,1143,77,-343
8829.01,314,303,342,300,-16488,-200,2308,1143,77,-343
8829.01,313,302,341,302,-16488,-200,2308,1143,77,-343
8834.861,313,304,341,302,-16488,-200,2308,1143,77,-343
8844.927,314,306,340,304,-16488,-200,2308,1143,77,-343
8846.886,313,309,340,304,-16488,-200,2308,1143,77,-343
8857.585000000001,314,311,340,304,-16436,-72,2204,924,191,-471
8858.919,313,313,339,304,-16436,-72,2204,924,191,-471
8868.658,313,314,338,304,-16436,-72,2204,924,191,-471
8871.175,313,315,337,305,-16436,-72,2204,924,191,-471
8871.175,314,318,336,307,-16436,-72,2204,924,191,-471
8879.78,314,318,335,307,-16436,-72,2204,924,191,-471
8887.802000000001,314,319,334,307,-16436,-72,2204,924,191,-471
8898.805,314,319,333,308,-16612,76,2268,143,302,-188
8901.345,310,319,332,308,-16612,76,2268,143,302,-188
8901.345,310,318,331,309,-16612,76,2268,143,302,-188
8913.332,310,316,331,309,-16612,76,2268,143,302,-188
8913.332,311,315,330,309,-16612,76,2268,143,302,-188
8923.902,311,312,329,310,-16612,76,2268,143,302,-188
8929.529,310,309,328,311,-16612,76,2268,143,302,-188
8934.813,310,305,327,310,-16404,-4,1944,8,26,-459
8934.813,310,303,325,308,-16404,-4,1944,8,26,-459
8946.233,309,303,325,310,-16404,-4,1944,8,26,-459
8951.75,309,301,324,310,-16404,-4,1944,8,26,-459
8955.939,309,300,325,310,-16404,-4,1944,8,26,-459
8963.785,308,298,323,310,-16404,-4,1944,8,26,-459
8968.024,308,298,322,311,-16404,-4,1944,8,26,-459
8972.673999999999,308,299,323,312,-16508,332,1948,419,-225,-713
8979.175,308,300,322,311,-16508,332,1948,419,-225,-713
8981.642000000002,308,301,319,312,-16508,332,1948,419,-225,-713
8991.305,307,302,319,313,-16508,332,1948,419,-225,-713
8993.903,306,302,318,314,-16508,332,1948,419,-225,-713
9001.837,306,305,318,313,-16508,332,1948,419,-225,-713
9006.748,306,303,318,313,-16508,332,1948,419,-225,-713
9012.727,306,305,318,312,-16452,16,2064,958,-315,-967
9015.007000000001,306,306,317,313,-16452,16,2064,958,-315,-967
9024.666,307,306,317,314,-16452,16,2064,958,-315,-967
9033.349,305,303,317,314,-16452,16,2064,958,-315,-967
9035.591,305,302,318,315,-16452,16,2064,958,-315,-967
9035.591,304,301,317,315,-16452,16,2064,958,-315,-967
9046.277999999998,304,299,317,315,-16452,16,2064,958,-315,-967
9051.945,305,299,317,317,-16504,-172,2296,451,-418,-700
9056.905999999999,305,300,317,316,-16504,-172,2296,451,-418,-700
9064.610999999999,304,300,317,317,-16504,-172,2296,451,-418,-700
9068.586,305,303,318,318,-16504,-172,2296,451,-418,-700
9076.548,304,304,317,319,-16504,-172,2296,451,-418,-700
9079.637,303,306,316,321,-16504,-172,2296,451,-418,-700
9091.208,303,308,317,323,-16504,-172,2296,451,-418,-700
9099.225,301,308,316,322,-16540,-528,2096,211,-563,-471
9101.682,299,311,316,323,-16540,-528,2096,211,-563,-471
9101.682,299,313,316,324,-16540,-528,2096,211,-563,-471
9112.814,298,312,315,324,-16540,-528,2096,211,-563,-471
9117.435000000001,299,314,314,323,-16540,-528,2096,211,-563,-471
9123.628,299,315,314,324,-16540,-528,2096,211,-563,-471
9130.245,299,316,314,325,-16284,-564,2920,272,-390,-180
9137.560000000001,298,317,313,325,-16284,-564,2920,272,-390,-180
9142.38,298,317,312,325,-16284,-564,2920,272,-390,-180
9146.404,299,320,312,325,-16284,-564,2920,272,-390,-180
9154.261999999999,299,320,311,325,-16284,-564,2920,272,-390,-180
9157.652,297,319,310,323,-16284,-564,2920,272,-390,-180
9168.725,298,320,311,324,-16284,-564,2920,272,-390,-180
9176.828000000001,297,321,310,325,-16464,-424,2484,501,-243,55
9180.201000000001,294,320,309,325,-16464,-424,2484,501,-243,55
9180.201000000001,294,320,308,324,-16464,-424,2484,501,-243,55
9191.317,292,318,307,325,-16464,-424,2484,501,-243,55
9195.553,292,321,307,325,-16464,-424,2484,501,-243,55
9201.556,292,319,305,325,-16464,-424,2484,501,-243,55
9207.038,291,318,305,325,-16464,-424,2484,501,-243,55
9213.001,291,319,304,325,-16500,-96,2928,378,191,92
9215.351999999999,291,321,304,324,-16500,-96,2928,378,191,92
9224.621000000001,290,322,303,323,-16500,-96,2928,378,191,92
9230.149000000001,291,323,304,323,-16500,-96,2928,378,191,92
9235.106,292,325,303,323,-16500,-96,2928,378,191,92
9235.106,292,324,302,322,-16500,-96,2928,378,191,92
9246.266,289,325,301,321,-16500,-96,2928,378,191,92
9255.345,289,326,301,321,-16492,-452,2172,482,404,95
9257.163999999999,291,328,300,321,-16492,-452,2172,482,404,95
9266.101,292,329,299,321,-16492,-452,2172,482,404,95
9268.468,293,329,299,320,-16492,-452,2172,482,404,95
9273.305,293,327,299,319,-16492,-452,2172,482,404,95
9279.263,295,328,298,319,-16492,-452,2172,482,404,95
9284.851,296,329,298,319,-16492,-452,2172,482,404,95
9290.321,297,328,298,319,-16408,-84,2144,532,34,289
9293.253999999999,298,325,296,318,-16408,-84,2144,532,34,289
9303.354000000001,298,325,296,318,-16408,-84,2144,532,34,289
9303.354000000001,299,322,297,318,-16408,-84,2144,532,34,289
9312.675000000001,299,319,297,317,-16408,-84,2144,532,34,289
9318.099999999999,299,314,296,316,-16408,-84,2144,532,34,289
9323.526,300,308,295,316,-16408,-84,2144,532,34,289
9330.839,301,300,294,317,-16408,-84,2144,532,34,289
9336.696999999998,300,296,295,316,-16464,-636,1804,-251,-15,295
9345.307999999999,302,293,294,317,-16464,-636,1804,-251,-15,295
9349.046,303,292,294,317,-16464,-636,1804,-251,-15,295
9357.121,303,289,295,318,-16464,-636,1804,-251,-15,295
9357.121,303,291,295,316,-16464,-636,1804,-251,-15,295
9363.378,304,293,296,317,-16464,-636,1804,-251,-15,295
9368.33,305,294,296,317,-16464,-636,1804,-251,-15,295
9375.619999999999,304,296,297,317,-16448,-176,2044,288,-85,354
9379.98,304,298,298,317,-16448,-176,2044,288,-85,354
9390.406,304,299,301,317,-16448,-176,2044,288,-85,354
9398.405999999999,303,298,302,316,-16448,-176,2044,288,-85,354
9401.806,305,300,304,316,-16448,-176,2044,288,-85,354
9401.806,304,300,305,316,-16448,-176,2044,288,-85,354
9413.181,306,302,305,316,-16428,60,2248,676,-126,167
9416.407,304,301,306,316,-16428,60,2248,676,-126,167
9425.167,304,301,306,316,-16428,60,2248,676,-126,167
9430.182,304,301,306,316,-16428,60,2248,676,-126,167
9435.307,304,301,308,317,-16428,60,2248,676,-126,167
9443.368,305,299,308,317,-16428,60,2248,676,-126,167
9446.185,305,297,308,315,-16428,60,2248,676,-126,167
9446.185,304,296,308,316,-16428,60,2248,676,-126,167
9457.401000000002,304,294,308,316,-16552,56,2632,-39,424,-63
9461.398000000001,304,293,307,317,-16552,56,2632,-39,424,-63
9468.434000000001,305,293,308,317,-16552,56,2632,-39,424,-63
9468.434000000001,305,293,308,317,-16552,56,2632,-39,424,-63
9480.289,306,293,307,316,-16552,56,2632,-39,424,-63
9480.289,305,294,307,317,-16552,56,2632,-39,424,-63
9491.02,306,293,306,316,-16552,56,2632,-39,424,-63
9493.923999999999,305,293,305,316,-16460,-44,2412,-181,125,65
9502.382000000001,306,294,305,316,-16460,-44,2412,-181,125,65
9505.661999999998,307,294,303,316,-16460,-44,2412,-181,125,65
9512.815,307,295,303,316,-16460,-44,2412,-181,125,65
9512.815,307,294,302,316,-16460,-44,2412,-181,125,65
9524.247000000001,306,294,301,316,-16460,-44,2412,-181,125,65
9530.286,307,295,301,316,-16460,-44,2412,-181,125,65
9535.385,306,295,300,316,-16504,-84,2356,-816,228,141
9535.385,306,298,299,315,-16504,-84,2356,-816,228,141
9546.384,306,300,298,315,-16504,-84,2356,-816,228,141
9551.429,306,301,298,316,-16504,-84,2356,-816,228,141
9557.074999999999,304,302,297,314,-16504,-84,2356,-816,228,141
9557.074999999999,304,304,297,315,-16504,-84,2356,-816,228,141
9569.068,307,303,297,314,-16504,-84,2356,-816,228,141
9578.005,307,302,296,316,-16456,-212,2204,-483,246,187
9580.199999999999,306,299,295,315,-16456,-212,2204,-483,246,187
9590.725,304,298,294,315,-16456,-212,2204,-483,246,187
9590.725,305,296,294,313,-16456,-212,2204,-483,246,187
9596.657000000001,307,294,293,314,-16456,-212,2204,-483,246,187
9601.436,307,290,292,315,-16456,-212,2204,-483,246,187
9609.512999999999,308,287,292,314,-16456,-212,2204,-483,246,187
9619.465999999999,307,286,291,315,-16476,-188,2176,105,21,95
9623.599,307,286,291,315,-16476,-188,2176,105,21,95
9627.212,308,285,290,313,-16476,-188,2176,105,21,95
9635.657,306,283,291,315,-16476,-188,2176,105,21,95
9637.698999999999,307,283,290,315,-16476,-188,2176,105,21,95
9637.698999999999,305,282,290,313,-16476,-188,2176,105,21,95
9646.836000000001,306,283,289,314,-16476,-188,2176,105,21,95
9653.985999999999,308,284,289,314,-16444,36,2092,6,184,279
9657.652,307,285,288,314,-16444,36,2092,6,184,279
9668.462,307,285,288,313,-16444,36,2092,6,184,279
9669.088,306,282,288,313,-16444,36,2092,6,184,279
9673.936,306,282,288,313,-16444,36,2092,6,184,279
9680.067,307,282,288,313,-16444,36,2092,6,184,279
9689.123,308,282,289,313,-16444,36,2092,6,184,279
9691.171,308,281,289,312,-16444,36,2092,6,184,279
9691.171,308,279,289,313,-16408,-260,1992,-293,-15,330
9701.916000000001,306,278,288,313,-16408,-260,1992,-293,-15,330
9707.231,305,276,290,313,-16408,-260,1992,-293,-15,330
9712.615,306,275,290,314,-16408,-260,1992,-293,-15,330
9720.053,306,274,290,313,-16408,-260,1992,-293,-15,330
9730.314,305,275,290,313,-16408,-260,1992,-293,-15,330
9731.038,305,276,291,313,-16536,260,2320,-396,103,402
9735.839,305,277,290,313,-16536,260,2320,-396,103,402
9745.813999999998,306,278,290,312,-16536,260,2320,-396,103,402
9750.814,305,280,291,314,-16536,260,2320,-396,103,402
9758.217,307,280,291,314,-16536,260,2320,-396,103,402
9758.217,305,279,291,314,-16536,260,2320,-396,103,402
9768.837,304,278,291,314,-16536,260,2320,-396,103,402
9768.837,305,279,292,314,-16524,168,2496,-90,-35,158
9779.662999999999,305,280,292,315,-16524,168,2496,-90,-35,158
9779.662999999999,306,281,292,315,-16524,168,2496,-90,-35,158
9790.652,304,282,291,314,-16524,168,2496,-90,-35,158
9794.468,305,285,292,315,-16524,168,2496,-90,-35,158
9803.884,303,287,291,315,-16524,168,2496,-90,-35,158
9803.884,302,290,292,314,-16524,168,2496,-90,-35,158
9813.233,303,293,292,314,-16524,168,2496,-90,-35,158
9813.233,301,295,291,313,-16392,68,2484,133,366,-31
9823.928,299,298,291,314,-16392,68,2484,133,366,-31
9831.360999999999,300,302,291,315,-16392,68,2484,133,366,-31
9834.960000000001,300,306,291,315,-16392,68,2484,133,366,-31
9838.136999999999,299,309,291,316,-16392,68,2484,133,366,-31
9847.686,297,311,291,315,-16392,68,2484,133,366,-31
9847.686,294,311,292,315,-16392,68,2484,133,366,-31
9857.339,293,312,291,315,-16428,-112,2300,-124,364,56
9865.98,293,316,291,316,-16428,-112,2300,-124,364,56
9869.578000000001,293,317,291,316,-16428,-112,2300,-124,364,56
9877.807999999999,291,319,291,317,-16428,-112,2300,-124,364,56
9879.637999999999,287,321,290,316,-16428,-112,2300,-124,364,56
9879.637999999999,279,322,289,316,-16428,-112,2300,-124,364,56
9890.443,272,327,290,316,-16428,-112,2300,-124,364,56
9895.647,267,330,290,315,-16452,-60,2252,-146,453,192
9901.47,261,333,290,314,-16452,-60,2252,-146,453,192
9908.31,257,336,290,315,-16452,-60,2252,-146,453,192
9912.983,258,337,290,314,-16452,-60,2252,-146,453,192
9916.407,261,338,290,313,-16452,-60,2252,-146,453,192
9924.761999999999,266,339,291,311,-16452,-60,2252,-146,453,192
9933.593,271,339,291,310,-16452,-60,2252,-146,453,192
9935.594,277,339,291,308,-16508,-264,1804,-338,409,97
9942.439999999999,284,339,291,306,-16508,-264,1804,-338,409,97
9945.929,288,336,292,305,-16508,-264,1804,-338,409,97
9954.192000000001,293,335,292,304,-16508,-264,1804,-338,409,97
9957.321,298,332,292,304,-16508,-264,1804,-338,409,97
9965.321,303,332,293,303,-16508,-264,1804,-338,409,97
9968.463,305,331,293,303,-16508,-264,1804,-338,409,97
9980.078000000001,307,329,294,303,-16480,12,1816,-303,156,323
9980.131,309,326,293,303,-16480,12,1816,-303,156,323
9990.919,310,326,293,302,-16480,12,1816,-303,156,323
9993.252,313,325,294,302,-16480,12,1816,-303,156,323
10001.259,312,322,295,302,-16480,12,1816,-303,156,323
10002.445,314,321,294,303,-16480,12,1816,-303,156,323
10012.888,315,319,296,303,-16480,12,1816,-303,156,323
10020.887999999999,315,317,295,303,-16488,252,1932,206,-151,132
10023.873,316,315,295,303,-16488,252,1932,206,-151,132
10023.873,317,313,296,303,-16488,252,1932,206,-151,132
10035.202,317,311,297,304,-16488,252,1932,206,-151,132
10039.542000000001,318,310,297,304,-16488,252,1932,206,-151,132
10046.841,318,310,297,305,-16488,252,1932,206,-151,132
10050.706,317,308,298,306,-16488,252,1932,206,-151,132
10056.877999999999,316,308,299,306,-16520,348,2100,325,-93,-86
10059.172999999999,317,308,299,307,-16520,348,2100,325,-93,-86
10069.303,316,307,299,308,-16520,348,2100,325,-93,-86
10077.349999999999,318,308,300,308,-16520,348,2100,325,-93,-86
10081.208,317,309,300,308,-16520,348,2100,325,-93,-86
10081.208,319,308,300,309,-16520,348,2100,325,-93,-86
10090.844000000001,319,307,301,309,-16520,348,2100,325,-93,-86
10097.495,319,306,301,310,-16392,4,1812,311,-96,-111
10101.565,318,306,302,309,-16392,4,1812,311,-96,-111
10104.838000000002,317,305,302,310,-16392,4,1812,311,-96,-111
10113.945,318,305,303,310,-16392,4,1812,311,-96,-111
10113.945,317,304,303,310,-16392,4,1812,311,-96,-111
10123.917000000001,315,303,303,312,-16392,4,1812,311,-96,-111
10131.062,314,303,303,312,-16392,4,1812,311,-96,-111
10134.775,314,304,303,313,-16412,-120,2048,-118,-369,-114
10141.878,312,303,302,314,-16412,-120,2048,-118,-369,-114
10148.739000000001,310,301,301,314,-16412,-120,2048,-118,-369,-114
10153.177,311,302,302,315,-16412,-120,2048,-118,-369,-114
10157.878,311,303,302,316,-16412,-120,2048,-118,-369,-114
10168.569,312,302,301,315,-16412,-120,2048,-118,-369,-114
10168.598,312,301,303,316,-16412,-120,2048,-118,-369,-114
10179.995,312,302,302,316,-16496,208,2208,46,-174,49
10179.995,311,301,301,317,-16496,208,2208,46,-174,49
10190.913999999999,311,300,301,318,-16496,208,2208,46,-174,49
10194.4,311,299,301,318,-16496,208,2208,46,-174,49
10194.4,311,299,301,318,-16496,208,2208,46,-174,49
10201.907000000001,310,299,300,319,-16496,208,2208,46,-174,49
10212.989,310,298,300,320,-16496,208,2208,46,-174,49
10212.989,310,297,300,320,-16476,80,2324,207,-76,-149
10224.274,310,298,300,320,-16476,80,2324,207,-76,-149
10224.274,309,298,300,320,-16476,80,2324,207,-76,-149
10234.876999999999,308,299,301,320,-16476,80,2324,207,-76,-149
10239.453,308,300,299,320,-16476,80,2324,207,-76,-149
10245.857,308,299,299,321,-16476,80,2324,207,-76,-149
10245.857,307,298,299,321,-16476,80,2324,207,-76,-149
10257.904999999999,307,298,299,320,-16528,88,2312,25,181,34
10257.904999999999,308,300,298,321,-16528,88,2312,25,181,34
10264.508,308,301,298,321,-16528,88,2312,25,181,34
10268.751999999999,307,301,299,320,-16528,88,2312,25,181,34
10277.13,306,301,298,321,-16528,88,2312,25,181,34
10279.464,306,302,297,320,-16528,88,2312,25,181,34
10290.561,306,302,297,321,-16528,88,2312,25,181,34
10290.561,306,304,297,321,-16528,88,2312,25,181,34
10290.561,306,304,297,321,-16468,72,2012,121,22,68
10302.778999999999,305,305,296,321,-16468,72,2012,121,22,68
10313.045,305,304,295,321,-16468,72,2012,121,22,68
10316.116,304,304,295,322,-16468,72,2012,121,22,68
10320.759,303,305,295,321,-16468,72,2012,121,22,68
10327.506,303,306,294,321,-16468,72,2012,121,22,68
10331.577,304,307,294,321,-16468,72,2012,121,22,68
10335.9,304,306,293,321,-16524,132,2008,-18,153,45
10344.315999999999,303,307,292,321,-16524,132,2008,-18,153,45
10346.743,303,307,292,321,-16524,132,2008,-18,153,45
10346.743,304,308,293,321,-16524,132,2008,-18,153,45
10355.426,304,308,292,320,-16524,132,2008,-18,153,45
10363.427,304,307,291,320,-16524,132,2008,-18,153,45
10367.555,304,307,291,321,-16524,132,2008,-18,153,45
10377.589,304,307,292,320,-16444,-48,2052,104,13,53
10381.132,303,307,291,320,-16444,-48,2052,104,13,53
10384.184,303,307,290,320,-16444,-48,2052,104,13,53
10390.931999999999,303,308,291,320,-16444,-48,2052,104,13,53
10395.265,303,307,291,320,-16444,-48,2052,104,13,53
10401.802,301,307,291,320,-16444,-48,2052,104,13,53
10403.078000000001,299,307,290,319,-16444,-48,2052,104,13,53
10412.935,300,307,290,320,-16444,-48,2052,104,13,53
10412.935,301,307,290,320,-16536,136,2284,160,-13,111
10424.778999999999,301,306,290,320,-16536,136,2284,160,-13,111
10424.778999999999,301,306,289,319,-16536,136,2284,160,-13,111
10435.055999999999,302,306,290,319,-16536,136,2284,160,-13,111
10443.199,303,306,289,319,-16536,136,2284,160,-13,111
10446.681999999999,302,306,289,317,-16536,136,2284,160,-13,111
10446.681999999999,302,305,290,318,-16536,136,2284,160,-13,111
10457.712000000001,302,305,289,319,-16556,96,2004,169,-58,-26
10460.222,301,304,289,318,-16556,96,2004,169,-58,-26
10469.213,300,303,289,318,-16556,96,2004,169,-58,-26
10472.272,298,302,289,318,-16556,96,2004,169,-58,-26
10479.324999999999,298,302,289,318,-16556,96,2004,169,-58,-26
10479.324999999999,299,303,288,316,-16556,96,2004,169,-58,-26
10490.362,300,303,289,317,-16556,96,2004,169,-58,-26
10490.362,299,302,290,316,-16524,-208,2136,41,71,49
10501.921,299,303,290,315,-16524,-208,2136,41,71,49
10506.244,299,302,290,315,-16524,-208,2136,41,71,49
10512.332,299,301,290,314,-16524,-208,2136,41,71,49
10512.332,298,301,291,315,-16524,-208,2136,41,71,49
10523.716,301,302,291,315,-16524,-208,2136,41,71,49
10526.317000000001,299,302,290,316,-16524,-208,2136,41,71,49
10533.106,299,301,290,316,-16524,-208,2136,41,71,49
10535.818000000001,300,302,291,316,-16492,264,2064,245,-120,114
10544.172,300,301,290,315,-16492,264,2064,245,-120,114
10545.921999999999,301,300,290,316,-16492,264,2064,245,-120,114
10557.555,301,300,291,316,-16492,264,2064,245,-120,114
10557.555,302,301,291,316,-16492,264,2064,245,-120,114
10568.409000000001,303,301,291,316,-16492,264,2064,245,-120,114
10568.409000000001,301,300,292,315,-16492,264,2064,245,-120,114
10579.964,300,299,292,315,-16496,92,2260,-53,80,65
10579.964,299,298,292,314,-16496,92,2260,-53,80,65
10587.783,300,299,293,314,-16496,92,2260,-53,80,65
10590.757,301,299,293,315,-16496,92,2260,-53,80,65
10601.568000000001,300,300,293,316,-16496,92,2260,-53,80,65
10604.175,301,300,293,315,-16496,92,2260,-53,80,65
10604.175,301,300,294,315,-16496,92,2260,-53,80,65
10614.112000000001,301,300,294,315,-16556,244,2256,-436,121,159
10620.732,302,299,294,315,-16556,244,2256,-436,121,159
10624.311,300,299,294,315,-16556,244,2256,-436,121,159
10633.158,300,299,296,316,-16556,244,2256,-436,121,159
10638.178999999998,300,299,295,315,-16556,244,2256,-436,121,159
10646.17,300,297,295,314,-16556,244,2256,-436,121,159
10646.17,300,298,296,315,-16556,244,2256,-436,121,159
10652.857,298,299,297,314,-16508,20,2184,-415,103,190
10657.907,299,299,297,315,-16508,20,2184,-415,103,190
10668.373000000001,300,300,298,315,-16508,20,2184,-415,103,190
10668.47,299,300,298,316,-16508,20,2184,-415,103,190
10679.641,300,300,298,315,-16508,20,2184,-415,103,190
10679.641,301,300,298,315,-16508,20,2184,-415,103,190
10690.603,301,299,298,314,-16508,20,2184,-415,103,190
10694.226999999999,300,299,299,315,-16492,176,1828,-262,172,-49
10703.224,299,300,299,314,-16492,176,1828,-262,172,-49
10703.224,300,299,299,314,-16492,176,1828,-262,172,-49
10712.896999999999,300,299,300,315,-16492,176,1828,-262,172,-49
10721.019999999999,300,299,300,315,-16492,176,1828,-262,172,-49
10724.28,300,299,300,314,-16492,176,1828,-262,172,-49
10733.098,300,299,300,314,-16492,176,1828,-262,172,-49
10734.862,299,299,300,315,-16456,64,2108,-146,117,27
10734.862,299,299,300,315,-16456,64,2108,-146,117,27
10745.717,298,299,301,314,-16456,64,2108,-146,117,27
10751.274000000001,299,301,301,315,-16456,64,2108,-146,117,27
10756.921999999999,298,301,301,315,-16456,64,2108,-146,117,27
10766.735999999999,300,301,301,313,-16456,64,2108,-146,117,27
10768.914999999999,299,301,301,314,-16456,64,2108,-146,117,27
10772.185,300,301,302,315,-16456,64,2108,-146,117,27
10779.555999999999,300,301,301,315,-16460,256,2012,192,68,-56
10784.383,299,301,301,315,-16460,256,2012,192,68,-56
10790.836000000001,299,300,301,315,-16460,256,2012,192,68,-56
10792.408,300,301,302,315,-16460,256,2012,192,68,-56
10801.799,298,301,302,313,-16460,256,2012,192,68,-56
10801.799,299,301,302,314,-16460,256,2012,192,68,-56
10813.395999999999,298,301,302,314,-16460,256,2012,192,68,-56
10813.395999999999,298,301,302,314,-16484,44,1984,-77,21,-50
10824.118999999999,298,302,302,314,-16484,44,1984,-77,21,-50
10830.57,298,302,302,315,-16484,44,1984,-77,21,-50
10835.078,299,302,303,315,-16484,44,1984,-77,21,-50
10837.859999999999,300,303,303,315,-16484,44,1984,-77,21,-50
10846.981,299,302,303,314,-16484,44,1984,-77,21,-50
10846.981,299,302,302,314,-16484,44,1984,-77,21,-50
10853.988,300,302,303,314,-16448,168,2024,-63,82,-23
10857.564,300,303,302,315,-16448,168,2024,-63,82,-23
10868.3,299,303,302,315,-16448,168,2024,-63,82,-23
10868.3,300,303,302,316,-16448,168,2024,-63,82,-23
10879.780999999999,300,304,302,316,-16448,168,2024,-63,82,-23
10882.341999999999,298,304,300,315,-16448,168,2024,-63,82,-23
10882.341999999999,300,304,300,316,-16448,168,2024,-63,82,-23
10897.027,300,304,301,315,-16448,168,2024,-63,82,-23
10897.027,299,303,301,315,-16436,172,2140,-43,118,-52
10901.808,299,304,300,315,-16436,172,2140,-43,118,-52
10913.086,299,305,300,315,-16436,172,2140,-43,118,-52
10913.086,300,305,301,315,-16436,172,2140,-43,118,-52
10924.511,300,305,300,315,-16436,172,2140,-43,118,-52
10928.029,299,304,300,314,-16436,172,2140,-43,118,-52
10933.498,300,305,300,315,-16436,172,2140,-43,118,-52
10935.899,301,306,300,315,-16416,0,1896,-110,158,-76
10945.807,300,306,299,315,-16416,0,1896,-110,158,-76
10945.807,301,306,299,315,-16416,0,1896,-110,158,-76
10957.363000000001,300,306,300,315,-16416,0,1896,-110,158,-76
10957.363000000001,300,306,299,315,-16416,0,1896,-110,158,-76
10969.078,300,306,299,315,-16416,0,1896,-110,158,-76
10969.078,301,306,299,315,-16416,0,1896,-110,158,-76
10977.117,301,306,299,315,-16528,160,2064,154,34,0
10979.735,302,307,299,315,-16528,160,2064,154,34,0
10990.636,303,306,299,315,-16528,160,2064,154,34,0
10993.036999999998,302,306,299,316,-16528,160,2064,154,34,0
11001.037,302,307,299,314,-16528,160,2064,154,34,0
11003.349,302,306,299,315,-16528,160,2064,154,34,0
11009.636999999999,302,307,299,315,-16528,160,2064,154,34,0
11013.019999999999,302,308,299,315,-16528,160,2064,154,34,0
11018.744999999999,302,307,299,315,-16404,92,1980,121,-72,-36
11023.630000000001,300,307,299,315,-16404,92,1980,121,-72,-36
11029.755,301,307,300,315,-16404,92,1980,121,-72,-36
11034.995,302,307,300,316,-16404,92,1980,121,-72,-36
11037.929,302,307,299,315,-16404,92,1980,121,-72,-36
11047.067000000001,303,307,299,315,-16404,92,1980,121,-72,-36
11055.523000000001,303,307,300,316,-16404,92,1980,121,-72,-36
11058.017,303,309,300,315,-16544,176,2148,65,-14,-32
11066.102,303,308,299,316,-16544,176,2148,65,-14,-32
11068.279,304,308,300,316,-16544,176,2148,65,-14,-32
11074.821,303,308,300,316,-16544,176,2148,65,-14,-32
11079.663999999999,304,308,300,316,-16544,176,2148,65,-14,-32
11083.427,303,308,300,315,-16544,176,2148,65,-14,-32
11091.321,303,309,301,315,-16544,176,2148,65,-14,-32
11091.321,304,309,301,316,-16416,196,1972,-14,-58,-111
11102.008,302,307,300,315,-16416,196,1972,-14,-58,-111
11108.662,303,307,301,315,-16416,196,1972,-14,-58,-111
11113.262,303,308,301,316,-16416,196,1972,-14,-58,-111
11121.576,303,308,300,315,-16416,196,1972,-14,-58,-111
11124.211000000001,303,308,300,316,-16416,196,1972,-14,-58,-111
11133.825,304,309,301,316,-16416,196,1972,-14,-58,-111
11135.223,304,308,301,315,-16504,104,2320,-191,43,-51
11141.42,303,308,301,314,-16504,104,2320,-191,43,-51
11149.724,304,307,302,314,-16504,104,2320,-191,43,-51
11149.724,304,308,302,315,-16504,104,2320,-191,43,-51
11158.122000000001,304,308,303,314,-16504,104,2320,-191,43,-51
11165.345000000001,304,308,302,314,-16504,104,2320,-191,43,-51
11168.832,304,308,303,315,-16504,104,2320,-191,43,-51
11180.039,303,308,303,315,-16544,208,1864,-68,48,-77
11180.688999999998,303,308,303,313,-16544,208,1864,-68,48,-77
11191.046999999999,302,307,303,314,-16544,208,1864,-68,48,-77
11191.046999999999,304,306,303,314,-16544,208,1864,-68,48,-77
11198.156,303,306,304,313,-16544,208,1864,-68,48,-77
11201.876,304,306,304,313,-16544,208,1864,-68,48,-77
11212.588,304,307,304,314,-16544,208,1864,-68,48,-77
11212.588,302,307,304,313,-16392,100,1920,56,53,-90
11223.519,303,307,304,313,-16392,100,1920,56,53,-90
11223.519,303,307,304,313,-16392,100,1920,56,53,-90
11234.005,304,307,305,314,-16392,100,1920,56,53,-90
11235.326000000001,304,307,305,314,-16392,100,1920,56,53,-90
11244.208999999999,303,307,304,313,-16392,100,1920,56,53,-90
11246.724,303,306,304,313,-16392,100,1920,56,53,-90
11246.724,303,306,304,313,-16392,100,1920,56,53,-90
11257.032000000001,303,306,304,312,-16504,140,2192,-9,66,-36
11263.341,302,305,304,311,-16504,140,2192,-9,66,-36
11268.335000000001,303,305,304,312,-16504,140,2192,-9,66,-36
11277.791000000001,303,307,304,313,-16504,140,2192,-9,66,-36
11279.991,304,307,304,312,-16504,140,2192,-9,66,-36
11283.808,304,307,304,311,-16504,140,2192,-9,66,-36
11290.276,304,307,304,311,-16504,140,2192,-9,66,-36
11296.060000000001,304,308,304,311,-16556,-28,2036,-110,23,11
11301.263,304,308,304,311,-16556,-28,2036,-110,23,11
11304.203,304,307,304,311,-16556,-28,2036,-110,23,11
11313.466,304,306,305,310,-16556,-28,2036,-110,23,11
11313.466,304,306,304,310,-16556,-28,2036,-110,23,11
11323.861,304,306,304,310,-16556,-28,2036,-110,23,11
11329.108,303,305,304,309,-16556,-28,2036,-110,23,11
11334.712,303,304,305,310,-16556,-28,2036,-110,23,11
11337.033,303,305,304,310,-16472,32,2024,-228,73,56
11346.972,302,304,303,310,-16472,32,2024,-228,73,56
11346.972,302,305,304,311,-16472,32,2024,-228,73,56
11357.157000000001,303,304,304,310,-16472,32,2024,-228,73,56
11357.157000000001,303,305,304,308,-16472,32,2024,-228,73,56
11368.192000000001,302,304,304,308,-16472,32,2024,-228,73,56
11376.284,303,304,305,309,-16472,32,2024,-228,73,56
11379.583999999999,303,305,304,308,-16476,80,1988,34,86,3
11379.583999999999,301,305,303,308,-16476,80,1988,34,86,3
11387.616,301,305,304,308,-16476,80,1988,34,86,3
11390.584,302,304,304,309,-16476,80,1988,34,86,3
11398.821,302,304,304,308,-16476,80,1988,34,86,3
11405.039999999999,302,305,303,309,-16476,80,1988,34,86,3
11406.734,303,304,303,307,-16476,80,1988,34,86,3
11412.682,303,304,303,308,-16476,80,1988,34,86,3
11415.535,303,305,303,308,-16416,384,2196,245,35,-101
11424.787,302,305,302,308,-16416,384,2196,245,35,-101
11433.568,302,304,303,308,-16416,384,2196,245,35,-101
11435.863,301,304,303,307,-16416,384,2196,245,35,-101
11439.546999999999,301,304,302,307,-16416,384,2196,245,35,-101
11445.64,302,304,302,308,-16416,384,2196,245,35,-101
11452.305,302,303,303,308,-16416,384,2196,245,35,-101
11457.242,303,304,303,308,-16564,44,1820,86,102,-33
11459.975999999999,303,304,302,307,-16564,44,1820,86,102,-33
11468.884,302,306,302,308,-16564,44,1820,86,102,-33
11468.884,303,305,303,308,-16564,44,1820,86,102,-33
11479.723999999998,302,304,302,308,-16564,44,1820,86,102,-33
11485.223,303,304,302,308,-16564,44,1820,86,102,-33
11490.346000000001,303,303,303,308,-16564,44,1820,86,102,-33
11493.066,303,304,302,308,-16564,44,1820,86,102,-33
11502.123,302,304,302,307,-16448,-60,2016,-93,19,-7
11502.123,302,304,302,308,-16448,-60,2016,-93,19,-7
11508.967999999999,302,303,303,308,-16448,-60,2016,-93,19,-7
11513.309,302,304,303,308,-16448,-60,2016,-93,19,-7
11524.285000000002,302,304,302,307,-16448,-60,2016,-93,19,-7
11524.285000000002,303,304,302,308,-16448,-60,2016,-93,19,-7
11535.467999999999,303,304,303,309,-16448,-60,2016,-93,19,-7
11535.467999999999,303,304,303,308,-16468,80,1936,-162,51,22
11542.25,303,303,303,308,-16468,80,1936,-162,51,22
11546.747,303,303,303,308,-16468,80,1936,-162,51,22
11554.701,302,303,303,308,-16468,80,1936,-162,51,22
11557.331,301,303,303,307,-16468,80,1936,-162,51,22
11568.893,302,303,303,307,-16468,80,1936,-162,51,22
11568.893,302,303,303,309,-16468,80,1936,-162,51,22
11575.402,302,302,302,309,-16560,112,1864,-120,-81,29
11579.694,301,302,302,308,-16560,112,1864,-120,-81,29
11587.341999999999,301,302,301,308,-16560,112,1864,-120,-81,29
11590.745,301,302,302,308,-16560,112,1864,-120,-81,29
11601.810000000001,301,303,302,307,-16560,112,1864,-120,-81,29
11603.205000000002,301,303,301,307,-16560,112,1864,-120,-81,29
11613.181,301,303,301,308,-16560,112,1864,-120,-81,29
11613.181,301,302,301,308,-16560,112,1864,-120,-81,29
11621.949,301,303,301,308,-16568,300,2104,84,46,-22
11624.375,302,303,300,308,-16568,300,2104,84,46,-22
11633.889,301,303,301,308,-16568,300,2104,84,46,-22
11637.775,301,303,301,308,-16568,300,2104,84,46,-22
11645.93,302,303,300,308,-16568,300,2104,84,46,-22
11651.047999999999,301,303,300,308,-16568,300,2104,84,46,-22
11651.047999999999,301,304,300,309,-16568,300,2104,84,46,-22
11658.032000000001,302,304,300,309,-16460,164,2104,24,76,-116
11665.736,303,304,300,309,-16460,164,2104,24,76,-116
11668.536,303,304,299,309,-16460,164,2104,24,76,-116
11679.596,303,304,300,309,-16460,164,2104,24,76,-116
11683.551,302,303,299,308,-16460,164,2104,24,76,-116
11688.769,302,304,299,307,-16460,164,2104,24,76,-116
11695.167,302,304,299,308,-16460,164,2104,24,76,-116
11699.773000000001,303,305,300,308,-16496,92,1836,-162,120,-87
11702.015,303,304,300,308,-16496,92,1836,-162,120,-87
11707.061,304,305,300,308,-16496,92,1836,-162,120,-87
11713.988000000001,304,305,300,309,-16496,92,1836,-162,120,-87
11724.248,305,305,300,308,-16496,92,1836,-162,120,-87
11724.248,304,305,300,309,-16496,92,1836,-162,120,-87
11730.489,303,305,300,308,-16496,92,1836,-162,120,-87
11735.265,304,305,300,309,-16480,68,2012,-75,-55,-47
11742.983,304,304,299,309,-16480,68,2012,-75,-55,-47
11746.04,305,305,300,309,-16480,68,2012,-75,-55,-47
11756.983,305,305,300,309,-16480,68,2012,-75,-55,-47
11756.983,304,305,300,309,-16480,68,2012,-75,-55,-47
11763.836,303,304,300,309,-16480,68,2012,-75,-55,-47
11768.621,304,304,299,309,-16480,68,2012,-75,-55,-47
11775.827,305,305,300,309,-16480,68,2012,-75,-55,-47
11780.108,304,305,300,309,-16576,4,1924,25,71,-7
11784.257,305,305,300,310,-16576,4,1924,25,71,-7
11790.596000000001,305,306,300,310,-16576,4,1924,25,71,-7
11795.424,305,305,301,310,-16576,4,1924,25,71,-7
11802.81,305,305,300,310,-16576,4,1924,25,71,-7
11802.81,305,305,300,310,-16576,4,1924,25,71,-7
11813.207,305,305,301,310,-16576,4,1924,25,71,-7
11813.207,305,305,302,311,-16576,4,1924,25,71,-7
11820.687,305,305,301,310,-16460,232,2152,113,-92,6
11824.364,305,305,301,309,-16460,232,2152,113,-92,6
11835.144,304,304,302,309,-16460,232,2152,113,-92,6
11835.144,304,304,302,310,-16460,232,2152,113,-92,6
11841.309000000001,304,305,302,310,-16460,232,2152,113,-92,6
11846.225,304,304,302,310,-16460,232,2152,113,-92,6
11853.664999999999,304,305,302,311,-16460,232,2152,113,-92,6
11857.304,304,305,302,311,-16596,216,1992,66,72,-44
11861.753999999999,304,306,302,311,-16596,216,1992,66,72,-44
11868.646,304,305,302,311,-16596,216,1992,66,72,-44
11868.646,305,305,302,311,-16596,216,1992,66,72,-44
11879.227,305,306,302,311,-16596,216,1992,66,72,-44
11886.283000000001,305,305,302,311,-16596,216,1992,66,72,-44
11890.946,306,305,303,311,-16596,216,1992,66,72,-44
11899.931,305,305,303,311,-16596,216,1992,66,72,-44
11901.994999999999,305,305,303,309,-16508,40,1960,-98,24,-28
11905.893,305,306,303,310,-16508,40,1960,-98,24,-28
11917.092,305,306,303,311,-16508,40,1960,-98,24,-28
11918.196,306,306,303,311,-16508,40,1960,-98,24,-28
11923.622,304,306,303,310,-16508,40,1960,-98,24,-28
11923.622,305,306,303,311,-16508,40,1960,-98,24,-28
11935.494999999999,305,306,303,311,-16508,40,1960,-98,24,-28
11939.457,305,306,303,310,-16512,60,1968,-234,-17,72
11945.953,305,306,303,311,-16512,60,1968,-234,-17,72
11945.953,304,305,304,310,-16512,60,1968,-234,-17,72
11957.037,305,305,304,311,-16512,60,1968,-234,-17,72
11966.423,304,305,303,310,-16512,60,1968,-234,-17,72
11968.607,304,304,303,310,-16512,60,1968,-234,-17,72
11968.607,303,304,304,310,-16512,60,1968,-234,-17,72
11978.613,304,306,304,311,-16484,92,1880,6,-58,54
11986.044,304,306,303,310,-16484,92,1880,6,-58,54
11990.569000000001,305,306,304,309,-16484,92,1880,6,-58,54
11995.792,304,305,304,309,-16484,92,1880,6,-58,54
11999.610999999999,304,305,304,310,-16484,92,1880,6,-58,54
12004.011999999999,305,305,304,310,-16484,92,1880,6,-58,54
12009.328,305,305,305,309,-16484,92,1880,6,-58,54
12013.047999999999,305,305,305,310,-16484,92,1880,6,-58,54
12017.321,304,305,305,311,-16568,432,1904,64,-28,-44
12024.138,303,303,304,309,-16568,432,1904,64,-28,-44
12029.67,303,304,305,310,-16568,432,1904,64,-28,-44
12035.318,304,305,305,311,-16568,432,1904,64,-28,-44
12041.4,304,305,305,310,-16568,432,1904,64,-28,-44
12046.934000000001,303,304,304,309,-16568,432,1904,64,-28,-44
12049.686,305,305,305,310,-16568,432,1904,64,-28,-44
12058.27,305,306,306,310,-16544,292,1796,77,-33,-110
12058.27,305,305,305,309,-16544,292,1796,77,-33,-110
12068.922,305,305,305,310,-16544,292,1796,77,-33,-110
12075.699999999999,306,306,305,310,-16544,292,1796,77,-33,-110
12079.632,306,306,305,310,-16544,292,1796,77,-33,-110
12086.998,306,306,305,310,-16544,292,1796,77,-33,-110
12090.742,307,304,305,309,-16544,292,1796,77,-33,-110
12095.58,307,305,305,310,-16536,216,2040,-38,-44,-165
12101.811,306,304,304,310,-16536,216,2040,-38,-44,-165
12113.31,306,303,304,309,-16536,216,2040,-38,-44,-165
12113.31,306,305,305,310,-16536,216,2040,-38,-44,-165
12119.952,306,305,305,310,-16536,216,2040,-38,-44,-165
12124.048,306,305,304,309,-16536,216,2040,-38,-44,-165
12134.449,307,304,304,310,-16536,216,2040,-38,-44,-165
12137.418,308,304,304,310,-16492,68,2052,-188,20,-119
12146.421,307,304,303,309,-16492,68,2052,-188,20,-119
12146.421,308,304,304,310,-16492,68,2052,-188,20,-119
12157.466,306,304,304,310,-16492,68,2052,-188,20,-119
12157.466,307,305,304,309,-16492,68,2052,-188,20,-119
12165.331,307,304,303,310,-16492,68,2052,-188,20,-119
12168.812000000002,307,304,304,310,-16492,68,2052,-188,20,-119
12179.653,307,304,304,310,-16492,68,2052,-188,20,-119
12179.653,308,304,303,310,-16596,-84,2068,-83,85,-36
12190.648,307,304,303,309,-16596,-84,2068,-83,85,-36
12193.476999999999,306,304,303,309,-16596,-84,2068,-83,85,-36
12203.033,306,303,303,309,-16596,-84,2068,-83,85,-36
12203.033,306,303,303,310,-16596,-84,2068,-83,85,-36
12209.698,305,303,303,309,-16596,-84,2068,-83,85,-36
12213.082,305,303,303,310,-16596,-84,2068,-83,85,-36
12224.025,305,303,303,310,-16472,224,2004,23,27,11
12224.025,305,303,303,310,-16472,224,2004,23,27,11
12230.396,305,304,303,310,-16472,224,2004,23,27,11
12235.118999999999,305,304,303,310,-16472,224,2004,23,27,11
12244.322,305,304,303,309,-16472,224,2004,23,27,11
12246.551,305,304,303,309,-16472,224,2004,23,27,11
12255.407,305,304,304,309,-16472,224,2004,23,27,11
12257.838,305,303,304,309,-16540,72,1860,-102,105,-45
12257.838,305,303,303,308,-16540,72,1860,-102,105,-45
12268.742,304,303,303,308,-16540,72,1860,-102,105,-45
12277.746000000001,305,303,304,309,-16540,72,1860,-102,105,-45
12281.447,303,303,303,308,-16540,72,1860,-102,105,-45
12288.689,304,304,303,308,-16540,72,1860,-102,105,-45
12291.509,303,303,304,308,-16540,72,1860,-102,105,-45
12301.892,303,303,303,308,-16508,172,1912,-188,8,16
12301.892,303,303,303,308,-16508,172,1912,-188,8,16
12307.997,303,302,303,308,-16508,172,1912,-188,8,16
12312.948,304,304,304,308,-16508,172,1912,-188,8,16
12322.443,303,304,303,308,-16508,172,1912,-188,8,16
12324.754,303,305,302,308,-16508,172,1912,-188,8,16
12328.035,303,304,303,309,-16508,172,1912,-188,8,16
12335.059,303,305,303,309,-16508,172,1912,-188,8,16
12340.411,303,306,302,309,-16508,8,2036,-304,-196,36
12345.869999999999,303,305,301,308,-16508,8,2036,-304,-196,36
12355.6,302,304,302,309,-16508,8,2036,-304,-196,36
12357.748000000001,302,305,302,308,-16508,8,2036,-304,-196,36
12357.748000000001,302,305,302,307,-16508,8,2036,-304,-196,36
12368.575,302,305,302,308,-16508,8,2036,-304,-196,36
12376.656,303,305,302,309,-16508,8,2036,-304,-196,36
12378.607,303,305,302,308,-16516,-80,1904,-605,50,28
12381.368,302,305,302,308,-16516,-80,1904,-605,50,28
12390.57,303,304,302,308,-16516,-80,1904,-605,50,28
12399.976999999999,302,304,301,309,-16516,-80,1904,-605,50,28
12402.108,302,304,301,309,-16516,-80,1904,-605,50,28
12406.919,302,305,301,308,-16516,-80,1904,-605,50,28
12412.364,302,305,302,309,-16516,-80,1904,-605,50,28
12419.833,302,305,301,308,-16544,100,2132,-217,29,14
12425.471,302,305,301,309,-16544,100,2132,-217,29,14
12426.672999999999,302,306,301,309,-16544,100,2132,-217,29,14
12435.795,303,306,301,309,-16544,100,2132,-217,29,14
12435.795,302,305,301,310,-16544,100,2132,-217,29,14
12446.34,303,305,301,309,-16544,100,2132,-217,29,14
12446.34,302,305,302,309,-16544,100,2132,-217,29,14
12457.575,303,305,302,309,-16544,100,2132,-217,29,14
12465.661,302,306,301,309,-16432,20,1924,141,-7,47
12468.425,302,306,301,310,-16432,20,1924,141,-7,47
12468.425,303,306,302,310,-16432,20,1924,141,-7,47
12476.126,303,306,302,310,-16432,20,1924,141,-7,47
12479.786,304,306,301,310,-16432,20,1924,141,-7,47
12490.927,303,307,302,310,-16432,20,1924,141,-7,47
12490.927,303,307,302,310,-16432,20,1924,141,-7,47
12501.313,303,307,302,310,-16504,-180,1764,-142,204,84
12501.313,303,307,302,310,-16504,-180,1764,-142,204,84
12512.891,303,307,302,311,-16504,-180,1764,-142,204,84
12517.092,303,306,302,311,-16504,-180,1764,-142,204,84
12517.092,304,307,302,310,-16504,-180,1764,-142,204,84
12524.076000000001,304,306,302,310,-16504,-180,1764,-142,204,84
12535.631000000001,304,305,301,311,-16504,-180,1764,-142,204,84
12544.196,302,305,300,311,-16500,-380,1904,-1050,310,719
12546.095,302,305,301,311,-16500,-380,1904,-1050,310,719
12549.206,303,304,304,311,-16500,-380,1904,-1050,310,719
12560.511,304,302,306,311,-16500,-380,1904,-1050,310,719
12568.097,304,301,306,310,-16500,-380,1904,-1050,310,719
12568.926,305,298,304,310,-16500,-380,1904,-1050,310,719
12568.926,307,296,304,311,-16500,-380,1904,-1050,310,719
12579.859,309,294,304,311,-16296,-1024,1080,-1924,780,1374
12590.587,310,290,306,311,-16296,-1024,1080,-1924,780,1374
12594.583999999999,311,288,306,312,-16296,-1024,1080,-1924,780,1374
12601.565,310,287,308,312,-16296,-1024,1080,-1924,780,1374
12606.944,311,285,308,312,-16296,-1024,1080,-1924,780,1374
12612.454,311,284,309,312,-16296,-1024,1080,-1924,780,1374
12618.814,310,284,308,312,-16376,-2028,-528,-3194,-606,2697
12624.945,308,284,308,311,-16376,-2028,-528,-3194,-606,2697
12633.048,308,287,310,312,-16376,-2028,-528,-3194,-606,2697
12637.788999999999,308,289,312,311,-16376,-2028,-528,-3194,-606,2697
12646.285,308,292,314,311,-16376,-2028,-528,-3194,-606,2697
12654.393,308,294,316,311,-16376,-2028,-528,-3194,-606,2697
12657.65,307,295,318,312,-16376,-2028,-528,-3194,-606,2697
12664.487,306,298,318,313,-16364,-1352,392,-2394,-2881,4129
12668.961,305,297,319,314,-16364,-1352,392,-2394,-2881,4129
12679.366999999998,303,297,320,315,-16364,-1352,392,-2394,-2881,4129
12679.366999999998,302,296,320,316,-16364,-1352,392,-2394,-2881,4129
12690.725,303,295,319,316,-16364,-1352,392,-2394,-2881,4129
12699.786,304,295,319,317,-16364,-1352,392,-2394,-2881,4129
12701.663999999999,307,293,319,318,-15848,-708,-136,384,-4577,5414
12705.059000000001,311,292,320,319,-15848,-708,-136,384,-4577,5414
12713.293,315,290,321,319,-15848,-708,-136,384,-4577,5414
12724.306999999999,321,289,321,320,-15848,-708,-136,384,-4577,5414
12724.306999999999,326,289,319,320,-15848,-708,-136,384,-4577,5414
12735.521999999999,335,289,319,321,-15848,-708,-136,384,-4577,5414
12738.279,342,290,318,322,-15664,-848,644,880,-6792,6323
12747.452,348,291,317,321,-15664,-848,644,880,-6792,6323
12747.452,352,291,318,321,-15664,-848,644,880,-6792,6323
12757.4,355,291,318,321,-15664,-848,644,880,-6792,6323
12765.530999999999,358,291,315,320,-15664,-848,644,880,-6792,6323
12768.176000000001,362,291,314,321,-15664,-848,644,880,-6792,6323
12777.499,367,291,309,322,-15664,-848,644,880,-6792,6323
12779.212,370,290,300,323,-15164,-352,-524,1160,-8463,8456
12787.668,374,288,289,324,-15164,-352,-524,1160,-8463,8456
12790.701000000001,379,292,285,330,-15164,-352,-524,1160,-8463,8456
12801.771,385,298,282,339,-15164,-352,-524,1160,-8463,8456
12809.853000000001,392,307,273,351,-15164,-352,-524,1160,-8463,8456
12813.003999999999,396,313,266,360,-15164,-352,-524,1160,-8463,8456
12821.932,401,318,259,367,-15164,-352,-524,1160,-8463,8456
12823.804,401,324,252,374,-12720,2104,4024,-879,-12197,9217
12834.632,401,330,245,380,-12720,2104,4024,-879,-12197,9217
12835.145,399,334,240,385,-12720,2104,4024,-879,-12197,9217
12846.51,397,338,235,389,-12720,2104,4024,-879,-12197,9217
12855.294,393,340,232,393,-12720,2104,4024,-879,-12197,9217
12857.408,391,343,231,395,-12720,2104,4024,-879,-12197,9217
12861.474,387,345,231,397,-13648,4212,5016,-446,-14617,12065
12868.968,382,347,231,398,-13648,4212,5016,-446,-14617,12065
12879.66,378,349,233,399,-13648,4212,5016,-446,-14617,12065
12888.18,373,349,234,399,-13648,4212,5016,-446,-14617,12065
12890.889,367,350,236,398,-13648,4212,5016,-446,-14617,12065
12899.857,363,352,239,399,-13648,4212,5016,-446,-14617,12065
12901.724,359,355,244,400,-12388,2928,4664,-3276,-15849,11782
12912.81,358,356,250,403,-12388,2928,4664,-3276,-15849,11782
12912.81,355,356,255,404,-12388,2928,4664,-3276,-15849,11782
12923.769999999999,351,355,259,407,-12388,2928,4664,-3276,-15849,11782
12932.973,348,353,261,410,-12388,2928,4664,-3276,-15849,11782
12938.832,343,351,267,412,-12388,2928,4664,-3276,-15849,11782
12943.136,339,348,273,411,-11136,6196,6532,-5518,-18982,12360
12946.256,336,343,281,409,-11136,6196,6532,-5518,-18982,12360
12957.306,337,340,286,408,-11136,6196,6532,-5518,-18982,12360
12966.390000000001,341,339,289,405,-11136,6196,6532,-5518,-18982,12360
12968.349,345,338,295,401,-11136,6196,6532,-5518,-18982,12360
12975.816,349,338,301,396,-11136,6196,6532,-5518,-18982,12360
12979.56,352,337,306,391,-9768,7456,9840,-8381,-16503,11415
12990.483,356,336,314,383,-9768,7456,9840,-8381,-16503,11415
12998.842,358,335,322,377,-9768,7456,9840,-8381,-16503,11415
13001.601,359,336,332,368,-9768,7456,9840,-8381,-16503,11415
13010.823999999999,360,336,342,359,-9768,7456,9840,-8381,-16503,11415
13012.378,359,333,355,350,-9768,7456,9840,-8381,-16503,11415
13020.438,357,327,363,340,-9292,8064,11892,-8486,-15204,10082
13032.137,352,324,372,330,-9292,8064,11892,-8486,-15204,10082
13038.850999999999,347,320,377,322,-9292,8064,11892,-8486,-15204,10082
13043.2,341,317,378,313,-9292,8064,11892,-8486,-15204,10082
13051.731,337,314,380,302,-9292,8064,11892,-8486,-15204,10082
13059.303,334,309,380,294,-9292,8064,11892,-8486,-15204,10082
13061.541,330,303,381,286,-7408,6416,13260,-8178,-14875,8051
13068.157,325,298,384,279,-7408,6416,13260,-8178,-14875,8051
13074.0,321,296,388,274,-7408,6416,13260,-8178,-14875,8051
13079.279,315,293,390,269,-7408,6416,13260,-8178,-14875,8051
13085.972,307,290,393,265,-7408,6416,13260,-8178,-14875,8051
13090.938,302,287,395,262,-7408,6416,13260,-8178,-14875,8051
13101.642,297,285,397,259,-7064,5824,12600,-5300,-14380,7002
13107.034,292,283,399,257,-7064,5824,12600,-5300,-14380,7002
13112.535,288,281,401,257,-7064,5824,12600,-5300,-14380,7002
13119.517,285,279,395,255,-7064,5824,12600,-5300,-14380,7002
13124.409,280,279,389,254,-7064,5824,12600,-5300,-14380,7002
13134.81,276,282,385,253,-7064,5824,12600,-5300,-14380,7002
13138.893,270,288,376,253,-7064,5824,12600,-5300,-14380,7002
13145.885,267,296,367,253,-5328,5320,15404,-4797,-13320,6911
13152.23,265,307,356,254,-5328,5320,15404,-4797,-13320,6911
13157.47,264,313,348,254,-5328,5320,15404,-4797,-13320,6911
13169.117999999999,262,319,342,254,-5328,5320,15404,-4797,-13320,6911
13171.758,262,321,345,255,-5328,5320,15404,-4797,-13320,6911
13179.888,258,324,352,256,-5328,5320,15404,-4797,-13320,6911
13184.042,254,328,356,256,-4940,6872,17052,-2755,-10794,6506
13190.868,249,333,362,259,-4940,6872,17052,-2755,-10794,6506
13201.635,245,335,369,261,-4940,6872,17052,-2755,-10794,6506
13205.044,239,336,373,262,-4940,6872,17052,-2755,-10794,6506
13213.971000000001,234,333,377,264,-4940,6872,17052,-2755,-10794,6506
13213.971000000001,230,319,379,266,-4940,6872,17052,-2755,-10794,6506
13224.232,225,298,378,267,-4464,6740,16100,-2403,-9159,4841
13233.089,222,264,377,266,-4464,6740,16100,-2403,-9159,4841
13234.793,219,239,377,267,-4464,6740,16100,-2403,-9159,4841
13245.804,216,236,376,268,-4464,6740,16100,-2403,-9159,4841
13250.064999999999,214,232,377,269,-4464,6740,16100,-2403,-9159,4841
13257.369999999999,214,225,377,271,-4464,6740,16100,-2403,-9159,4841
13262.241,214,207,376,271,-3548,6668,14796,-4365,-7785,3951
13268.382000000001,213,194,376,272,-3548,6668,14796,-4365,-7785,3951
13274.264000000001,214,190,374,274,-3548,6668,14796,-4365,-7785,3951
13279.564,215,186,373,273,-3548,6668,14796,-4365,-7785,3951
13287.581,220,182,372,273,-3548,6668,14796,-4365,-7785,3951
13290.504,228,177,375,274,-3548,6668,14796,-4365,-7785,3951
13301.779,237,178,378,276,-3256,6584,16080,-4487,-7428,2942
13308.25,246,180,381,276,-3256,6584,16080,-4487,-7428,2942
13312.749,252,178,385,276,-3256,6584,16080,-4487,-7428,2942
13319.301,255,177,387,275,-3256,6584,16080,-4487,-7428,2942
13324.386,257,178,383,274,-3256,6584,16080,-4487,-7428,2942
13334.88,260,179,379,272,-3256,6584,16080,-4487,-7428,2942
13334.88,259,178,374,271,-3256,6584,16080,-4487,-7428,2942
13346.145999999999,259,177,370,271,-2416,6436,16572,-2420,-6278,1512
13354.205,258,177,367,273,-2416,6436,16572,-2420,-6278,1512
13356.507000000001,258,177,364,275,-2416,6436,16572,-2420,-6278,1512
13364.449,256,177,356,273,-2416,6436,16572,-2420,-6278,1512
13368.443,254,176,351,273,-2416,6436,16572,-2420,-6278,1512
13379.597,252,178,347,274,-2416,6436,16572,-2420,-6278,1512
13379.597,247,183,344,273,-2060,6212,16704,-1600,-4990,627
13390.727,244,188,344,273,-2060,6212,16704,-1600,-4990,627
13393.048,240,195,344,273,-2060,6212,16704,-1600,-4990,627
13402.159,237,203,345,271,-2060,6212,16704,-1600,-4990,627
13411.234,234,211,347,271,-2060,6212,16704,-1600,-4990,627
13413.168000000001,232,220,349,271,-2060,6212,16704,-1600,-4990,627
13422.275000000001,230,231,352,271,-2056,5456,16484,-1334,-3724,22
13425.057,228,245,354,271,-2056,5456,16484,-1334,-3724,22
13435.356,225,258,357,271,-2056,5456,16484,-1334,-3724,22
13437.98,223,269,356,271,-2056,5456,16484,-1334,-3724,22
13449.112,221,281,356,270,-2056,5456,16484,-1334,-3724,22
13457.097,220,292,358,271,-2056,5456,16484,-1334,-3724,22
13457.897,219,302,362,271,-2056,5456,16484,-1334,-3724,22
13468.211,220,313,368,270,-1796,5384,15784,-486,-3098,-335
13468.211,222,323,374,270,-1796,5384,15784,-486,-3098,-335
13480.218,222,333,380,271,-1796,5384,15784,-486,-3098,-335
13482.915,224,341,387,271,-1796,5384,15784,-486,-3098,-335
13490.579,227,348,393,272,-1796,5384,15784,-486,-3098,-335
13495.277,232,355,400,274,-1796,5384,15784,-486,-3098,-335
13501.601,238,362,406,274,-1532,5024,15612,-1822,-2781,19
13508.001999999999,246,368,411,275,-1532,5024,15612,-1822,-2781,19
13513.168,254,374,415,276,-1532,5024,15612,-1822,-2781,19
13519.872,261,379,416,277,-1532,5024,15612,-1822,-2781,19
13524.747,266,384,420,278,-1532,5024,15612,-1822,-2781,19
13534.833,272,390,424,280,-1532,5024,15612,-1822,-2781,19
13535.636999999999,279,395,427,281,-1532,5024,15612,-1822,-2781,19
13546.729,284,399,430,280,-1724,4824,15812,-1366,-2467,19
13549.013,289,403,434,281,-1724,4824,15812,-1366,-2467,19
13557.243,293,407,439,281,-1724,4824,15812,-1366,-2467,19
13566.671,297,411,444,281,-1724,4824,15812,-1366,-2467,19
13568.785,300,414,447,280,-1724,4824,15812,-1366,-2467,19
13579.705,305,417,451,278,-1724,4824,15812,-1366,-2467,19
13579.705,310,418,452,276,-920,7592,17392,-1057,-1975,-813
13591.229,317,421,453,274,-920,7592,17392,-1057,-1975,-813
13591.229,323,422,453,274,-920,7592,17392,-1057,-1975,-813
13601.905999999999,332,424,452,273,-920,7592,17392,-1057,-1975,-813
13607.056,338,424,450,272,-920,7592,17392,-1057,-1975,-813
13612.719000000001,347,424,447,273,-920,7592,17392,-1057,-1975,-813
13618.252,354,425,443,274,-920,7592,17392,-1057,-1975,-813
13624.373,359,424,436,274,-532,3436,16516,-1918,-1456,-580
13633.038,368,423,426,275,-532,3436,16516,-1918,-1456,-580
13637.307,371,421,417,276,-532,3436,16516,-1918,-1456,-580
13646.333,375,420,407,278,-532,3436,16516,-1918,-1456,-580
13652.463,377,418,397,281,-532,3436,16516,-1918,-1456,-580
13657.205,379,416,387,283,-532,3436,16516,-1918,-1456,-580
13663.149000000001,380,413,372,284,-1012,2424,16056,-2228,-1006,73
13669.408000000001,380,410,360,287,-1012,2424,16056,-2228,-1006,73
13677.846000000001,381,406,349,288,-1012,2424,16056,-2228,-1006,73
13679.509,379,404,337,290,-1012,2424,16056,-2228,-1006,73
13690.757,378,400,325,291,-1012,2424,16056,-2228,-1006,73
13698.833,376,397,314,294,-1012,2424,16056,-2228,-1006,73
13701.533,375,393,302,294,-1012,2424,16056,-2228,-1006,73
