Time (ms),EMG1,EMG2,EMG3,EMG4,AccX,AccY,AccZ,GyroX,GyroY,GyroZ
1532.665,0,0,0,0,0,0,0,0,0,0
1532.665,0,0,0,0,0,0,0,0,0,0
1548.078,309,303,301,307,0,0,0,0,0,0
1548.078,308,303,301,306,0,0,0,0,0,0
1554.692,309,304,301,307,0,0,0,0,0,0
1554.692,309,303,301,306,0,0,0,0,0,0
1561.621,309,303,300,306,0,0,0,0,0,0
1566.636,309,303,300,306,0,0,0,0,0,0
1568.609,308,303,300,306,0,0,0,0,0,0
1568.609,309,303,300,306,0,0,0,0,0,0
1576.63,309,304,300,306,0,0,0,0,0,0
1578.977,310,304,300,306,0,0,0,0,0,0
1578.977,309,303,299,306,0,0,0,0,0,0
1587.557,309,304,300,307,0,0,0,0,0,0
1589.95,308,304,299,306,1316,9704,12892,-117,31,-10
1593.115,308,304,299,306,1316,9704,12892,-117,31,-10
1600.577,308,304,299,306,1316,9704,12892,-117,31,-10
1612.221,308,304,299,306,1316,9704,12892,-117,31,-10
1613.63,308,303,299,306,1316,9704,12892,-117,31,-10
1613.63,308,303,299,306,1316,9704,12892,-117,31,-10
1623.854,310,304,298,306,1316,9704,12892,-117,31,-10
1630.614,308,303,298,306,1316,9704,12892,-117,31,-10
1634.071,308,303,297,306,1276,9696,12800,-54,6,-30
1644.802,309,303,297,306,1276,9696,12800,-54,6,-30
1646.573,309,303,297,307,1276,9696,12800,-54,6,-30
1646.573,310,302,297,307,1276,9696,12800,-54,6,-30
1656.578,310,303,296,306,1276,9696,12800,-54,6,-30
1663.478,309,303,295,306,1276,9696,12800,-54,6,-30
1667.199,310,302,295,306,1276,9696,12800,-54,6,-30
1678.052,309,303,295,306,1228,9708,12840,-86,52,-29
1679.104,309,303,294,305,1228,9708,12840,-86,52,-29
1679.104,309,303,294,306,1228,9708,12840,-86,52,-29
1689.728,309,302,295,306,1228,9708,12840,-86,52,-29
1698.299,309,302,294,306,1228,9708,12840,-86,52,-29
1700.264,309,302,294,305,1228,9708,12840,-86,52,-29
1703.803,309,302,294,306,1228,9708,12840,-86,52,-29
1711.496,309,302,295,306,1328,9724,12848,27,38,-4
1711.496,309,303,295,306,1328,9724,12848,27,38,-4
1722.556,309,303,295,306,1328,9724,12848,27,38,-4
1729.047,309,303,296,306,1328,9724,12848,27,38,-4
1729.047,310,302,296,307,1328,9724,12848,27,38,-4
1738.271,310,303,296,306,1328,9724,12848,27,38,-4
1746.104,310,302,296,306,1328,9724,12848,27,38,-4
1749.247,310,302,297,306,1328,9724,12848,27,38,-4
1756.086,309,302,297,307,1328,9636,12872,-95,23,-17
1762.5,309,302,296,306,1328,9636,12872,-95,23,-17
1765.022,309,301,296,306,1328,9636,12872,-95,23,-17
1770.93,309,302,297,307,1328,9636,12872,-95,23,-17
1778.448,309,302,298,306,1328,9636,12872,-95,23,-17
1782.113,310,302,298,305,1328,9636,12872,-95,23,-17
1782.113,309,301,299,306,1328,9636,12872,-95,23,-17
1790.155,309,301,299,306,1264,9736,12776,-8,5,3
1800.556,309,302,299,306,1264,9736,12776,-8,5,3
1800.556,309,302,299,306,1264,9736,12776,-8,5,3
1806.26,310,302,300,306,1264,9736,12776,-8,5,3
1811.254,309,302,300,306,1264,9736,12776,-8,5,3
1818.328,309,302,300,306,1264,9736,12776,-8,5,3
1822.973,309,303,299,306,1264,9736,12776,-8,5,3
1822.973,309,302,300,307,1264,9736,12776,-8,5,3
1833.776,309,302,299,307,1348,9816,12856,-106,54,-27
1842.037,310,302,300,306,1348,9816,12856,-106,54,-27
1844.087,309,302,300,306,1348,9816,12856,-106,54,-27
1847.218,309,302,300,306,1348,9816,12856,-106,54,-27
1856.667,309,302,299,306,1348,9816,12856,-106,54,-27
1862.684,308,302,299,305,1348,9816,12856,-106,54,-27
1867.054,308,302,300,306,1348,9816,12856,-106,54,-27
1872.574,308,303,300,306,1356,9756,12844,-94,9,-36
1877.954,308,303,300,305,1356,9756,12844,-94,9,-36
1887.315,308,302,299,306,1356,9756,12844,-94,9,-36
1890.193,308,303,300,306,1356,9756,12844,-94,9,-36
1893.659,308,303,300,306,1356,9756,12844,-94,9,-36
1900.47,309,303,300,305,1356,9756,12844,-94,9,-36
1907.609,308,303,300,305,1356,9756,12844,-94,9,-36
1911.113,309,303,300,306,1356,9756,12844,-94,9,-36
1913.08,309,303,300,305,1260,9688,12800,-124,25,7
1923.299,309,303,300,305,1260,9688,12800,-124,25,7
1923.299,308,303,300,306,1260,9688,12800,-124,25,7
1934.022,307,304,300,306,1260,9688,12800,-124,25,7
1934.022,308,304,300,306,1260,9688,12800,-124,25,7
1942.075,308,304,300,306,1260,9688,12800,-124,25,7
1944.885,307,303,300,306,1260,9688,12800,-124,25,7
1955.655,308,303,301,306,1320,9740,12832,-50,11,-19
1955.655,308,303,300,305,1320,9740,12832,-50,11,-19
1967.146,308,303,301,305,1320,9740,12832,-50,11,-19
1970.192,308,302,300,306,1320,9740,12832,-50,11,-19
1970.192,307,303,300,306,1320,9740,12832,-50,11,-19
1981.038,308,303,300,306,1320,9740,12832,-50,11,-19
1989.183,307,303,301,306,1320,9740,12832,-50,11,-19
1989.183,307,303,301,306,1272,9728,12828,-145,51,-25
2000.622,307,303,301,306,1272,9728,12828,-145,51,-25
2000.622,307,303,301,305,1272,9728,12828,-145,51,-25
2007.171,307,303,301,306,1272,9728,12828,-145,51,-25
2012.084,307,304,301,306,1272,9728,12828,-145,51,-25
2019.877,307,303,301,305,1272,9728,12828,-145,51,-25
2022.452,307,303,301,306,1272,9728,12828,-145,51,-25
2033.62,306,303,301,306,1272,9728,12828,-145,51,-25
2035.87,307,303,301,305,1316,9728,12864,-120,35,2
2044.92,307,304,301,305,1316,9728,12864,-120,35,2
2047.659,306,303,301,306,1316,9728,12864,-120,35,2
2047.659,307,303,301,306,1316,9728,12864,-120,35,2
2062.558,306,303,300,305,1316,9728,12864,-120,35,2
2067.188,307,303,301,306,1316,9728,12864,-120,35,2
2067.188,307,303,302,306,1316,9728,12864,-120,35,2
2077.5,307,303,302,306,1304,9680,12880,-130,39,-2
2080.418,307,302,301,305,1304,9680,12880,-130,39,-2
2080.418,307,303,302,306,1304,9680,12880,-130,39,-2
2089.391,307,303,302,307,1304,9680,12880,-130,39,-2
2097.154,307,303,301,306,1304,9680,12880,-130,39,-2
2100.747,307,303,301,306,1304,9680,12880,-130,39,-2
2111.178,307,303,301,307,1304,9680,12880,-130,39,-2
2113.663,307,303,301,306,1324,9760,12848,21,16,-12
2113.663,307,303,301,305,1324,9760,12848,21,16,-12
2123.428,308,303,301,305,1324,9760,12848,21,16,-12
2130.336,307,303,301,306,1324,9760,12848,21,16,-12
2133.763,307,302,301,306,1324,9760,12848,21,16,-12
2144.619,308,303,301,305,1324,9760,12848,21,16,-12
2146.124,307,303,301,305,1324,9760,12848,21,16,-12
2146.124,306,303,302,306,1324,9760,12848,21,16,-12
2156.366,306,303,301,305,1280,9800,12800,-66,11,-12
2164.943,306,303,301,305,1280,9800,12800,-66,11,-12
2164.943,306,303,301,305,1280,9800,12800,-66,11,-12
2171.345,306,303,301,305,1280,9800,12800,-66,11,-12
2179.356,306,302,300,305,1280,9800,12800,-66,11,-12
2182.812,306,303,302,305,1280,9800,12800,-66,11,-12
2189.334,306,303,303,306,1280,9800,12800,-66,11,-12
2198.427,305,303,303,305,1264,9692,12820,-199,53,19
2200.323,305,304,304,305,1264,9692,12820,-199,53,19
2203.559,305,303,304,306,1264,9692,12820,-199,53,19
2211.823,306,303,305,306,1264,9692,12820,-199,53,19
2211.823,306,304,305,305,1264,9692,12820,-199,53,19
2222.767,305,303,305,305,1264,9692,12820,-199,53,19
2228.441,305,303,306,306,1264,9692,12820,-199,53,19
2233.33,304,303,306,305,1368,9696,12836,-141,61,-22
2243.127,304,304,305,305,1368,9696,12836,-141,61,-22
2245.173,305,303,306,305,1368,9696,12836,-141,61,-22
2245.173,304,303,306,306,1368,9696,12836,-141,61,-22
2255.875,305,303,305,305,1368,9696,12836,-141,61,-22
2263.277,305,303,305,305,1368,9696,12836,-141,61,-22
2269.611,306,303,305,306,1368,9696,12836,-141,61,-22
2274.03,305,303,305,306,1284,9736,12824,-19,17,-37
2278.601,305,304,305,305,1284,9736,12824,-19,17,-37
2281.481,304,304,305,305,1284,9736,12824,-19,17,-37
2289.957,305,303,305,306,1284,9736,12824,-19,17,-37
2289.957,305,303,305,306,1284,9736,12824,-19,17,-37
2300.705,306,304,305,306,1284,9736,12824,-19,17,-37
2307.479,305,303,305,306,1284,9736,12824,-19,17,-37
2312.252,306,304,305,306,1284,9736,12824,-19,17,-37
2314.379,305,304,305,306,1336,9772,12752,-85,7,-16
2323.277,305,305,305,306,1336,9772,12752,-85,7,-16
2323.277,305,304,305,306,1336,9772,12752,-85,7,-16
2333.961,305,305,305,306,1336,9772,12752,-85,7,-16
2339.031,306,305,304,305,1336,9772,12752,-85,7,-16
2344.654,306,304,304,306,1336,9772,12752,-85,7,-16
2347.111,306,305,304,306,1336,9772,12752,-85,7,-16
2357.377,305,305,303,306,1236,9724,12928,-217,60,-21
2357.377,305,304,302,305,1236,9724,12928,-217,60,-21
2367.292,305,304,302,306,1236,9724,12928,-217,60,-21
2372.54,305,304,302,306,1236,9724,12928,-217,60,-21
2378.094,306,305,302,305,1236,9724,12928,-217,60,-21
2383.677,307,305,301,305,1236,9724,12928,-217,60,-21
2389.473,306,305,302,306,1236,9724,12928,-217,60,-21
2392.194,306,305,301,306,1320,9640,12764,-20,-3,-20
2400.637,306,305,300,305,1320,9640,12764,-20,-3,-20
2400.637,306,305,300,306,1320,9640,12764,-20,-3,-20
2415.087,306,305,300,306,1320,9640,12764,-20,-3,-20
2417.903,307,305,298,305,1320,9640,12764,-20,-3,-20
2422.782,308,305,298,305,1320,9640,12764,-20,-3,-20
2431.85,307,305,298,306,1320,9640,12764,-20,-3,-20
2434.373,308,304,296,306,1276,9788,12832,-7,1,-26
2436.892,308,305,296,305,1276,9788,12832,-7,1,-26
2444.78,307,305,296,306,1276,9788,12832,-7,1,-26
2449.598,307,305,296,306,1276,9788,12832,-7,1,-26
2455.564,308,304,295,307,1276,9788,12832,-7,1,-26
2457.766,308,304,295,305,1276,9788,12832,-7,1,-26
2466.475,307,304,295,305,1276,9788,12832,-7,1,-26
2469.462,309,304,295,306,1276,9788,12832,-7,1,-26
2469.462,309,304,295,305,1228,9644,12800,-147,45,-23
2478.164,309,304,295,305,1228,9644,12800,-147,45,-23
2486.415,309,305,295,306,1228,9644,12800,-147,45,-23
2489.365,309,304,295,306,1228,9644,12800,-147,45,-23
2499.76,310,304,294,305,1228,9644,12800,-147,45,-23
2502.344,309,304,294,305,1228,9644,12800,-147,45,-23
2512.126,311,304,294,306,1228,9644,12800,-147,45,-23
2514.916,311,304,293,306,1320,9712,12920,-112,20,-28
2514.916,311,304,293,306,1320,9712,12920,-112,20,-28
2523.214,310,304,293,306,1320,9712,12920,-112,20,-28
2533.948,310,304,293,306,1320,9712,12920,-112,20,-28
2533.948,311,304,292,305,1320,9712,12920,-112,20,-28
2544.903,311,304,292,305,1320,9712,12920,-112,20,-28
2548.235,311,304,292,306,1320,9712,12920,-112,20,-28
2556.093,312,303,292,306,1304,9788,12912,29,34,-46
2562.139,313,303,292,305,1304,9788,12912,29,34,-46
2566.987,313,303,292,306,1304,9788,12912,29,34,-46
2574.65,313,304,292,306,1304,9788,12912,29,34,-46
2578.982,314,304,292,305,1304,9788,12912,29,34,-46
2583.12,313,304,291,305,1304,9788,12912,29,34,-46
2586.879,314,303,291,306,1304,9788,12912,29,34,-46
2589.322,314,303,291,306,1304,9788,12912,29,34,-46
2598.149,315,303,291,305,1276,9688,12740,-98,17,-26
2600.923,315,303,291,306,1276,9688,12740,-98,17,-26
2611.728,315,303,292,306,1276,9688,12740,-98,17,-26
2611.728,314,303,291,305,1276,9688,12740,-98,17,-26
2622.478,315,303,292,305,1276,9688,12740,-98,17,-26
2622.478,315,303,292,306,1276,9688,12740,-98,17,-26
2631.926,315,303,292,306,1276,9688,12740,-98,17,-26
2634.183,316,303,292,305,1236,9168,12668,-133,-13,79
2644.58,317,302,291,305,1236,9168,12668,-133,-13,79
2645.1,317,302,292,306,1236,9168,12668,-133,-13,79
2655.864,317,302,291,306,1236,9168,12668,-133,-13,79
2658.243,318,304,291,305,1236,9168,12668,-133,-13,79
2665.017,318,303,292,305,1236,9168,12668,-133,-13,79
2666.668,319,303,293,305,1236,9168,12668,-133,-13,79
2674.701,319,303,293,305,1280,9888,13080,36,104,-51
2678.073,320,303,293,305,1280,9888,13080,36,104,-51
2687.321,319,302,292,306,1280,9888,13080,36,104,-51
2690.144,319,302,293,306,1280,9888,13080,36,104,-51
2700.548,319,303,292,305,1280,9888,13080,36,104,-51
2700.548,318,302,292,305,1280,9888,13080,36,104,-51
2709.465,318,302,292,305,1280,9888,13080,36,104,-51
2711.962,318,302,292,305,1352,9924,12984,-115,185,-99
2720.593,317,302,292,305,1352,9924,12984,-115,185,-99
2720.593,317,301,293,305,1352,9924,12984,-115,185,-99
2731.712,316,301,293,305,1352,9924,12984,-115,185,-99
2738.069,315,301,293,305,1352,9924,12984,-115,185,-99
2745.047,315,302,294,305,1352,9924,12984,-115,185,-99
2748.025,314,302,295,306,1352,9924,12984,-115,185,-99
2748.025,313,302,296,305,1384,9964,12760,-75,68,-88
2756.806,312,302,296,305,1384,9964,12760,-75,68,-88
2765.062,311,302,297,305,1384,9964,12760,-75,68,-88
2770.36,309,302,299,305,1384,9964,12760,-75,68,-88
2778.437,309,302,299,305,1384,9964,12760,-75,68,-88
2778.437,307,302,300,305,1384,9964,12760,-75,68,-88
2789.387,305,303,301,306,1384,9964,12760,-75,68,-88
2789.387,304,303,301,305,1384,9964,12760,-75,68,-88
2800.443,302,302,302,305,1244,9400,12676,-275,-25,13
2808.442,301,303,304,305,1244,9400,12676,-275,-25,13
2811.551,300,302,306,305,1244,9400,12676,-275,-25,13
2813.73,299,303,307,305,1244,9400,12676,-275,-25,13
2823.103,298,303,309,305,1244,9400,12676,-275,-25,13
2826.037,297,304,310,305,1244,9400,12676,-275,-25,13
2833.492,297,303,311,305,1244,9400,12676,-275,-25,13
2838.564,297,303,312,305,1240,9788,12932,102,9,-61
2844.481,296,303,313,306,1240,9788,12932,102,9,-61
2846.872,296,303,312,306,1240,9788,12932,102,9,-61
2856.139,298,302,312,305,1240,9788,12932,102,9,-61
2858.919,298,302,312,305,1240,9788,12932,102,9,-61
2866.146,298,302,312,306,1240,9788,12932,102,9,-61
2866.952,297,302,312,306,1240,9788,12932,102,9,-61
2878.186,298,302,311,305,1296,9732,12872,-91,21,-63
2878.186,298,302,311,305,1296,9732,12872,-91,21,-63
2888.762,298,302,310,306,1296,9732,12872,-91,21,-63
2888.762,299,302,310,305,1296,9732,12872,-91,21,-63
2898.518,300,302,310,305,1296,9732,12872,-91,21,-63
2900.861,301,302,308,306,1296,9732,12872,-91,21,-63
2908.392,302,302,308,306,1296,9732,12872,-91,21,-63
2911.471,302,302,309,306,1172,9916,12824,28,24,-56
2922.512,302,302,308,305,1172,9916,12824,28,24,-56
2924.687,302,302,308,306,1172,9916,12824,28,24,-56
2924.687,303,302,308,306,1172,9916,12824,28,24,-56
2939.313,304,302,308,305,1172,9916,12824,28,24,-56
2941.048,304,303,308,306,1172,9916,12824,28,24,-56
2945.084,304,302,308,306,1172,9916,12824,28,24,-56
2955.59,304,302,307,306,1172,9916,12824,28,24,-56
2957.175,304,302,307,305,1308,9848,12896,-27,85,-100
2965.02,303,302,306,306,1308,9848,12896,-27,85,-100
2967.934,302,301,307,306,1308,9848,12896,-27,85,-100
2976.625,302,302,307,306,1308,9848,12896,-27,85,-100
2979.201,302,302,308,306,1308,9848,12896,-27,85,-100
2987.341,301,301,308,306,1308,9848,12896,-27,85,-100
2989.192,301,301,308,306,1308,9848,12896,-27,85,-100
3000.436,301,301,309,305,1356,9648,12716,-156,-65,18
3000.436,301,301,310,305,1356,9648,12716,-156,-65,18
3007.056,300,301,310,306,1356,9648,12716,-156,-65,18
3011.648,300,302,310,305,1356,9648,12716,-156,-65,18
3019.07,301,302,311,305,1356,9648,12716,-156,-65,18
3022.564,301,302,312,306,1356,9648,12716,-156,-65,18
3033.436,300,302,312,306,1356,9648,12716,-156,-65,18
3033.436,299,303,312,305,1292,9648,12796,-130,27,4
3044.363,298,303,312,305,1292,9648,12796,-130,27,4
3044.363,299,303,313,306,1292,9648,12796,-130,27,4
3051.954,299,304,312,305,1292,9648,12796,-130,27,4
3055.943,299,303,312,305,1292,9648,12796,-130,27,4
3064.683,299,304,312,305,1292,9648,12796,-130,27,4
3066.83,300,303,312,306,1292,9648,12796,-130,27,4
3072.754,301,303,312,305,1292,9648,12796,-130,27,4
3077.86,302,304,311,305,1276,9620,12716,-80,10,-33
3084.143,302,304,311,306,1276,9620,12716,-80,10,-33
3089.334,302,304,310,305,1276,9620,12716,-80,10,-33
3097.026,303,304,309,305,1276,9620,12716,-80,10,-33
3100.244,303,304,308,306,1276,9620,12716,-80,10,-33
3111.152,303,304,307,306,1276,9620,12716,-80,10,-33
3111.152,304,305,306,306,1276,9620,12716,-80,10,-33
3117.103,305,305,304,305,1288,9760,12856,86,-8,-51
3122.361,305,305,303,306,1288,9760,12856,86,-8,-51
3129.117,305,306,302,306,1288,9760,12856,86,-8,-51
3133.94,305,306,301,305,1288,9760,12856,86,-8,-51
3138.198,306,306,300,305,1288,9760,12856,86,-8,-51
3144.577,306,307,299,306,1288,9760,12856,86,-8,-51
3149.751,306,306,298,306,1288,9760,12856,86,-8,-51
3155.672,307,307,297,305,1280,9856,12856,-39,35,-35
3164.987,307,307,296,306,1280,9856,12856,-39,35,-35
3167.912,307,307,297,306,1280,9856,12856,-39,35,-35
3176.448,308,308,296,306,1280,9856,12856,-39,35,-35
3179.046,309,308,295,306,1280,9856,12856,-39,35,-35
3179.046,309,308,295,306,1280,9856,12856,-39,35,-35
3189.438,309,308,294,306,1280,9856,12856,-39,35,-35
3195.334,310,308,294,306,1280,9856,12856,-39,35,-35
3200.25,310,308,295,306,1240,9680,12924,-185,38,-23
3202.825,309,308,295,306,1240,9680,12924,-185,38,-23
3212.594,309,308,295,306,1240,9680,12924,-185,38,-23
3212.594,309,309,295,306,1240,9680,12924,-185,38,-23
3222.277,309,308,294,306,1240,9680,12924,-185,38,-23
3231.724,309,308,294,306,1240,9680,12924,-185,38,-23
3233.627,309,309,293,305,1240,9680,12924,-185,38,-23
3242.041,309,308,293,306,1256,9740,12844,-86,45,-67
3244.352,309,308,293,306,1256,9740,12844,-86,45,-67
3248.49,310,308,293,306,1256,9740,12844,-86,45,-67
3256.773,309,309,292,305,1256,9740,12844,-86,45,-67
3256.773,309,308,292,306,1256,9740,12844,-86,45,-67
3269.622,308,308,292,307,1256,9740,12844,-86,45,-67
3269.622,308,307,291,306,1256,9740,12844,-86,45,-67
3278.613,309,306,290,305,1340,9716,12744,29,-22,-38
3287.24,308,306,290,306,1340,9716,12744,29,-22,-38
3287.24,308,306,290,306,1340,9716,12744,29,-22,-38
3293.71,308,305,290,305,1340,9716,12744,29,-22,-38
3301.721,306,305,291,305,1340,9716,12744,29,-22,-38
3304.649,306,304,291,306,1340,9716,12744,29,-22,-38
3311.535,305,304,292,306,1340,9716,12744,29,-22,-38
3320.636,304,304,293,305,1264,9832,12764,9,-14,-8
3323.106,304,304,294,306,1264,9832,12764,9,-14,-8
3323.106,304,304,295,306,1264,9832,12764,9,-14,-8
3333.809,303,304,295,306,1264,9832,12764,9,-14,-8
3338.724,303,302,296,306,1264,9832,12764,9,-14,-8
3344.555,302,303,297,306,1264,9832,12764,9,-14,-8
3346.634,301,302,298,306,1264,9832,12764,9,-14,-8
3356.425,302,302,299,305,1264,9832,12764,9,-14,-8
3356.425,302,302,299,306,1252,9716,12868,-177,21,-4
3365.261,302,301,301,306,1252,9716,12868,-177,21,-4
3367.603,302,301,302,306,1252,9716,12868,-177,21,-4
3376.298,301,302,302,305,1252,9716,12868,-177,21,-4
3378.967,302,302,303,306,1252,9716,12868,-177,21,-4
3388.757,301,302,304,306,1252,9716,12868,-177,21,-4
3388.757,301,302,305,306,1252,9716,12868,-177,21,-4
3395.92,301,302,306,306,1292,9796,12848,8,19,-46
3400.764,302,302,306,306,1292,9796,12848,8,19,-46
3407.993,302,301,306,307,1292,9796,12848,8,19,-46
3411.462,302,301,306,306,1292,9796,12848,8,19,-46
3422.427,302,301,306,306,1292,9796,12848,8,19,-46
3423.83,302,300,306,307,1292,9796,12848,8,19,-46
3423.83,302,300,307,307,1292,9796,12848,8,19,-46
3434.434,302,300,307,307,1292,9796,12848,8,19,-46
3442.999,302,300,307,306,1284,9740,12788,-121,18,-4
3447.313,302,301,308,307,1284,9740,12788,-121,18,-4
3449.103,303,300,307,307,1284,9740,12788,-121,18,-4
3456.021,303,300,307,306,1284,9740,12788,-121,18,-4
3461.894,304,300,307,306,1284,9740,12788,-121,18,-4
3466.934,304,300,307,307,1284,9740,12788,-121,18,-4
3469.531,305,301,308,306,1284,9740,12788,-121,18,-4
3478.705,306,301,307,306,1244,9680,12776,-102,41,-32
3487.582,306,301,307,307,1244,9680,12776,-102,41,-32
3489.77,306,301,308,307,1244,9680,12776,-102,41,-32
3489.77,306,300,307,306,1244,9680,12776,-102,41,-32
3500.566,308,301,308,307,1244,9680,12776,-102,41,-32
3508.615,308,301,308,307,1244,9680,12776,-102,41,-32
3510.586,309,301,307,306,1244,9680,12776,-102,41,-32
3514.534,309,301,308,306,1316,9772,12780,-108,74,2
3523.141,310,301,308,306,1316,9772,12780,-108,74,2
3523.141,310,301,308,306,1316,9772,12780,-108,74,2
3533.714,311,301,308,306,1316,9772,12780,-108,74,2
3539.59,312,300,308,305,1316,9772,12780,-108,74,2
3544.323,313,301,309,306,1316,9772,12780,-108,74,2
3554.206,314,301,310,306,1316,9772,12780,-108,74,2
3557.002,314,302,309,306,1316,9772,12780,-108,74,2
3557.002,314,301,309,306,1312,9812,12840,-72,29,12
3567.228,315,300,310,306,1312,9812,12840,-72,29,12
3567.228,315,301,310,306,1312,9812,12840,-72,29,12
3577.322,316,301,310,306,1312,9812,12840,-72,29,12
3579.797,316,300,310,306,1312,9812,12840,-72,29,12
3590.137,317,300,310,306,1312,9812,12840,-72,29,12
3590.137,318,301,310,305,1312,9812,12840,-72,29,12
3598.941,317,301,309,305,1280,9724,12764,-93,35,9
3601.195,317,301,309,305,1280,9724,12764,-93,35,9
3611.42,317,301,309,305,1280,9724,12764,-93,35,9
3611.42,317,300,309,304,1280,9724,12764,-93,35,9
3622.065,318,301,309,305,1280,9724,12764,-93,35,9
3622.065,318,300,309,305,1280,9724,12764,-93,35,9
3629.259,318,301,308,305,1280,9724,12764,-93,35,9
3634.008,318,301,308,304,1280,9724,12764,-93,35,9
3637.65,318,301,308,304,1328,9744,12736,-118,75,5
3645.223,317,301,308,305,1328,9744,12736,-118,75,5
3645.223,317,302,308,304,1328,9744,12736,-118,75,5
3656.071,316,302,308,304,1328,9744,12736,-118,75,5
3663.841,316,302,308,304,1328,9744,12736,-118,75,5
3667.035,315,302,308,304,1328,9744,12736,-118,75,5
3670.23,316,302,308,304,1328,9744,12736,-118,75,5
3678.676,314,302,307,303,1280,9692,12836,-170,38,-5
3678.676,313,303,307,304,1280,9692,12836,-170,38,-5
3689.283,313,302,307,304,1280,9692,12836,-170,38,-5
3695.952,312,302,307,302,1280,9692,12836,-170,38,-5
3700.34,312,302,306,303,1280,9692,12836,-170,38,-5
3709.561,311,301,306,303,1280,9692,12836,-170,38,-5
3711.691,310,302,306,303,1280,9692,12836,-170,38,-5
3714.771,311,302,306,303,1328,9768,12820,13,14,-3
3722.85,309,302,306,303,1328,9768,12820,13,14,-3
3726.904,309,302,306,303,1328,9768,12820,13,14,-3
3733.491,309,303,306,303,1328,9768,12820,13,14,-3
3733.491,309,303,306,303,1328,9768,12820,13,14,-3
3744.773,307,303,306,303,1328,9768,12820,13,14,-3
3748.183,308,303,306,303,1328,9768,12820,13,14,-3
3748.183,307,303,306,303,1328,9768,12820,13,14,-3
3756.891,308,303,306,303,1280,9728,12808,-117,23,-29
3765.76,307,303,306,303,1280,9728,12808,-117,23,-29
3769.492,306,303,305,303,1280,9728,12808,-117,23,-29
3778.064,306,304,304,302,1280,9728,12808,-117,23,-29
3778.064,305,303,304,303,1280,9728,12808,-117,23,-29
3789.601,306,304,304,303,1280,9728,12808,-117,23,-29
3789.601,305,303,302,303,1280,9728,12808,-117,23,-29
3798.32,305,303,301,302,1324,9736,12804,-34,-22,-47
3800.835,305,303,302,303,1324,9736,12804,-34,-22,-47
3811.494,304,304,302,303,1324,9736,12804,-34,-22,-47
3811.494,304,304,301,303,1324,9736,12804,-34,-22,-47
3822.618,304,305,302,303,1324,9736,12804,-34,-22,-47
3825.912,304,304,302,303,1324,9736,12804,-34,-22,-47
3834.399,304,305,301,303,1324,9736,12804,-34,-22,-47
3834.399,304,305,302,302,1316,9816,12776,-94,28,17
3844.885,304,304,302,303,1316,9816,12776,-94,28,17
3852.994,304,304,302,303,1316,9816,12776,-94,28,17
3855.709,303,305,302,302,1316,9816,12776,-94,28,17
3855.709,303,305,302,303,1316,9816,12776,-94,28,17
3862.921,303,305,303,304,1316,9816,12776,-94,28,17
3867.341,302,305,303,303,1316,9816,12776,-94,28,17
3875.421,303,305,302,302,1316,9816,12776,-94,28,17
3877.937,303,305,303,303,1312,9764,12860,-158,32,3
3889.425,301,304,303,303,1312,9764,12860,-158,32,3
3889.425,302,305,304,303,1312,9764,12860,-158,32,3
3889.425,301,305,304,303,1312,9764,12860,-158,32,3
3900.683,301,305,305,303,1312,9764,12860,-158,32,3
3907.94,300,305,305,304,1312,9764,12860,-158,32,3
3911.46,300,305,305,303,1312,9764,12860,-158,32,3
3922.43,301,305,305,303,1264,9688,12804,-126,-4,-3
3925.9,300,304,305,304,1264,9688,12804,-126,-4,-3
3931.171,301,305,305,304,1264,9688,12804,-126,-4,-3
3938.79,301,305,305,303,1264,9688,12804,-126,-4,-3
3943.207,300,305,305,304,1264,9688,12804,-126,-4,-3
3944.572,300,305,306,304,1264,9688,12804,-126,-4,-3
3948.426,301,305,305,304,1264,9688,12804,-126,-4,-3
3959.586,301,304,305,304,1184,9764,12812,27,20,-45
3962.929,301,304,305,304,1184,9764,12812,27,20,-45
3967.306,300,303,306,304,1184,9764,12812,27,20,-45
3974.42,301,303,305,304,1184,9764,12812,27,20,-45
3978.377,301,303,305,303,1184,9764,12812,27,20,-45
3982.046,301,304,305,304,1184,9764,12812,27,20,-45
3990.577,301,304,304,304,1184,9764,12812,27,20,-45
3990.577,301,304,304,304,1184,9764,12812,27,20,-45
4000.61,301,304,304,304,1260,9800,12844,-77,42,-16
4006.463,301,304,304,304,1260,9800,12844,-77,42,-16
4011.401,302,304,303,304,1260,9800,12844,-77,42,-16
4020.884,302,304,302,304,1260,9800,12844,-77,42,-16
4023.613,302,304,302,304,1260,9800,12844,-77,42,-16
4023.613,302,305,302,305,1260,9800,12844,-77,42,-16
4033.839,303,304,301,304,1260,9800,12844,-77,42,-16
4039.379,303,305,300,304,1324,9764,12812,-169,48,-29
4044.346,303,304,300,305,1324,9764,12812,-169,48,-29
4048.496,304,304,299,304,1324,9764,12812,-169,48,-29
4056.915,304,305,299,304,1324,9764,12812,-169,48,-29
4065.264,304,304,298,304,1324,9764,12812,-169,48,-29
4067.431,303,304,297,304,1324,9764,12812,-169,48,-29
4073.094,304,304,297,304,1324,9764,12812,-169,48,-29
4077.927,304,304,297,304,1232,9676,12860,-119,98,-41
4083.272,304,305,297,304,1232,9676,12860,-119,98,-41
4089.069,304,305,297,304,1232,9676,12860,-119,98,-41
4091.798,305,305,296,304,1232,9676,12860,-119,98,-41
4100.876,304,304,296,304,1232,9676,12860,-119,98,-41
4109.791,304,304,296,304,1232,9676,12860,-119,98,-41
4112.844,304,304,295,304,1232,9676,12860,-119,98,-41
4117.486,304,304,294,304,1264,9780,12764,40,25,-53
4122.157,304,304,295,305,1264,9780,12764,40,25,-53
4128.499,305,304,295,305,1264,9780,12764,40,25,-53
4134.106,305,304,294,304,1264,9780,12764,40,25,-53
4136.723,306,304,294,304,1264,9780,12764,40,25,-53
4144.987,304,304,294,304,1264,9780,12764,40,25,-53
4144.987,305,304,293,304,1264,9780,12764,40,25,-53
4156.021,304,304,293,304,1264,9780,12764,40,25,-53
4164.996,305,304,294,305,1200,9692,12808,-171,10,-6
4167.117,304,304,294,305,1200,9692,12808,-171,10,-6
4176.053,305,305,294,304,1200,9692,12808,-171,10,-6
4178.133,305,304,294,304,1200,9692,12808,-171,10,-6
4178.133,306,304,295,305,1200,9692,12808,-171,10,-6
4189.015,305,305,296,305,1200,9692,12808,-171,10,-6
4189.015,305,304,295,305,1200,9692,12808,-171,10,-6
4199.602,305,305,296,304,1252,9784,12836,-84,77,-54
4202.205,305,305,297,305,1252,9784,12836,-84,77,-54
4211.553,305,304,296,305,1252,9784,12836,-84,77,-54
4211.553,305,304,296,304,1252,9784,12836,-84,77,-54
4222.649,305,304,297,305,1252,9784,12836,-84,77,-54
4227.759,306,303,296,305,1252,9784,12836,-84,77,-54
4233.272,305,303,296,304,1252,9784,12836,-84,77,-54
4235.398,305,304,297,304,1228,9636,12788,-91,1,-20
4244.846,306,304,298,305,1228,9636,12788,-91,1,-20
4244.846,305,304,298,305,1228,9636,12788,-91,1,-20
4255.882,306,304,298,305,1228,9636,12788,-91,1,-20
4260.374,305,304,298,305,1228,9636,12788,-91,1,-20
4266.388,305,304,299,306,1228,9636,12788,-91,1,-20
4271.226,305,304,299,305,1228,9636,12788,-91,1,-20
4278.369,306,304,300,304,1228,9636,12788,-91,1,-20
4278.369,305,304,300,305,1252,9784,12876,41,17,-22
4289.899,305,304,300,305,1252,9784,12876,41,17,-22
4292.145,305,304,300,304,1252,9784,12876,41,17,-22
4292.145,305,304,300,304,1252,9784,12876,41,17,-22
4301.224,305,303,300,305,1252,9784,12876,41,17,-22
4309.668,305,304,300,305,1252,9784,12876,41,17,-22
4312.169,305,304,300,305,1252,9784,12876,41,17,-22
4318.739,306,304,298,306,1324,9740,12836,-159,38,-35
4322.791,305,304,300,306,1324,9740,12836,-159,38,-35
4329.958,304,304,300,306,1324,9740,12836,-159,38,-35
4334.075,304,304,300,305,1324,9740,12836,-159,38,-35
4344.55,305,304,300,305,1324,9740,12836,-159,38,-35
4344.55,305,304,301,306,1324,9740,12836,-159,38,-35
4355.395,306,304,301,305,1324,9740,12836,-159,38,-35
4355.395,305,304,302,305,1296,9752,12816,-81,5,-38
4363.236,305,304,301,306,1296,9752,12816,-81,5,-38
4366.945,304,304,301,305,1296,9752,12816,-81,5,-38
4374.959,304,304,301,305,1296,9752,12816,-81,5,-38
4378.134,304,304,301,305,1296,9752,12816,-81,5,-38
4389.214,304,304,301,306,1296,9752,12816,-81,5,-38
4389.903,304,304,299,305,1296,9752,12816,-81,5,-38
4398.368,305,305,300,304,1296,9752,12816,-81,5,-38
4400.932,305,305,300,305,1280,9688,12792,-83,12,8
4409.377,304,304,301,305,1280,9688,12792,-83,12,8
4411.747,304,304,301,305,1280,9688,12792,-83,12,8
4416.109,304,304,301,305,1280,9688,12792,-83,12,8
4421.943,303,304,301,306,1280,9688,12792,-83,12,8
4427.804,303,305,302,305,1280,9688,12792,-83,12,8
4433.428,304,305,302,305,1280,9688,12792,-83,12,8
4436.034,303,304,302,305,1288,9784,12896,-77,53,-24
4445.781,304,304,302,305,1288,9784,12896,-77,53,-24
4445.781,303,304,302,304,1288,9784,12896,-77,53,-24
4456.074,303,304,302,304,1288,9784,12896,-77,53,-24
4456.074,303,304,302,304,1288,9784,12896,-77,53,-24
4467.525,303,305,303,304,1288,9784,12896,-77,53,-24
4470.87,303,304,303,304,1288,9784,12896,-77,53,-24
4478.161,303,304,303,304,1288,9784,12896,-77,53,-24
4478.161,303,304,303,304,1260,9744,12904,-157,47,-28
4489.715,304,304,303,304,1260,9744,12904,-157,47,-28
4489.715,304,304,303,304,1260,9744,12904,-157,47,-28
4500.55,303,304,303,304,1260,9744,12904,-157,47,-28
4508.668,303,304,303,305,1260,9744,12904,-157,47,-28
4511.417,303,304,303,304,1260,9744,12904,-157,47,-28
4520.47,304,304,303,304,1260,9744,12904,-157,47,-28
4522.798,304,304,303,305,1280,9692,12840,-39,27,-25
4525.291,303,304,303,304,1280,9692,12840,-39,27,-25
4533.375,304,304,303,304,1280,9692,12840,-39,27,-25
4538.015,303,304,303,304,1280,9692,12840,-39,27,-25
4544.335,303,304,303,305,1280,9692,12840,-39,27,-25
4544.335,303,305,302,304,1280,9692,12840,-39,27,-25
4556.1,304,305,302,304,1280,9692,12840,-39,27,-25
4556.1,304,305,302,304,1256,9696,12800,-101,8,-36
4566.979,304,304,301,304,1256,9696,12800,-101,8,-36
4571.606,305,305,302,304,1256,9696,12800,-101,8,-36
4577.875,304,305,302,304,1256,9696,12800,-101,8,-36
4577.875,304,305,303,305,1256,9696,12800,-101,8,-36
4589.231,304,305,304,305,1256,9696,12800,-101,8,-36
4589.231,304,305,303,304,1256,9696,12800,-101,8,-36
4600.872,304,305,304,305,1344,9752,12788,-120,22,12
4600.872,304,305,304,305,1344,9752,12788,-120,22,12
4611.447,304,305,303,304,1344,9752,12788,-120,22,12
4615.507,305,305,304,304,1344,9752,12788,-120,22,12
4623.281,304,305,304,305,1344,9752,12788,-120,22,12
4623.281,304,305,304,305,1344,9752,12788,-120,22,12
4633.722,305,305,303,304,1344,9752,12788,-120,22,12
4633.722,304,305,303,304,1344,9752,12788,-120,22,12
4644.954,304,305,303,305,1236,9768,12848,-92,17,-30
4644.954,304,305,302,304,1236,9768,12848,-92,17,-30
4653.912,304,305,302,303,1236,9768,12848,-92,17,-30
4660.294,305,305,302,305,1236,9768,12848,-92,17,-30
4667.551,304,305,303,305,1236,9768,12848,-92,17,-30
4667.551,304,306,303,304,1236,9768,12848,-92,17,-30
4678.34,303,305,303,304,1236,9768,12848,-92,17,-30
4681.842,304,305,304,305,1256,9740,12880,-83,47,-24
4681.842,304,305,304,305,1256,9740,12880,-83,47,-24
4690.38,304,304,303,304,1256,9740,12880,-83,47,-24
4700.45,304,305,304,305,1256,9740,12880,-83,47,-24
4700.45,304,305,305,305,1256,9740,12880,-83,47,-24
4711.293,304,305,304,304,1256,9740,12880,-83,47,-24
4711.293,304,305,304,304,1256,9740,12880,-83,47,-24
4718.888,304,305,303,304,1200,9712,12828,-97,25,-17
4722.693,304,305,304,304,1200,9712,12828,-97,25,-17
4733.595,304,305,303,304,1200,9712,12828,-97,25,-17
4733.595,304,305,303,304,1200,9712,12828,-97,25,-17
4745.327,304,305,303,305,1200,9712,12828,-97,25,-17
4745.327,304,305,303,305,1200,9712,12828,-97,25,-17
4756.163,304,305,303,304,1200,9712,12828,-97,25,-17
4759.586,304,305,303,304,1284,9800,12828,-92,68,-35
4766.6,304,305,303,305,1284,9800,12828,-92,68,-35
4770.328,304,304,302,304,1284,9800,12828,-92,68,-35
4778.133,304,304,302,304,1284,9800,12828,-92,68,-35
4778.133,304,304,302,305,1284,9800,12828,-92,68,-35
4789.586,304,304,302,305,1284,9800,12828,-92,68,-35
4792.819,305,304,302,304,1284,9800,12828,-92,68,-35
4792.819,304,304,301,304,1284,9800,12828,-92,68,-35
4801.903,304,304,301,305,1280,9744,12820,-46,21,-36
4811.526,304,305,301,305,1280,9744,12820,-46,21,-36
4811.526,304,304,300,304,1280,9744,12820,-46,21,-36
4822.506,304,304,300,304,1280,9744,12820,-46,21,-36
4825.522,305,304,301,305,1280,9744,12820,-46,21,-36
4825.522,305,304,301,304,1280,9744,12820,-46,21,-36
4834.848,304,305,301,304,1280,9744,12820,-46,21,-36
4841.854,304,304,301,305,1264,9732,12852,-88,11,12
4844.819,305,304,302,305,1264,9732,12852,-88,11,12
4856.04,305,304,302,304,1264,9732,12852,-88,11,12
4856.657,305,305,302,305,1264,9732,12852,-88,11,12
4864.994,305,304,303,305,1264,9732,12852,-88,11,12
4867.906,305,304,303,305,1264,9732,12852,-88,11,12
4874.544,305,304,302,304,1264,9732,12852,-88,11,12
4878.235,304,305,303,305,1260,9684,12732,-105,28,-28
4883.144,304,305,303,305,1260,9684,12732,-105,28,-28
4890.387,305,305,302,305,1260,9684,12732,-105,28,-28
4890.387,305,304,302,305,1260,9684,12732,-105,28,-28
4900.803,304,304,303,305,1260,9684,12732,-105,28,-28
4907.33,305,304,302,305,1260,9684,12732,-105,28,-28
4911.674,305,304,302,305,1260,9684,12732,-105,28,-28
4920.196,305,304,302,305,1260,9684,12732,-105,28,-28
4922.765,304,304,302,305,1328,9744,12796,-16,-1,-17
4933.365,304,304,302,305,1328,9744,12796,-16,-1,-17
4933.365,304,304,302,305,1328,9744,12796,-16,-1,-17
4940.315,304,304,302,306,1328,9744,12796,-16,-1,-17
4945.043,305,304,301,305,1328,9744,12796,-16,-1,-17
4951.894,305,304,300,305,1328,9744,12796,-16,-1,-17
4956.352,305,304,300,305,1328,9744,12796,-16,-1,-17
4967.038,305,304,301,305,1276,9748,12844,-96,44,-28
4968.169,305,304,300,305,1276,9748,12844,-96,44,-28
4976.189,305,304,299,304,1276,9748,12844,-96,44,-28
4982.972,305,304,299,305,1276,9748,12844,-96,44,-28
4984.954,305,304,300,305,1276,9748,12844,-96,44,-28
4989.636,306,304,300,304,1276,9748,12844,-96,44,-28
4993.385,306,305,300,304,1276,9748,12844,-96,44,-28
5001.278,305,304,300,305,1300,9748,12800,-97,38,-29
5009.413,304,305,299,305,1300,9748,12800,-97,38,-29
5011.441,305,305,299,305,1300,9748,12800,-97,38,-29
5017.935,304,305,299,305,1300,9748,12800,-97,38,-29
5022.721,304,305,299,305,1300,9748,12800,-97,38,-29
5032.048,304,305,299,304,1300,9748,12800,-97,38,-29
5034.337,305,305,298,305,1300,9748,12800,-97,38,-29
5038.025,305,305,297,305,1248,9720,12748,-89,7,-43
5044.815,305,305,297,305,1248,9720,12748,-89,7,-43
5051.059,305,305,297,304,1248,9720,12748,-89,7,-43
5055.967,305,305,299,304,1248,9720,12748,-89,7,-43
5059.232,305,305,298,305,1248,9720,12748,-89,7,-43
5067.294,305,305,298,305,1248,9720,12748,-89,7,-43
5067.294,305,305,297,304,1248,9720,12748,-89,7,-43
5078.118,305,305,297,305,1248,9720,12748,-89,7,-43
5083.63,305,305,298,305,1296,9764,12840,-49,5,-19
5088.441,305,305,297,305,1296,9764,12840,-49,5,-19
5088.441,305,306,297,305,1296,9764,12840,-49,5,-19
5100.733,305,306,297,305,1296,9764,12840,-49,5,-19
5100.733,306,305,297,305,1296,9764,12840,-49,5,-19
5111.547,306,305,297,305,1296,9764,12840,-49,5,-19
5117.302,306,305,296,304,1296,9764,12840,-49,5,-19
5122.506,306,305,297,305,1308,9784,12768,-80,23,-38
5124.438,306,305,296,304,1308,9784,12768,-80,23,-38
5133.626,306,305,296,304,1308,9784,12768,-80,23,-38
5133.626,306,305,296,305,1308,9784,12768,-80,23,-38
5145.18,306,305,295,306,1308,9784,12768,-80,23,-38
5145.18,306,305,296,305,1308,9784,12768,-80,23,-38
5153.103,306,306,297,305,1308,9784,12768,-80,23,-38
5156.038,306,305,297,305,1208,9696,12840,-195,43,-7
5166.905,306,305,298,305,1208,9696,12840,-195,43,-7
5166.905,306,305,298,304,1208,9696,12840,-195,43,-7
5178.44,306,305,299,305,1208,9696,12840,-195,43,-7
5181.888,306,305,299,306,1208,9696,12840,-195,43,-7
5181.888,306,305,299,305,1208,9696,12840,-195,43,-7
5189.005,306,305,298,305,1208,9696,12840,-195,43,-7
5200.45,306,305,299,305,1208,9696,12840,-195,43,-7
5200.45,306,305,299,306,1264,9724,12812,-91,41,-55
5211.474,306,305,298,304,1264,9724,12812,-91,41,-55
5211.474,306,305,298,305,1264,9724,12812,-91,41,-55
5223.268,306,304,299,305,1264,9724,12812,-91,41,-55
5223.268,305,305,300,306,1264,9724,12812,-91,41,-55
5230.972,306,305,300,305,1264,9724,12812,-91,41,-55
5233.797,305,305,301,305,1264,9724,12812,-91,41,-55
5244.823,305,304,301,306,1296,9640,12832,-48,33,-43
5244.823,306,305,301,305,1296,9640,12832,-48,33,-43
5256.218,306,304,301,305,1296,9640,12832,-48,33,-43
5256.218,305,304,301,305,1296,9640,12832,-48,33,-43
5263.957,305,304,302,305,1296,9640,12832,-48,33,-43
5269.827,306,306,301,305,1296,9640,12832,-48,33,-43
5275.344,305,304,301,305,1296,9640,12832,-48,33,-43
5278.641,304,304,302,305,1300,9732,12808,-72,5,-40
5290.508,304,304,301,305,1300,9732,12808,-72,5,-40
5293.92,305,304,300,304,1300,9732,12808,-72,5,-40
5299.143,305,304,302,306,1300,9732,12808,-72,5,-40
5306.658,304,304,301,305,1300,9732,12808,-72,5,-40
5310.404,305,304,301,304,1300,9732,12808,-72,5,-40
5312.6,304,304,302,305,1300,9732,12808,-72,5,-40
5322.328,304,304,303,305,1300,9732,12808,-72,5,-40
5322.328,304,304,303,306,1208,9676,12792,-150,32,-7
5329.157,304,305,303,305,1208,9676,12792,-150,32,-7
5333.898,304,304,303,305,1208,9676,12792,-150,32,-7
5341.588,304,304,303,305,1208,9676,12792,-150,32,-7
5344.714,304,304,303,305,1208,9676,12792,-150,32,-7
5349.786,304,305,303,304,1208,9676,12792,-150,32,-7
5356.279,304,304,303,305,1208,9676,12792,-150,32,-7
5365.064,304,304,302,305,1280,9740,12812,-103,64,-24
5366.86,304,304,302,305,1280,9740,12812,-103,64,-24
5374.262,305,304,302,304,1280,9740,12812,-103,64,-24
5378.208,304,304,303,305,1280,9740,12812,-103,64,-24
5383.013,305,303,302,305,1280,9740,12812,-103,64,-24
5389.976,304,304,302,305,1280,9740,12812,-103,64,-24
5400.344,304,304,303,305,1280,9740,12812,-103,64,-24
5400.344,304,304,303,305,1236,9740,12832,-91,18,-14
5406.852,304,304,303,305,1236,9740,12832,-91,18,-14
5411.579,305,304,303,304,1236,9740,12832,-91,18,-14
5420.704,305,304,303,305,1236,9740,12832,-91,18,-14
5422.461,305,304,302,306,1236,9740,12832,-91,18,-14
5433.381,305,304,303,305,1236,9740,12832,-91,18,-14
5433.381,304,304,302,305,1236,9740,12832,-91,18,-14
5440.118,304,304,303,305,1292,9684,12760,-130,7,-35
5445.012,304,304,302,305,1292,9684,12760,-130,7,-35
5451.518,305,303,301,304,1292,9684,12760,-130,7,-35
5456.316,305,303,302,305,1292,9684,12760,-130,7,-35
5466.671,304,304,302,306,1292,9684,12760,-130,7,-35
5468.006,305,303,302,305,1292,9684,12760,-130,7,-35
5468.006,304,304,302,305,1292,9684,12760,-130,7,-35
5478.276,304,303,303,305,1292,9684,12760,-130,7,-35
5487.157,304,304,303,305,1260,9708,12832,-125,-25,-19
5492.903,304,304,303,304,1260,9708,12832,-125,-25,-19
5497.129,304,304,303,305,1260,9708,12832,-125,-25,-19
5500.307,304,303,303,305,1260,9708,12832,-125,-25,-19
5511.346,304,304,303,305,1260,9708,12832,-125,-25,-19
5511.346,304,303,303,305,1260,9708,12832,-125,-25,-19
5522.658,304,303,303,306,1260,9708,12832,-125,-25,-19
5525.767,303,304,303,306,1240,9652,12784,-170,-25,-67
5525.767,303,304,303,305,1240,9652,12784,-170,-25,-67
5535.291,303,303,302,305,1240,9652,12784,-170,-25,-67
5544.721,301,303,303,305,1240,9652,12784,-170,-25,-67
5552.941,302,303,303,305,1240,9652,12784,-170,-25,-67
5556.217,301,302,302,304,1240,9652,12784,-170,-25,-67
5556.217,300,303,303,305,1240,9652,12784,-170,-25,-67
5567.148,299,303,304,305,1220,9760,12756,-41,-9,-23
5570.663,299,303,303,305,1220,9760,12756,-41,-9,-23
5578.183,298,303,304,305,1220,9760,12756,-41,-9,-23
5582.195,298,303,304,305,1220,9760,12756,-41,-9,-23
5589.194,299,303,304,304,1220,9760,12756,-41,-9,-23
5589.194,298,303,303,304,1220,9760,12756,-41,-9,-23
5600.234,298,303,304,305,1220,9760,12756,-41,-9,-23
5600.234,298,303,304,305,1320,9732,12836,-204,33,-9
5611.515,297,303,304,304,1320,9732,12836,-204,33,-9
5616.112,296,303,303,304,1320,9732,12836,-204,33,-9
5622.244,296,303,303,305,1320,9732,12836,-204,33,-9
5623.846,296,303,303,305,1320,9732,12836,-204,33,-9
5633.875,296,303,303,304,1320,9732,12836,-204,33,-9
5633.875,296,303,304,305,1320,9732,12836,-204,33,-9
5644.951,296,303,304,305,1224,9652,12836,-212,72,-52
5644.951,296,303,303,304,1224,9652,12836,-212,72,-52
5652.236,296,304,304,304,1224,9652,12836,-212,72,-52
5656.244,296,303,304,305,1224,9652,12836,-212,72,-52
5667.167,296,303,304,305,1224,9652,12836,-212,72,-52
5675.27,296,303,304,304,1224,9652,12836,-212,72,-52
5678.542,296,303,304,305,1224,9652,12836,-212,72,-52
5681.015,295,303,303,305,1256,9792,12840,-220,-3,-84
5688.984,295,303,302,304,1256,9792,12840,-220,-3,-84
5692.867,294,303,302,303,1256,9792,12840,-220,-3,-84
5692.867,293,303,303,304,1256,9792,12840,-220,-3,-84
5701.487,294,304,302,304,1256,9792,12840,-220,-3,-84
5711.651,293,302,301,303,1256,9792,12840,-220,-3,-84
5720.824,292,302,301,304,1256,9792,12840,-220,-3,-84
5722.824,293,303,302,304,1272,9784,12900,-65,-32,-103
5722.824,293,303,301,303,1272,9784,12900,-65,-32,-103
5733.629,292,304,301,303,1272,9784,12900,-65,-32,-103
5738.669,291,304,301,304,1272,9784,12900,-65,-32,-103
5744.397,292,303,301,303,1272,9784,12900,-65,-32,-103
5751.131,292,304,301,303,1272,9784,12900,-65,-32,-103
5756.194,293,304,301,303,1272,9784,12900,-65,-32,-103
5758.91,294,303,301,304,1240,9688,12808,-137,-57,-28
5766.927,294,303,301,303,1240,9688,12808,-137,-57,-28
5778.155,296,303,301,303,1240,9688,12808,-137,-57,-28
5778.155,295,303,302,304,1240,9688,12808,-137,-57,-28
5784.282,296,303,302,304,1240,9688,12808,-137,-57,-28
5789.021,296,301,301,304,1240,9688,12808,-137,-57,-28
5795.639,297,302,302,304,1240,9688,12808,-137,-57,-28
5801.021,298,302,303,304,1228,9580,12864,-162,-29,11
5810.917,300,303,304,303,1228,9580,12864,-162,-29,11
5811.339,301,304,304,304,1228,9580,12864,-162,-29,11
5822.163,301,304,305,304,1228,9580,12864,-162,-29,11
5822.163,303,304,306,303,1228,9580,12864,-162,-29,11
5833.778,304,305,307,302,1228,9580,12864,-162,-29,11
5836.876,305,305,308,302,1228,9580,12864,-162,-29,11
5836.876,306,305,309,302,1208,9668,12732,-98,27,-115
5846.316,309,304,309,301,1208,9668,12732,-98,27,-115
5855.993,310,304,308,302,1208,9668,12732,-98,27,-115
5855.993,310,304,311,304,1208,9668,12732,-98,27,-115
5866.864,312,304,312,304,1208,9668,12732,-98,27,-115
5869.497,314,304,313,304,1208,9668,12732,-98,27,-115
5879.131,316,304,315,305,1208,9668,12732,-98,27,-115
5879.131,319,305,316,306,1428,9672,12840,-297,-107,-189
5885.961,322,306,317,306,1428,9672,12840,-297,-107,-189
5889.417,326,306,318,306,1428,9672,12840,-297,-107,-189
5900.399,328,306,319,307,1428,9672,12840,-297,-107,-189
5908.776,331,306,320,306,1428,9672,12840,-297,-107,-189
5911.23,333,306,320,306,1428,9672,12840,-297,-107,-189
5920.28,336,305,320,308,1428,9672,12840,-297,-107,-189
5922.834,338,306,321,308,924,9592,13084,-926,34,-277
5933.452,343,308,321,308,924,9592,13084,-926,34,-277
5933.452,347,311,321,309,924,9592,13084,-926,34,-277
5939.885,353,312,322,310,924,9592,13084,-926,34,-277
5945.131,359,314,323,309,924,9592,13084,-926,34,-277
5951.257,365,316,322,308,924,9592,13084,-926,34,-277
5956.253,370,317,323,309,924,9592,13084,-926,34,-277
5966.866,376,318,323,310,1372,9384,13020,-810,78,-74
5967.96,381,319,322,311,1372,9384,13020,-810,78,-74
5978.489,385,319,321,310,1372,9384,13020,-810,78,-74
5978.489,387,318,321,311,1372,9384,13020,-810,78,-74
5987.336,389,317,319,310,1372,9384,13020,-810,78,-74
5992.117,389,317,318,310,1372,9384,13020,-810,78,-74
5999.337,389,317,316,310,1372,9384,13020,-810,78,-74
6002.552,388,318,316,310,1140,9432,13060,-498,126,-59
6011.62,387,318,315,310,1140,9432,13060,-498,126,-59
6011.62,386,318,314,310,1140,9432,13060,-498,126,-59
6022.257,383,317,313,310,1140,9432,13060,-498,126,-59
6022.257,381,316,312,309,1140,9432,13060,-498,126,-59
6033.72,378,316,311,309,1140,9432,13060,-498,126,-59
6037.541,375,315,310,309,1140,9432,13060,-498,126,-59
6044.527,372,315,309,309,1180,9540,12984,141,91,-61
6044.527,370,313,306,307,1180,9540,12984,141,91,-61
6055.639,367,312,305,308,1180,9540,12984,141,91,-61
6055.639,365,311,305,308,1180,9540,12984,141,91,-61
6067.067,363,309,304,308,1180,9540,12984,141,91,-61
6067.067,361,308,303,307,1180,9540,12984,141,91,-61
6075.775,358,307,302,307,1180,9540,12984,141,91,-61
6077.973,355,306,301,308,1180,9540,12984,141,91,-61
6089.149,352,305,300,307,1264,9404,12964,-300,164,-5
6097.228,350,304,299,307,1264,9404,12964,-300,164,-5
6100.657,348,303,299,307,1264,9404,12964,-300,164,-5
6103.033,347,302,299,307,1264,9404,12964,-300,164,-5
6112.261,345,301,297,306,1264,9404,12964,-300,164,-5
6112.261,343,300,296,306,1264,9404,12964,-300,164,-5
6119.635,342,300,297,307,1264,9404,12964,-300,164,-5
6123.003,342,300,296,306,1108,9696,13028,-62,154,-99
6133.376,343,299,296,306,1108,9696,13028,-62,154,-99
6142.438,343,299,296,305,1108,9696,13028,-62,154,-99
6144.781,345,300,296,305,1108,9696,13028,-62,154,-99
6148.005,346,300,296,305,1108,9696,13028,-62,154,-99
6155.87,347,299,296,305,1108,9696,13028,-62,154,-99
6160.193,348,299,296,304,1108,9696,13028,-62,154,-99
6167.277,348,300,296,305,1140,9084,13212,-501,261,-122
6168.802,348,301,296,306,1140,9084,13212,-501,261,-122
6178.506,348,300,296,307,1140,9084,13212,-501,261,-122
6187.185,348,299,297,306,1140,9084,13212,-501,261,-122
6189.217,348,298,296,305,1140,9084,13212,-501,261,-122
6193.205,347,299,297,306,1140,9084,13212,-501,261,-122
6200.447,346,300,298,306,1140,9084,13212,-501,261,-122
6206.237,345,301,299,306,1156,9760,13196,385,455,-246
6211.279,344,302,300,306,1156,9760,13196,385,455,-246
6217.386,343,303,301,306,1156,9760,13196,385,455,-246
6223.196,342,304,303,306,1156,9760,13196,385,455,-246
6230.528,344,304,304,306,1156,9760,13196,385,455,-246
6233.561,341,304,305,305,1156,9760,13196,385,455,-246
6244.682,342,304,307,304,1156,9760,13196,385,455,-246
6244.682,340,305,307,303,1248,9864,13528,93,850,-464
6256.003,338,304,308,303,1248,9864,13528,93,850,-464
6256.003,335,304,308,303,1248,9864,13528,93,850,-464
6263.111,332,304,308,302,1248,9864,13528,93,850,-464
6269.936,329,304,307,301,1248,9864,13528,93,850,-464
6276.119,325,303,308,301,1248,9864,13528,93,850,-464
6278.66,322,303,309,301,1248,9864,13528,93,850,-464
6289.493,316,303,309,300,1468,10648,14936,1071,1624,-1602
6298.374,309,303,309,299,1468,10648,14936,1071,1624,-1602
6300.408,303,303,309,299,1468,10648,14936,1071,1624,-1602
6309.381,297,304,308,297,1468,10648,14936,1071,1624,-1602
6311.573,291,304,306,295,1468,10648,14936,1071,1624,-1602
6322.257,287,305,304,294,1468,10648,14936,1071,1624,-1602
6322.257,281,307,302,293,972,13596,16024,4056,3782,-4448
6334.057,278,307,299,291,972,13596,16024,4056,3782,-4448
6336.659,277,308,297,292,972,13596,16024,4056,3782,-4448
6345.304,277,310,294,291,972,13596,16024,4056,3782,-4448
6345.304,280,315,291,289,972,13596,16024,4056,3782,-4448
6356.1,284,321,289,288,972,13596,16024,4056,3782,-4448
6361.71,288,327,284,288,972,13596,16024,4056,3782,-4448
6367.244,292,331,278,287,-48,14840,15528,5634,6836,-5729
6373.107,301,335,269,288,-48,14840,15528,5634,6836,-5729
6378.436,311,341,256,289,-48,14840,15528,5634,6836,-5729
6385.729,323,351,244,289,-48,14840,15528,5634,6836,-5729
6389.135,333,365,235,289,-48,14840,15528,5634,6836,-5729
6400.306,344,388,231,287,-48,14840,15528,5634,6836,-5729
6408.391,357,423,235,289,92,12432,13680,4981,7543,-8717
6411.356,389,481,249,293,92,12432,13680,4981,7543,-8717
6413.88,416,528,260,297,92,12432,13680,4981,7543,-8717
6422.668,442,582,263,302,92,12432,13680,4981,7543,-8717
6431.839,466,634,239,304,92,12432,13680,4981,7543,-8717
6433.741,484,684,203,308,92,12432,13680,4981,7543,-8717
6444.378,487,730,176,312,92,12432,13680,4981,7543,-8717
6444.378,481,767,161,316,-388,13460,12828,2204,8203,-10709
6455.786,471,795,139,322,-388,13460,12828,2204,8203,-10709
6459.535,459,803,104,328,-388,13460,12828,2204,8203,-10709
6467.095,443,817,99,333,-388,13460,12828,2204,8203,-10709
6467.095,415,813,118,339,-388,13460,12828,2204,8203,-10709
6476.15,381,796,134,346,-388,13460,12828,2204,8203,-10709
6484.15,343,776,145,354,-1588,12104,12764,4553,8600,-12695
6487.529,315,745,152,363,-1588,12104,12764,4553,8600,-12695
6498.523,299,716,158,375,-1588,12104,12764,4553,8600,-12695
6507.13,279,675,164,389,-1588,12104,12764,4553,8600,-12695
6514.534,262,638,170,404,-1588,12104,12764,4553,8600,-12695
6514.534,235,598,178,425,-1588,12104,12764,4553,8600,-12695
6521.067,212,568,184,441,-2984,11344,11288,4347,9072,-13155
6533.312,193,536,191,458,-2984,11344,11288,4347,9072,-13155
6537.54,180,512,197,473,-2984,11344,11288,4347,9072,-13155
6543.518,171,488,207,490,-2984,11344,11288,4347,9072,-13155
6549.659,160,480,212,501,-2984,11344,11288,4347,9072,-13155
6554.486,145,481,219,513,-2984,11344,11288,4347,9072,-13155
6566.97,127,477,225,525,-2984,11344,11288,4347,9072,-13155
6569.148,100,467,234,534,-4888,10612,11588,3515,9072,-13954
6577.437,77,451,239,545,-4888,10612,11588,3515,9072,-13954
6581.721,63,438,240,554,-4888,10612,11588,3515,9072,-13954
6587.842,53,426,241,566,-4888,10612,11588,3515,9072,-13954
6595.163,44,415,239,577,-4888,10612,11588,3515,9072,-13954
6599.492,34,403,230,595,-4888,10612,11588,3515,9072,-13954
6610.75,26,399,219,611,-6012,9352,10132,1197,9585,-13559
6611.555,12,400,206,629,-6012,9352,10132,1197,9585,-13559
6621.77,0,403,194,644,-6012,9352,10132,1197,9585,-13559
6627.455,0,404,181,661,-6012,9352,10132,1197,9585,-13559
6632.374,0,401,169,677,-6012,9352,10132,1197,9585,-13559
6642.862,0,392,157,694,-6012,9352,10132,1197,9585,-13559
6646.682,0,381,143,708,-6936,10832,10764,1587,9929,-13663
6654.401,0,362,125,719,-6936,10832,10764,1587,9929,-13663
6662.544,0,343,113,730,-6936,10832,10764,1587,9929,-13663
6666.878,0,322,101,738,-6936,10832,10764,1587,9929,-13663
6671.244,0,300,90,745,-6936,10832,10764,1587,9929,-13663
6677.194,0,276,83,750,-6936,10832,10764,1587,9929,-13663
6686.111,0,255,76,756,-6936,10832,10764,1587,9929,-13663
6688.364,0,231,68,765,-8512,7636,8268,770,9817,-12728
6692.998,0,209,59,774,-8512,7636,8268,770,9817,-12728
6698.828,0,190,53,780,-8512,7636,8268,770,9817,-12728
6705.512,3,166,46,786,-8512,7636,8268,770,9817,-12728
6710.002,9,143,36,791,-8512,7636,8268,770,9817,-12728
6717.094,18,126,30,796,-8512,7636,8268,770,9817,-12728
6722.767,37,104,25,799,-8512,7636,8268,770,9817,-12728
6732.042,62,83,19,797,-9196,7308,7692,-851,9701,-10570
6732.042,93,59,10,790,-9196,7308,7692,-851,9701,-10570
6744.082,118,45,7,782,-9196,7308,7692,-851,9701,-10570
6744.082,151,34,1,770,-9196,7308,7692,-851,9701,-10570
6755.372,182,28,0,760,-9196,7308,7692,-851,9701,-10570
6758.589,208,28,0,755,-9196,7308,7692,-851,9701,-10570
6767.031,236,33,0,751,-9920,6392,7744,459,9123,-10047
6771.026,269,44,0,747,-9920,6392,7744,459,9123,-10047
6776.739,293,54,3,743,-9920,6392,7744,459,9123,-10047
6776.739,319,64,7,735,-9920,6392,7744,459,9123,-10047
6788.361,344,73,8,723,-9920,6392,7744,459,9123,-10047
6796.82,372,81,7,703,-9920,6392,7744,459,9123,-10047
6799.8,403,88,19,688,-9920,6392,7744,459,9123,-10047
6799.8,435,96,30,667,-11064,4492,5736,134,8076,-8000
6810.081,465,99,43,644,-11064,4492,5736,134,8076,-8000
6815.546,484,102,54,622,-11064,4492,5736,134,8076,-8000
6821.15,504,106,71,596,-11064,4492,5736,134,8076,-8000
6828.193,519,108,90,572,-11064,4492,5736,134,8076,-8000
6832.99,530,107,111,547,-11064,4492,5736,134,8076,-8000
6840.385,540,108,136,518,-11064,4492,5736,134,8076,-8000
6844.247,547,109,160,492,-12956,4844,5780,536,6167,-6076
6855.394,552,109,182,463,-12956,4844,5780,536,6167,-6076
6863.55,553,110,203,436,-12956,4844,5780,536,6167,-6076
6867.149,552,111,223,408,-12956,4844,5780,536,6167,-6076
6868.817,548,111,242,381,-12956,4844,5780,536,6167,-6076
6877.11,542,110,260,354,-12956,4844,5780,536,6167,-6076
6887.411,538,110,274,329,-12956,4844,5780,536,6167,-6076
6889.035,530,112,286,305,-13468,4472,5280,110,4267,-4299
6899.011,526,115,295,285,-13468,4472,5280,110,4267,-4299
6899.011,521,117,303,266,-13468,4472,5280,110,4267,-4299
6911.406,516,117,308,249,-13468,4472,5280,110,4267,-4299
6914.415,510,117,315,233,-13468,4472,5280,110,4267,-4299
6921.884,501,118,320,219,-13468,4472,5280,110,4267,-4299
6925.914,492,117,327,205,-13744,4892,4816,775,3221,-2927
6932.217,481,115,332,189,-13744,4892,4816,775,3221,-2927
6938.7,471,113,336,176,-13744,4892,4816,775,3221,-2927
6943.774,462,110,338,164,-13744,4892,4816,775,3221,-2927
6950.847,453,108,342,152,-13744,4892,4816,775,3221,-2927
6955.86,445,104,347,140,-13744,4892,4816,775,3221,-2927
6965.673,440,100,349,128,-13744,4892,4816,775,3221,-2927
6967.354,434,98,354,117,-14188,4692,4580,254,1708,-1564
6977.341,429,94,358,104,-14188,4692,4580,254,1708,-1564
6985.69,425,92,361,94,-14188,4692,4580,254,1708,-1564
6988.711,422,89,363,83,-14188,4692,4580,254,1708,-1564
6992.547,418,90,367,74,-14188,4692,4580,254,1708,-1564
6999.093,418,91,370,62,-14188,4692,4580,254,1708,-1564
7004.292,416,93,373,53,-14296,5440,5180,-51,914,-1158
7010.111,414,96,378,43,-14296,5440,5180,-51,914,-1158
7019.172,415,99,382,36,-14296,5440,5180,-51,914,-1158
7022.309,414,104,387,27,-14296,5440,5180,-51,914,-1158
7028.736,414,109,390,19,-14296,5440,5180,-51,914,-1158
7032.924,414,116,395,11,-14296,5440,5180,-51,914,-1158
7037.4,413,122,400,3,-14296,5440,5180,-51,914,-1158
7045.886,413,127,405,0,-14188,5904,5344,204,727,-751
7054.544,410,133,411,0,-14188,5904,5344,204,727,-751
7057.315,409,138,418,0,-14188,5904,5344,204,727,-751
7057.315,407,145,423,0,-14188,5904,5344,204,727,-751
7067.628,405,154,429,0,-14188,5904,5344,204,727,-751
7073.992,401,160,434,0,-14188,5904,5344,204,727,-751
7077.651,397,168,440,0,-14188,5904,5344,204,727,-751
7088.685,394,176,446,0,-14308,6280,6032,-204,380,-253
7088.685,389,185,452,0,-14308,6280,6032,-204,380,-253
7098.843,385,193,458,0,-14308,6280,6032,-204,380,-253
7101.957,378,201,463,0,-14308,6280,6032,-204,380,-253
7110.32,373,211,469,0,-14308,6280,6032,-204,380,-253
7114.215,369,218,474,0,-14308,6280,6032,-204,380,-253
7121.433,365,226,481,0,-14308,6280,6032,-204,380,-253
7122.859,361,235,486,0,-14076,6408,6164,402,374,-440
7132.871,357,243,491,0,-14076,6408,6164,402,374,-440
7140.948,353,250,494,0,-14076,6408,6164,402,374,-440
7143.809,350,259,499,0,-14076,6408,6164,402,374,-440
7148.266,347,266,502,0,-14076,6408,6164,402,374,-440
7154.807,344,273,506,0,-14076,6408,6164,402,374,-440
7159.979,342,281,508,0,-14076,6408,6164,402,374,-440
7165.64,341,287,510,0,-14160,6484,6588,42,622,-548
7168.35,341,294,512,0,-14160,6484,6588,42,622,-548
7176.555,339,298,513,0,-14160,6484,6588,42,622,-548
7181.072,338,306,515,0,-14160,6484,6588,42,622,-548
7188.99,337,311,514,0,-14160,6484,6588,42,622,-548
7188.99,334,316,517,0,-14160,6484,6588,42,622,-548
7199.545,332,319,517,0,-14160,6484,6588,42,622,-548
7207.414,331,324,517,2,-14160,6484,6588,42,622,-548
7210.986,330,328,519,4,-14064,6776,6296,430,949,-861
7218.924,328,332,519,6,-14064,6776,6296,430,949,-861
7223.299,327,335,519,8,-14064,6776,6296,430,949,-861
7225.162,327,337,518,9,-14064,6776,6296,430,949,-861
7232.598,326,340,517,10,-14064,6776,6296,430,949,-861
7237.652,326,342,516,15,-14064,6776,6296,430,949,-861
7243.378,327,344,512,17,-14064,6776,6296,430,949,-861
7249.765,328,345,510,20,-14172,5732,5652,294,1175,-987
7254.447,328,346,510,24,-14172,5732,5652,294,1175,-987
7258.117,330,348,509,28,-14172,5732,5652,294,1175,-987
7267.934,331,348,507,33,-14172,5732,5652,294,1175,-987
7276.797,333,348,505,37,-14172,5732,5652,294,1175,-987
7278.61,333,348,502,41,-14172,5732,5652,294,1175,-987
7289.191,335,347,498,44,-14172,5732,5652,294,1175,-987
7289.191,336,346,496,49,-14396,5732,5532,-72,907,-1018
7295.322,337,347,492,54,-14396,5732,5532,-72,907,-1018
7299.851,339,346,490,58,-14396,5732,5532,-72,907,-1018
7309.983,339,344,487,60,-14396,5732,5532,-72,907,-1018
7310.735,340,343,484,66,-14396,5732,5532,-72,907,-1018
7321.724,339,342,481,70,-14396,5732,5532,-72,907,-1018
7330.257,339,341,478,73,-14448,5392,5096,-410,642,-618
7332.786,339,339,474,78,-14448,5392,5096,-410,642,-618
7341.161,339,337,471,80,-14448,5392,5096,-410,642,-618
7343.757,338,336,468,82,-14448,5392,5096,-410,642,-618
7351.84,338,336,465,87,-14448,5392,5096,-410,642,-618
7354.66,336,335,462,91,-14448,5392,5096,-410,642,-618
7360.853,333,333,458,94,-14448,5392,5096,-410,642,-618
7367.879,331,333,455,98,-14644,4864,4896,-925,181,-284
7375.913,328,332,452,102,-14644,4864,4896,-925,181,-284
7375.913,325,331,448,105,-14644,4864,4896,-925,181,-284
7384.82,324,328,446,109,-14644,4864,4896,-925,181,-284
7388.945,321,328,443,112,-14644,4864,4896,-925,181,-284
7399.844,318,328,441,117,-14644,4864,4896,-925,181,-284
7408.22,315,327,438,120,-14644,4864,4896,-925,181,-284
7410.749,312,327,436,124,-14404,5720,5528,-572,133,-109
7410.749,309,327,434,129,-14404,5720,5528,-572,133,-109
7422.519,307,326,431,131,-14404,5720,5528,-572,133,-109
7426.33,306,326,429,134,-14404,5720,5528,-572,133,-109
7432.655,302,325,428,137,-14404,5720,5528,-572,133,-109
7438.575,300,325,425,141,-14404,5720,5528,-572,133,-109
7443.305,298,326,422,143,-14404,5720,5528,-572,133,-109
7450.389,296,325,421,149,-14416,5380,5324,94,84,-20
7455.356,294,326,419,154,-14416,5380,5324,94,84,-20
7458.452,293,326,418,157,-14416,5380,5324,94,84,-20
7467.871,291,327,416,159,-14416,5380,5324,94,84,-20
7477.049,290,328,414,162,-14416,5380,5324,94,84,-20
7482.11,289,329,413,167,-14416,5380,5324,94,84,-20
7485.792,287,331,411,169,-14416,5380,5324,94,84,-20
7493.597,285,330,408,173,-14360,5720,5796,-150,39,-18
7498.85,283,331,407,176,-14360,5720,5796,-150,39,-18
7502.587,283,332,405,179,-14360,5720,5796,-150,39,-18
7510.119,281,332,403,182,-14360,5720,5796,-150,39,-18
7511.926,280,331,401,184,-14360,5720,5796,-150,39,-18
7522.211,278,332,400,188,-14360,5720,5796,-150,39,-18
7522.211,277,333,399,190,-14360,5720,5796,-150,39,-18
7534.654,276,333,397,193,-14412,6132,5716,409,215,-232
7537.019,274,333,394,196,-14412,6132,5716,409,215,-232
7543.72,273,332,393,199,-14412,6132,5716,409,215,-232
7543.72,273,332,391,202,-14412,6132,5716,409,215,-232
7555.594,272,333,389,205,-14412,6132,5716,409,215,-232
7555.594,273,332,388,208,-14412,6132,5716,409,215,-232
7567.988,274,332,386,211,-14412,6132,5716,409,215,-232
7567.988,273,332,383,213,-14504,5316,5308,-377,50,-157
7578.055,274,331,382,217,-14504,5316,5308,-377,50,-157
7578.055,275,331,380,218,-14504,5316,5308,-377,50,-157
7588.413,275,331,378,221,-14504,5316,5308,-377,50,-157
7595.999,276,332,375,224,-14504,5316,5308,-377,50,-157
7600.022,276,331,374,226,-14504,5316,5308,-377,50,-157
7607.671,278,331,372,228,-14452,5040,5388,-473,-110,189
7610.888,277,331,370,231,-14452,5040,5388,-473,-110,189
7621.088,277,331,369,233,-14452,5040,5388,-473,-110,189
7621.687,278,332,366,235,-14452,5040,5388,-473,-110,189
7633.398,278,331,364,237,-14452,5040,5388,-473,-110,189
7635.022,278,331,363,241,-14452,5040,5388,-473,-110,189
7643.5,278,329,361,241,-14452,5040,5388,-473,-110,189
7643.5,278,329,359,244,-14392,5424,5560,-463,-152,412
7655.211,278,328,359,247,-14392,5424,5560,-463,-152,412
7655.211,278,328,358,249,-14392,5424,5560,-463,-152,412
7668.194,278,327,357,251,-14392,5424,5560,-463,-152,412
7672.7,279,326,355,254,-14392,5424,5560,-463,-152,412
7677.367,279,325,354,255,-14392,5424,5560,-463,-152,412
7684.137,280,324,352,256,-14392,5424,5560,-463,-152,412
7688.631,281,324,351,259,-14504,5512,5764,-621,-306,502
7698.76,281,324,351,261,-14504,5512,5764,-621,-306,502
7699.54,281,324,351,263,-14504,5512,5764,-621,-306,502
7710.617,281,325,350,265,-14504,5512,5764,-621,-306,502
7718.987,281,323,350,267,-14504,5512,5764,-621,-306,502
7721.83,282,323,348,268,-14504,5512,5764,-621,-306,502
7732.017,283,323,349,270,-14372,5788,5664,-302,-234,393
7733.024,283,323,348,273,-14372,5788,5664,-302,-234,393
7743.584,284,323,348,274,-14372,5788,5664,-302,-234,393
7744.23,284,322,346,275,-14372,5788,5664,-302,-234,393
7750.82,283,323,347,277,-14372,5788,5664,-302,-234,393
7755.258,282,324,346,279,-14372,5788,5664,-302,-234,393
7763.058,282,324,345,280,-14372,5788,5664,-302,-234,393
7768.08,282,323,343,281,-14412,5892,5764,-456,-309,636
7777.676,281,322,342,282,-14412,5892,5764,-456,-309,636
7778.545,280,322,340,284,-14412,5892,5764,-456,-309,636
7788.687,280,322,339,287,-14412,5892,5764,-456,-309,636
7796.773,278,320,339,289,-14412,5892,5764,-456,-309,636
7799.313,277,320,338,291,-14412,5892,5764,-456,-309,636
7808.444,277,320,337,292,-14412,5892,5764,-456,-309,636
7810.911,278,319,336,294,-14284,5800,5928,-790,-253,739
7820.978,277,319,335,296,-14284,5800,5928,-790,-253,739
7820.978,277,318,334,298,-14284,5800,5928,-790,-253,739
7832.742,277,318,334,300,-14284,5800,5928,-790,-253,739
7832.742,277,318,333,302,-14284,5800,5928,-790,-253,739
7844.346,277,318,330,301,-14284,5800,5928,-790,-253,739
7844.346,277,317,330,302,-14112,6184,6204,-214,-221,570
7855.037,278,318,329,305,-14112,6184,6204,-214,-221,570
7855.037,279,318,328,307,-14112,6184,6204,-214,-221,570
7866.219,280,317,327,308,-14112,6184,6204,-214,-221,570
7868.237,280,317,325,309,-14112,6184,6204,-214,-221,570
7877.336,280,317,325,310,-14112,6184,6204,-214,-221,570
7887.181,281,317,322,310,-14112,6184,6204,-214,-221,570
7888.703,282,317,323,312,-14264,5988,5964,-198,-37,436
7899.489,284,317,322,314,-14264,5988,5964,-198,-37,436
7899.489,284,318,321,314,-14264,5988,5964,-198,-37,436
7910.006,286,318,320,315,-14264,5988,5964,-198,-37,436
7910.006,286,318,318,316,-14264,5988,5964,-198,-37,436
7917.831,287,319,317,317,-14264,5988,5964,-198,-37,436
7921.741,288,320,316,318,-14264,5988,5964,-198,-37,436
7932.76,288,319,315,319,-14284,6220,6036,-394,-47,134
7933.005,289,319,314,320,-14284,6220,6036,-394,-47,134
7944.039,292,319,313,319,-14284,6220,6036,-394,-47,134
7952.132,292,319,311,320,-14284,6220,6036,-394,-47,134
7955.061,293,318,309,319,-14284,6220,6036,-394,-47,134
7965.667,293,318,309,320,-14284,6220,6036,-394,-47,134
7968.54,295,319,308,320,-14284,6220,6036,-394,-47,134
7968.54,295,319,307,321,-14232,5596,5440,-1187,-4,317
7977.339,296,319,306,321,-14232,5596,5440,-1187,-4,317
7984.271,298,318,304,320,-14232,5596,5440,-1187,-4,317
7988.458,298,319,303,320,-14232,5596,5440,-1187,-4,317
7995.663,298,318,303,321,-14232,5596,5440,-1187,-4,317
7999.659,300,318,303,321,-14232,5596,5440,-1187,-4,317
8010.417,299,317,302,321,-14316,6368,6144,-334,-46,199
8013.713,299,317,301,322,-14316,6368,6144,-334,-46,199
8022.658,300,315,302,321,-14316,6368,6144,-334,-46,199
8026.852,301,316,301,321,-14316,6368,6144,-334,-46,199
8034.839,302,315,300,322,-14316,6368,6144,-334,-46,199
8034.839,302,316,300,322,-14316,6368,6144,-334,-46,199
8046.425,303,314,299,322,-14316,6368,6144,-334,-46,199
8048.8,304,314,298,323,-14132,6100,5912,164,50,-109
8055.032,304,314,297,323,-14132,6100,5912,164,50,-109
8056.593,305,314,297,323,-14132,6100,5912,164,50,-109
8065.39,305,314,297,323,-14132,6100,5912,164,50,-109
8068.406,306,314,296,324,-14132,6100,5912,164,50,-109
8077.34,307,313,296,324,-14132,6100,5912,164,50,-109
8077.34,307,313,295,323,-14132,6100,5912,164,50,-109
8088.394,307,312,295,323,-14308,5960,6036,-203,110,-179
8094.146,307,314,294,324,-14308,5960,6036,-203,110,-179
8098.887,307,313,294,323,-14308,5960,6036,-203,110,-179
8106.1,307,313,295,323,-14308,5960,6036,-203,110,-179
8111.01,308,313,296,324,-14308,5960,6036,-203,110,-179
8118.598,307,314,295,324,-14308,5960,6036,-203,110,-179
8122.642,308,313,295,323,-14308,5960,6036,-203,110,-179
8132.932,306,313,294,323,-14132,5884,6124,-543,245,-121
8140.99,306,313,295,323,-14132,5884,6124,-543,245,-121
8144.077,306,313,294,323,-14132,5884,6124,-543,245,-121
8153.177,306,314,293,322,-14132,5884,6124,-543,245,-121
8155.187,306,312,293,323,-14132,5884,6124,-543,245,-121
8159.292,306,311,292,322,-14132,5884,6124,-543,245,-121
8168.405,306,311,292,323,-14132,5884,6124,-543,245,-121
8168.405,305,312,293,322,-14340,5392,5780,-810,254,56
8177.572,305,312,292,323,-14340,5392,5780,-810,254,56
8184.772,305,311,292,322,-14340,5392,5780,-810,254,56
8188.697,305,311,291,322,-14340,5392,5780,-810,254,56
8196.266,304,311,291,323,-14340,5392,5780,-810,254,56
8199.92,304,309,289,321,-14340,5392,5780,-810,254,56
8210.685,305,309,289,322,-14220,5876,6184,-376,191,139
8210.685,303,308,289,323,-14220,5876,6184,-376,191,139
8221.385,303,308,289,324,-14220,5876,6184,-376,191,139
8224.562,303,306,288,323,-14220,5876,6184,-376,191,139
8233.781,302,305,289,324,-14220,5876,6184,-376,191,139
8236.602,302,306,288,325,-14220,5876,6184,-376,191,139
8243.627,303,306,287,324,-14220,5876,6184,-376,191,139
8249.1,302,305,286,326,-14244,5916,5896,-104,203,43
8254.487,301,304,287,326,-14244,5916,5896,-104,203,43
8257.56,301,305,285,326,-14244,5916,5896,-104,203,43
8266.087,302,306,284,328,-14244,5916,5896,-104,203,43
8276.35,300,305,282,331,-14244,5916,5896,-104,203,43
8277.711,301,306,279,333,-14244,5916,5896,-104,203,43
8282.509,301,306,277,337,-14244,5916,5896,-104,203,43
8288.847,301,307,275,340,-14192,6056,5760,-171,238,-139
8294.224,300,309,273,345,-14192,6056,5760,-171,238,-139
8298.923,300,309,272,347,-14192,6056,5760,-171,238,-139
8307.393,299,310,271,348,-14192,6056,5760,-171,238,-139
8310.618,299,310,270,349,-14192,6056,5760,-171,238,-139
8321.749,299,309,269,349,-14192,6056,5760,-171,238,-139
8329.75,300,309,268,349,-14192,6056,5760,-171,238,-139
8332.813,300,309,267,349,-14276,5716,5676,-791,34,-179
8341.595,299,309,268,348,-14276,5716,5676,-791,34,-179
8344.005,301,308,268,347,-14276,5716,5676,-791,34,-179
8347.54,300,307,268,347,-14276,5716,5676,-791,34,-179
8355.273,300,308,267,346,-14276,5716,5676,-791,34,-179
8359.89,301,308,266,345,-14276,5716,5676,-791,34,-179
8368.717,302,308,267,344,-14276,5716,5676,-791,34,-179
8371.957,303,308,267,343,-14304,5792,6016,-556,113,-278
8376.673,304,307,268,341,-14304,5792,6016,-556,113,-278
8384.497,305,307,269,340,-14304,5792,6016,-556,113,-278
8388.682,304,306,269,339,-14304,5792,6016,-556,113,-278
8399.497,305,306,270,338,-14304,5792,6016,-556,113,-278
8407.591,306,306,270,336,-14304,5792,6016,-556,113,-278
8410.45,307,306,271,335,-14272,5680,5980,-3,256,-265
8412.815,308,306,272,335,-14272,5680,5980,-3,256,-265
8421.11,309,305,272,333,-14272,5680,5980,-3,256,-265
8424.87,310,306,273,332,-14272,5680,5980,-3,256,-265
8432.545,310,306,274,332,-14272,5680,5980,-3,256,-265
8437.933,312,306,274,331,-14272,5680,5980,-3,256,-265
8443.378,312,305,274,329,-14272,5680,5980,-3,256,-265
8446.139,313,305,276,329,-14380,5648,5904,-125,280,-188
8454.778,314,304,276,328,-14380,5648,5904,-125,280,-188
8465.229,315,304,276,327,-14380,5648,5904,-125,280,-188
8469.068,316,304,275,325,-14380,5648,5904,-125,280,-188
8471.296,315,303,277,325,-14380,5648,5904,-125,280,-188
8477.814,315,303,279,324,-14380,5648,5904,-125,280,-188
8489.722,316,303,280,324,-14380,5648,5904,-125,280,-188
8489.722,314,303,281,324,-14396,5712,5648,-163,327,-170
8498.845,314,303,282,324,-14396,5712,5648,-163,327,-170
8498.845,314,303,283,322,-14396,5712,5648,-163,327,-170
8510.604,313,303,285,323,-14396,5712,5648,-163,327,-170
8514.991,312,303,287,323,-14396,5712,5648,-163,327,-170
8521.391,311,303,288,322,-14396,5712,5648,-163,327,-170
8521.391,311,303,290,322,-14396,5712,5648,-163,327,-170
8532.384,310,303,291,323,-14368,5472,5732,60,124,69
8542.837,310,302,291,322,-14368,5472,5732,60,124,69
8543.587,309,302,291,322,-14368,5472,5732,60,124,69
8543.587,310,301,291,322,-14368,5472,5732,60,124,69
8558.842,308,302,293,323,-14368,5472,5732,60,124,69
8560.911,308,303,294,323,-14368,5472,5732,60,124,69
8566.2,308,302,296,323,-14368,5472,5732,60,124,69
8569.208,307,301,296,324,-14412,5540,5848,-128,62,196
8576.973,306,301,297,323,-14412,5540,5848,-128,62,196
8587.572,307,301,297,324,-14412,5540,5848,-128,62,196
8589.559,307,301,298,324,-14412,5540,5848,-128,62,196
8593.765,306,300,297,324,-14412,5540,5848,-128,62,196
8598.862,305,301,297,323,-14412,5540,5848,-128,62,196
8606.224,305,302,298,324,-14412,5540,5848,-128,62,196
8610.682,304,301,299,325,-14312,5932,5912,242,148,43
8618.202,304,303,300,326,-14312,5932,5912,242,148,43
8622.229,303,302,301,326,-14312,5932,5912,242,148,43
8633.188,304,302,302,326,-14312,5932,5912,242,148,43
8633.188,302,302,302,327,-14312,5932,5912,242,148,43
8644.159,303,302,302,327,-14312,5932,5912,242,148,43
8644.159,303,303,301,328,-14312,5932,5912,242,148,43
8652.256,302,303,302,329,-14348,5852,5880,-287,268,-9
8655.22,302,303,303,329,-14348,5852,5880,-287,268,-9
8665.917,302,304,304,328,-14348,5852,5880,-287,268,-9
8669.228,301,302,304,328,-14348,5852,5880,-287,268,-9
8677.219,302,303,304,329,-14348,5852,5880,-287,268,-9
8677.219,303,303,304,328,-14348,5852,5880,-287,268,-9
8688.202,302,303,304,329,-14348,5852,5880,-287,268,-9
8688.202,301,303,304,331,-14264,5536,5760,-41,279,73
8696.418,303,303,304,332,-14264,5536,5760,-41,279,73
8699.988,303,302,303,331,-14264,5536,5760,-41,279,73
8710.577,303,303,304,332,-14264,5536,5760,-41,279,73
8718.717,304,302,303,332,-14264,5536,5760,-41,279,73
8721.689,305,302,303,332,-14264,5536,5760,-41,279,73
8724.241,304,302,302,332,-14264,5536,5760,-41,279,73
8732.162,304,302,302,333,-14388,5548,5492,-177,316,220
8736.16,304,303,302,333,-14388,5548,5492,-177,316,220
8743.81,304,303,301,332,-14388,5548,5492,-177,316,220
8748.496,304,303,300,332,-14388,5548,5492,-177,316,220
8754.573,305,301,299,333,-14388,5548,5492,-177,316,220
8762.625,304,303,299,332,-14388,5548,5492,-177,316,220
8765.538,304,303,298,332,-14388,5548,5492,-177,316,220
8770.454,303,303,299,332,-14396,5944,5608,52,-25,116
8777.124,303,303,299,332,-14396,5944,5608,52,-25,116
8788.413,302,303,298,331,-14396,5944,5608,52,-25,116
8789.197,302,304,298,331,-14396,5944,5608,52,-25,116
8795.57,302,303,298,332,-14396,5944,5608,52,-25,116
8799.948,303,303,297,331,-14396,5944,5608,52,-25,116
8807.082,302,304,298,330,-14396,5944,5608,52,-25,116
8810.851,302,304,299,331,-14220,6212,5876,330,80,-53
8821.577,301,304,298,331,-14220,6212,5876,330,80,-53
8823.43,301,305,297,330,-14220,6212,5876,330,80,-53
8832.846,300,305,297,330,-14220,6212,5876,330,80,-53
8834.163,300,305,297,330,-14220,6212,5876,330,80,-53
8838.727,301,305,296,329,-14220,6212,5876,330,80,-53
8843.392,301,305,295,329,-14220,6212,5876,330,80,-53
8851.32,301,305,295,330,-14352,5548,5508,-38,115,-10
8855.342,301,306,294,330,-14352,5548,5508,-38,115,-10
8866.748,302,306,293,330,-14352,5548,5508,-38,115,-10
8869.764,302,306,293,331,-14352,5548,5508,-38,115,-10
8876.678,301,306,293,330,-14352,5548,5508,-38,115,-10
8879.719,301,305,292,330,-14352,5548,5508,-38,115,-10
8888.38,302,305,292,330,-14352,5548,5508,-38,115,-10
8892.209,301,305,290,330,-14376,5928,5696,-149,-14,29
8899.171,302,306,291,330,-14376,5928,5696,-149,-14,29
8899.171,300,305,290,330,-14376,5928,5696,-149,-14,29
8910.7,300,305,290,331,-14376,5928,5696,-149,-14,29
8918.782,300,306,291,331,-14376,5928,5696,-149,-14,29
8921.649,300,307,291,331,-14376,5928,5696,-149,-14,29
8921.649,300,308,290,330,-14376,5928,5696,-149,-14,29
8934.025,299,308,290,330,-14340,5796,5812,-101,71,-25
8937.595,299,308,290,330,-14340,5796,5812,-101,71,-25
8944.273,299,308,289,329,-14340,5796,5812,-101,71,-25
8950.028,298,307,290,329,-14340,5796,5812,-101,71,-25
8954.51,298,307,290,329,-14340,5796,5812,-101,71,-25
8957.737,298,307,289,328,-14340,5796,5812,-101,71,-25
8966.031,299,306,289,328,-14340,5796,5812,-101,71,-25
8976.311,297,307,289,329,-14396,5500,5548,-187,-160,146
8977.867,297,307,288,328,-14396,5500,5548,-187,-160,146
8987.816,298,306,288,327,-14396,5500,5548,-187,-160,146
8987.816,297,305,288,328,-14396,5500,5548,-187,-160,146
8999.817,297,304,288,328,-14396,5500,5548,-187,-160,146
9002.568,298,305,289,327,-14396,5500,5548,-187,-160,146
9011.855,297,304,289,327,-14396,5500,5548,-187,-160,146
9011.855,297,304,289,327,-14400,6136,6000,125,-77,-49
9021.629,298,303,289,326,-14400,6136,6000,125,-77,-49
9029.97,298,304,289,326,-14400,6136,6000,125,-77,-49
9033.068,298,304,289,327,-14400,6136,6000,125,-77,-49
9041.203,298,304,290,326,-14400,6136,6000,125,-77,-49
9044.077,298,304,291,325,-14400,6136,6000,125,-77,-49
9044.077,298,304,292,325,-14352,5784,5700,227,132,-127
9055.005,299,303,291,324,-14352,5784,5700,227,132,-127
9060.505,298,303,291,323,-14352,5784,5700,227,132,-127
9071.089,299,303,291,323,-14352,5784,5700,227,132,-127
9074.332,297,303,291,324,-14352,5784,5700,227,132,-127
9076.919,298,304,291,323,-14352,5784,5700,227,132,-127
9084.936,298,304,292,323,-14352,5784,5700,227,132,-127
9089.04,297,305,292,324,-14308,5436,5616,-192,74,19
9099.542,299,305,292,323,-14308,5436,5616,-192,74,19
9099.542,298,305,292,323,-14308,5436,5616,-192,74,19
9110.696,299,305,292,323,-14308,5436,5616,-192,74,19
9113.454,299,305,291,322,-14308,5436,5616,-192,74,19
9121.457,298,305,291,321,-14308,5436,5616,-192,74,19
9123.309,297,304,291,321,-14308,5436,5616,-192,74,19
9132.736,298,304,291,321,-14452,5876,5836,-64,167,-14
9132.939,298,304,292,322,-14452,5876,5836,-64,167,-14
9143.966,299,305,292,321,-14452,5876,5836,-64,167,-14
9143.966,299,304,292,321,-14452,5876,5836,-64,167,-14
9155.176,299,303,292,321,-14452,5876,5836,-64,167,-14
9158.647,299,304,291,320,-14452,5876,5836,-64,167,-14
9166.2,299,304,291,320,-14452,5876,5836,-64,167,-14
9170.839,300,303,292,321,-14336,5616,5604,79,139,15
9177.144,300,303,292,321,-14336,5616,5604,79,139,15
9178.903,300,303,291,320,-14336,5616,5604,79,139,15
9188.826,301,303,292,320,-14336,5616,5604,79,139,15
9188.826,300,303,292,321,-14336,5616,5604,79,139,15
9199.637,301,304,292,321,-14336,5616,5604,79,139,15
9203.642,302,303,292,321,-14336,5616,5604,79,139,15
9210.373,302,303,292,321,-14336,5616,5604,79,139,15
9212.2,302,303,292,321,-14320,6088,5768,194,2,-29
9221.996,303,303,292,320,-14320,6088,5768,194,2,-29
9221.996,303,303,292,321,-14320,6088,5768,194,2,-29
9232.93,304,303,292,320,-14320,6088,5768,194,2,-29
9232.93,304,304,293,320,-14320,6088,5768,194,2,-29
9243.236,304,304,292,320,-14320,6088,5768,194,2,-29
9243.811,303,304,292,320,-14320,6088,5768,194,2,-29
9255.577,304,304,292,321,-14416,5664,5584,-6,164,-108
9263.624,304,305,293,321,-14416,5664,5584,-6,164,-108
9265.523,304,305,293,320,-14416,5664,5584,-6,164,-108
9270.892,304,304,293,321,-14416,5664,5584,-6,164,-108
9277.482,305,305,294,320,-14416,5664,5584,-6,164,-108
9282.074,305,304,293,320,-14416,5664,5584,-6,164,-108
9288.355,305,305,294,321,-14416,5664,5584,-6,164,-108
9293.451,304,305,294,321,-14500,5456,5416,-119,52,203
9298.823,305,304,294,320,-14500,5456,5416,-119,52,203
9301.689,305,304,294,320,-14500,5456,5416,-119,52,203
9311.392,305,304,295,321,-14500,5456,5416,-119,52,203
9320.536,305,304,295,321,-14500,5456,5416,-119,52,203
9322.151,306,303,294,320,-14500,5456,5416,-119,52,203
9326.31,304,303,295,321,-14500,5456,5416,-119,52,203
9332.156,304,303,294,321,-14392,5896,5676,-46,-145,415
9339.499,304,303,294,321,-14392,5896,5676,-46,-145,415
9344.079,305,303,295,320,-14392,5896,5676,-46,-145,415
9351.406,305,302,295,322,-14392,5896,5676,-46,-145,415
9356.756,306,302,295,321,-14392,5896,5676,-46,-145,415
9365.604,305,302,296,321,-14392,5896,5676,-46,-145,415
9365.604,305,302,296,322,-14392,5896,5676,-46,-145,415
9376.693,304,303,296,322,-14336,6180,5804,604,-126,207
9376.693,304,303,296,321,-14336,6180,5804,604,-126,207
9389.883,305,303,296,322,-14336,6180,5804,604,-126,207
9394.074,305,302,297,322,-14336,6180,5804,604,-126,207
9402.515,305,303,297,322,-14336,6180,5804,604,-126,207
9406.908,305,302,298,322,-14336,6180,5804,604,-126,207
9411.113,304,303,297,323,-14288,6064,5692,469,-5,91
9412.126,304,303,298,323,-14288,6064,5692,469,-5,91
9422.267,304,303,298,322,-14288,6064,5692,469,-5,91
9430.405,304,303,298,323,-14288,6064,5692,469,-5,91
9433.047,305,303,298,322,-14288,6064,5692,469,-5,91
9433.047,305,303,297,322,-14288,6064,5692,469,-5,91
9443.135,305,303,298,322,-14288,6064,5692,469,-5,91
9449.088,306,303,298,323,-14288,6064,5692,469,-5,91
9454.444,306,303,298,323,-14296,5948,5564,-72,139,-21
9454.444,306,304,297,322,-14296,5948,5564,-72,139,-21
9466.223,306,303,298,322,-14296,5948,5564,-72,139,-21
9470.987,305,303,298,323,-14296,5948,5564,-72,139,-21
9477.588,305,304,297,321,-14296,5948,5564,-72,139,-21
9482.362,306,303,298,322,-14296,5948,5564,-72,139,-21
9487.859,306,302,299,322,-14296,5948,5564,-72,139,-21
9494.139,307,303,298,322,-14280,5804,5668,-230,141,5
9499.016,306,303,298,322,-14280,5804,5668,-230,141,5
9506.922,306,303,298,321,-14280,5804,5668,-230,141,5
9511.087,306,303,298,321,-14280,5804,5668,-230,141,5
9516.704,306,304,297,321,-14280,5804,5668,-230,141,5
9522.902,306,303,298,321,-14280,5804,5668,-230,141,5
9522.902,306,303,298,321,-14280,5804,5668,-230,141,5
9533.147,306,304,297,321,-14392,5760,5508,-121,31,75
9539.788,306,303,298,320,-14392,5760,5508,-121,31,75
9544.171,305,302,298,320,-14392,5760,5508,-121,31,75
9554.416,305,303,297,321,-14392,5760,5508,-121,31,75
9555.093,304,303,297,320,-14392,5760,5508,-121,31,75
9566.543,304,303,296,319,-14392,5760,5508,-121,31,75
9566.543,304,302,297,320,-14392,5760,5508,-121,31,75
9572.407,304,302,296,320,-14400,5888,5692,79,11,126
9582.989,304,302,296,320,-14400,5888,5692,79,11,126
9583.507,303,302,295,320,-14400,5888,5692,79,11,126
9588.542,303,302,296,319,-14400,5888,5692,79,11,126
9599.294,304,302,296,319,-14400,5888,5692,79,11,126
9601.031,304,302,295,319,-14400,5888,5692,79,11,126
9601.031,304,302,295,319,-14400,5888,5692,79,11,126
9611.232,305,301,295,319,-14280,6104,5560,50,82,35
9617.712,305,302,295,319,-14280,6104,5560,50,82,35
9621.881,305,301,295,319,-14280,6104,5560,50,82,35
9632.146,304,302,295,319,-14280,6104,5560,50,82,35
9632.766,304,302,295,318,-14280,6104,5560,50,82,35
9638.034,304,303,295,318,-14280,6104,5560,50,82,35
9643.353,305,302,295,319,-14280,6104,5560,50,82,35
9649.995,304,302,295,319,-14280,6104,5560,50,82,35
9654.51,304,302,295,319,-14328,5920,5532,-56,174,-42
9658.016,305,302,294,319,-14328,5920,5532,-56,174,-42
9666.629,305,302,295,319,-14328,5920,5532,-56,174,-42
9677.114,304,302,295,319,-14328,5920,5532,-56,174,-42
9677.814,304,302,295,319,-14328,5920,5532,-56,174,-42
9682.631,304,302,294,318,-14328,5920,5532,-56,174,-42
9687.68,304,301,294,319,-14328,5920,5532,-56,174,-42
9694.939,304,301,294,318,-14356,5872,5632,47,87,-38
9699.718,304,301,294,318,-14356,5872,5632,47,87,-38
9707.584,303,301,294,318,-14356,5872,5632,47,87,-38
9711.723,303,300,294,318,-14356,5872,5632,47,87,-38
9721.294,303,301,293,318,-14356,5872,5632,47,87,-38
9723.637,303,301,294,318,-14356,5872,5632,47,87,-38
9723.637,302,301,293,318,-14356,5872,5632,47,87,-38
9733.273,302,301,294,318,-14320,5816,5484,211,-11,26
9740.403,303,300,293,317,-14320,5816,5484,211,-11,26
9744.076,302,300,293,318,-14320,5816,5484,211,-11,26
9749.227,302,300,294,318,-14320,5816,5484,211,-11,26
9755.365,302,301,293,318,-14320,5816,5484,211,-11,26
9765.613,301,300,293,317,-14320,5816,5484,211,-11,26
9771.419,301,300,293,317,-14320,5816,5484,211,-11,26
9771.419,301,300,293,317,-14336,5908,5676,250,-94,53
9778.189,303,299,293,317,-14336,5908,5676,250,-94,53
9787.826,302,299,293,317,-14336,5908,5676,250,-94,53
9787.826,302,299,293,318,-14336,5908,5676,250,-94,53
9799.536,302,298,293,317,-14336,5908,5676,250,-94,53
9801.319,301,299,293,317,-14336,5908,5676,250,-94,53
9811.182,301,299,293,317,-14336,5908,5676,250,-94,53
9811.182,301,299,292,317,-14316,6244,5672,298,4,-11
9818.113,302,300,293,317,-14316,6244,5672,298,4,-11
9822.364,303,299,293,318,-14316,6244,5672,298,4,-11
9832.123,303,300,293,318,-14316,6244,5672,298,4,-11
9833.538,303,300,293,317,-14316,6244,5672,298,4,-11
9843.482,303,300,293,317,-14316,6244,5672,298,4,-11
9843.482,304,300,292,317,-14316,6244,5672,298,4,-11
9851.441,303,300,293,317,-14336,6100,5676,119,91,-87
9855.135,303,300,292,316,-14336,6100,5676,119,91,-87
9866.327,303,300,292,317,-14336,6100,5676,119,91,-87
9866.553,304,301,292,317,-14336,6100,5676,119,91,-87
9876.948,304,300,292,317,-14336,6100,5676,119,91,-87
9876.948,305,301,292,317,-14336,6100,5676,119,91,-87
9888.692,304,301,293,317,-14336,6100,5676,119,91,-87
9892.177,304,301,293,317,-14372,5872,5488,-188,9,66
9892.177,305,302,292,316,-14372,5872,5488,-188,9,66
9900.869,304,302,292,317,-14372,5872,5488,-188,9,66
9910.835,305,301,292,317,-14372,5872,5488,-188,9,66
9910.835,306,301,292,317,-14372,5872,5488,-188,9,66
9921.108,307,301,292,316,-14372,5872,5488,-188,9,66
9921.108,307,301,292,316,-14372,5872,5488,-188,9,66
9931.77,307,302,293,316,-14372,5872,5488,-188,9,66
9933.305,308,302,293,316,-14368,5968,5560,-53,-5,38
9943.615,308,301,293,315,-14368,5968,5560,-53,-5,38
9944.392,308,302,293,316,-14368,5968,5560,-53,-5,38
9954.603,310,301,293,316,-14368,5968,5560,-53,-5,38
9957.159,309,301,293,316,-14368,5968,5560,-53,-5,38
9957.159,310,302,294,316,-14368,5968,5560,-53,-5,38
9971.79,308,301,293,316,-14368,5968,5560,-53,-5,38
9973.967,309,301,294,316,-14348,6048,5556,31,-70,107
9977.898,309,301,293,315,-14348,6048,5556,31,-70,107
9988.172,310,302,294,315,-14348,6048,5556,31,-70,107
9988.172,310,301,295,315,-14348,6048,5556,31,-70,107
9998.906,311,302,295,315,-14348,6048,5556,31,-70,107
9998.906,311,302,296,315,-14348,6048,5556,31,-70,107
10010.56,311,302,296,314,-14348,6048,5556,31,-70,107
10011.37,312,302,296,315,-14344,6004,5584,-86,-53,114
10021.833,312,303,296,314,-14344,6004,5584,-86,-53,114
10021.833,312,302,296,314,-14344,6004,5584,-86,-53,114
10032.921,312,303,297,315,-14344,6004,5584,-86,-53,114
10032.921,313,303,296,315,-14344,6004,5584,-86,-53,114
10044.006,313,303,296,315,-14344,6004,5584,-86,-53,114
10047.423,313,303,297,315,-14344,6004,5584,-86,-53,114
10054.943,312,304,297,315,-14320,6124,5632,-148,-40,46
10059.234,312,303,296,315,-14320,6124,5632,-148,-40,46
10065.952,312,303,297,315,-14320,6124,5632,-148,-40,46
10071.991,312,303,298,315,-14320,6124,5632,-148,-40,46
10076.682,313,303,298,314,-14320,6124,5632,-148,-40,46
10080.081,313,303,298,315,-14320,6124,5632,-148,-40,46
10089.036,313,303,298,315,-14320,6124,5632,-148,-40,46
10094.952,313,303,298,315,-14340,5900,5404,-247,40,36
10099.708,312,303,298,314,-14340,5900,5404,-247,40,36
10105.353,312,303,298,315,-14340,5900,5404,-247,40,36
10110.068,311,302,297,314,-14340,5900,5404,-247,40,36
10116.665,311,301,297,314,-14340,5900,5404,-247,40,36
10121.222,311,301,298,314,-14340,5900,5404,-247,40,36
10125.09,311,301,298,314,-14340,5900,5404,-247,40,36
10132.894,311,301,298,314,-14704,6124,5604,-203,-94,99
10144.109,309,301,296,313,-14704,6124,5604,-203,-94,99
10144.109,308,300,295,312,-14704,6124,5604,-203,-94,99
10148.874,308,301,296,313,-14704,6124,5604,-203,-94,99
10154.422,308,301,296,313,-14704,6124,5604,-203,-94,99
10161.995,308,300,297,313,-14704,6124,5604,-203,-94,99
10171.908,308,300,296,313,-14704,6124,5604,-203,-94,99
10176.656,309,300,297,314,-14148,6052,5576,-65,-160,62
10178.33,309,300,296,312,-14148,6052,5576,-65,-160,62
10189.017,307,300,296,313,-14148,6052,5576,-65,-160,62
10189.017,306,300,295,313,-14148,6052,5576,-65,-160,62
10199.812,306,301,295,312,-14148,6052,5576,-65,-160,62
10202.444,305,301,295,313,-14148,6052,5576,-65,-160,62
10210.848,305,300,295,312,-14148,6052,5576,-65,-160,62
10211.779,304,300,294,312,-14256,6040,5708,83,45,-91
10221.09,303,300,294,311,-14256,6040,5708,83,45,-91
10221.09,302,300,294,312,-14256,6040,5708,83,45,-91
10232.96,302,300,294,312,-14256,6040,5708,83,45,-91
10232.96,302,300,293,311,-14256,6040,5708,83,45,-91
10244.378,301,300,293,311,-14256,6040,5708,83,45,-91
10244.378,301,299,293,311,-14256,6040,5708,83,45,-91
10255.055,301,298,293,311,-14308,5940,5600,-78,126,9
10255.055,301,299,292,310,-14308,5940,5600,-78,126,9
10266.382,300,299,293,311,-14308,5940,5600,-78,126,9
10266.382,299,300,293,310,-14308,5940,5600,-78,126,9
10276.827,299,300,293,310,-14308,5940,5600,-78,126,9
10280.863,300,299,292,310,-14308,5940,5600,-78,126,9
10280.863,299,299,292,311,-14308,5940,5600,-78,126,9
10289.551,298,300,292,310,-14308,5940,5600,-78,126,9
10298.945,299,300,292,310,-14400,5956,5576,-196,89,92
10298.945,300,300,292,310,-14400,5956,5576,-196,89,92
10310.255,299,299,292,311,-14400,5956,5576,-196,89,92
10310.255,299,300,292,310,-14400,5956,5576,-196,89,92
10322.243,298,299,292,309,-14400,5956,5576,-196,89,92
10322.243,298,300,292,310,-14400,5956,5576,-196,89,92
10332.827,298,299,291,310,-14400,5956,5576,-196,89,92
10332.827,299,300,291,310,-13856,6320,5712,36,121,-149
10344.701,298,299,292,310,-13856,6320,5712,36,121,-149
10353.003,297,299,292,310,-13856,6320,5712,36,121,-149
10355.56,296,300,292,310,-13856,6320,5712,36,121,-149
10355.56,297,300,293,310,-13856,6320,5712,36,121,-149
10366.39,296,300,293,310,-13856,6320,5712,36,121,-149
10372.501,297,299,292,311,-13856,6320,5712,36,121,-149
10376.577,297,299,292,310,-14528,6296,5532,230,-42,21
10379.396,298,300,292,310,-14528,6296,5532,230,-42,21
10387.67,298,299,292,311,-14528,6296,5532,230,-42,21
10391.629,297,300,292,311,-14528,6296,5532,230,-42,21
10399.026,298,300,292,310,-14528,6296,5532,230,-42,21
10403.897,297,299,292,310,-14528,6296,5532,230,-42,21
10410.553,298,299,293,310,-14528,6296,5532,230,-42,21
10410.553,298,300,292,310,-14352,5968,5548,-28,48,-9
10421.323,300,300,292,310,-14352,5968,5548,-28,48,-9
10421.323,299,299,292,311,-14352,5968,5548,-28,48,-9
10432.499,300,300,291,311,-14352,5968,5548,-28,48,-9
10432.499,300,300,291,310,-14352,5968,5548,-28,48,-9
10446.421,300,301,292,311,-14352,5968,5548,-28,48,-9
10451.557,301,301,294,311,-14352,5968,5548,-28,48,-9
10458.979,301,302,294,310,-12948,6032,5512,85,69,-186
10463.371,301,304,295,310,-12948,6032,5512,85,69,-186
10467.549,300,303,295,310,-12948,6032,5512,85,69,-186
10473.131,300,305,294,311,-12948,6032,5512,85,69,-186
10476.663,301,304,294,310,-12948,6032,5512,85,69,-186
10481.132,302,305,295,311,-12948,6032,5512,85,69,-186
10488.143,302,305,295,312,-12948,6032,5512,85,69,-186
10493.425,302,304,295,311,-14004,5684,5956,92,-65,168
10498.989,303,304,296,311,-14004,5684,5956,92,-65,168
10505.745,303,304,297,311,-14004,5684,5956,92,-65,168
10510.917,305,304,297,312,-14004,5684,5956,92,-65,168
10514.13,306,305,296,311,-14004,5684,5956,92,-65,168
10521.845,307,305,294,312,-14004,5684,5956,92,-65,168
10521.845,306,305,293,312,-14004,5684,5956,92,-65,168
10532.954,307,304,292,312,-15512,7444,6320,174,416,-393
10539.675,307,304,292,311,-15512,7444,6320,174,416,-393
10544.079,306,303,293,311,-15512,7444,6320,174,416,-393
10551.511,306,302,294,311,-15512,7444,6320,174,416,-393
10555.283,307,303,295,311,-15512,7444,6320,174,416,-393
10566.333,307,302,295,312,-15512,7444,6320,174,416,-393
10573.37,307,303,295,312,-15512,7444,6320,174,416,-393
10577.538,308,303,294,312,-14576,6460,5808,199,-101,293
10577.538,309,303,292,311,-14576,6460,5808,199,-101,293
10588.417,309,303,291,312,-14576,6460,5808,199,-101,293
10592.321,309,303,291,311,-14576,6460,5808,199,-101,293
10598.686,310,303,292,311,-14576,6460,5808,199,-101,293
10606.989,309,302,294,310,-14576,6460,5808,199,-101,293
10609.859,307,303,293,311,-14576,6460,5808,199,-101,293
10616.835,307,303,292,311,-15472,6180,5372,-343,159,100
10621.888,307,302,291,310,-15472,6180,5372,-343,159,100
10624.852,307,302,290,311,-15472,6180,5372,-343,159,100
10633.449,308,302,290,310,-15472,6180,5372,-343,159,100
10643.623,308,301,290,309,-15472,6180,5372,-343,159,100
10644.364,309,301,292,310,-15472,6180,5372,-343,159,100
10654.82,308,301,294,310,-15472,6180,5372,-343,159,100
10654.82,308,301,295,310,-14356,5476,5044,-207,-202,350
10665.924,308,300,295,310,-14356,5476,5044,-207,-202,350
10665.924,308,301,295,310,-14356,5476,5044,-207,-202,350
10677.82,307,301,293,310,-14356,5476,5044,-207,-202,350
10682.263,307,301,293,309,-14356,5476,5044,-207,-202,350
10688.6,305,300,294,309,-14356,5476,5044,-207,-202,350
10694.612,304,300,295,309,-13412,5872,5272,271,80,-209
10698.981,302,301,297,309,-13412,5872,5272,271,80,-209
10702.568,303,300,299,309,-13412,5872,5272,271,80,-209
10710.689,303,300,299,309,-13412,5872,5272,271,80,-209
10721.529,304,300,298,309,-13412,5872,5272,271,80,-209
10722.187,305,300,297,309,-13412,5872,5272,271,80,-209
10728.875,305,300,297,309,-13412,5872,5272,271,80,-209
10732.851,304,300,297,309,-14420,6336,5600,423,-114,-48
10742.098,302,300,297,309,-14420,6336,5600,423,-114,-48
10750.205,301,300,299,309,-14420,6336,5600,423,-114,-48
10754.66,300,299,299,309,-14420,6336,5600,423,-114,-48
10757.92,299,300,300,309,-14420,6336,5600,423,-114,-48
10766.521,299,300,300,309,-14420,6336,5600,423,-114,-48
10770.025,299,300,298,309,-14420,6336,5600,423,-114,-48
10776.621,299,300,299,309,-13988,6408,5636,300,-76,-163
10780.15,299,301,299,309,-13988,6408,5636,300,-76,-163
10788.977,298,301,300,310,-13988,6408,5636,300,-76,-163
10792.419,298,301,301,309,-13988,6408,5636,300,-76,-163
10798.722,298,300,301,309,-13988,6408,5636,300,-76,-163
10805.895,298,300,301,309,-13988,6408,5636,300,-76,-163
10811.192,299,300,300,309,-13988,6408,5636,300,-76,-163
10813.455,297,300,299,309,-15020,6536,5844,-125,118,-10
10821.823,297,300,299,308,-15020,6536,5844,-125,118,-10
10831.913,295,300,299,308,-15020,6536,5844,-125,118,-10
10833.749,295,299,300,308,-15020,6536,5844,-125,118,-10
10843.736,295,300,301,308,-15020,6536,5844,-125,118,-10
10843.736,294,300,302,308,-15020,6536,5844,-125,118,-10
10855.477,296,300,302,309,-15020,6536,5844,-125,118,-10
10858.484,297,300,301,309,-14864,6424,5680,-202,-402,261
10858.484,297,299,299,310,-14864,6424,5680,-202,-402,261
10867.131,297,300,299,309,-14864,6424,5680,-202,-402,261
10877.82,297,300,299,308,-14864,6424,5680,-202,-402,261
10877.82,296,300,300,309,-14864,6424,5680,-202,-402,261
10888.578,295,301,301,308,-14864,6424,5680,-202,-402,261
10894.262,295,301,302,308,-13808,5824,5240,104,-232,-11
10898.868,294,300,302,308,-13808,5824,5240,104,-232,-11
10902.996,294,300,301,309,-13808,5824,5240,104,-232,-11
10911.783,294,300,301,309,-13808,5824,5240,104,-232,-11
10920.926,295,300,300,309,-13808,5824,5240,104,-232,-11
10923.337,296,301,301,309,-13808,5824,5240,104,-232,-11
10931.448,296,301,301,310,-13808,5824,5240,104,-232,-11
10932.21,297,301,302,309,-14056,5872,5416,175,-157,7
10940.145,297,300,302,309,-14056,5872,5416,175,-157,7
10944.382,297,300,302,309,-14056,5872,5416,175,-157,7
10955.001,296,300,301,309,-14056,5872,5416,175,-157,7
10955.001,295,301,301,309,-14056,5872,5416,175,-157,7
10965.814,295,301,300,309,-14056,5872,5416,175,-157,7
10968.764,295,301,301,309,-14056,5872,5416,175,-157,7
10976.632,296,301,301,308,-13924,6108,5584,-141,116,-73
10980.675,298,301,303,309,-13924,6108,5584,-141,116,-73
10988.229,297,301,303,310,-13924,6108,5584,-141,116,-73
10988.229,298,301,302,310,-13924,6108,5584,-141,116,-73
10999.835,299,301,301,309,-13924,6108,5584,-141,116,-73
11007.907,299,302,300,309,-13924,6108,5584,-141,116,-73
11010.463,298,302,299,310,-13924,6108,5584,-141,116,-73
11013.866,298,302,299,309,-14292,6364,5796,-108,90,-74
11021.24,299,302,300,309,-14292,6364,5796,-108,90,-74
11026.393,299,302,301,309,-14292,6364,5796,-108,90,-74
11032.731,300,302,301,309,-14292,6364,5796,-108,90,-74
11038.154,299,302,301,309,-14292,6364,5796,-108,90,-74
11043.363,300,302,300,309,-14292,6364,5796,-108,90,-74
11050.359,301,302,300,309,-14292,6364,5796,-108,90,-74
11055.315,301,303,299,309,-14668,6372,5700,54,-105,102
11058.898,302,302,299,309,-14668,6372,5700,54,-105,102
11066.905,302,302,300,309,-14668,6372,5700,54,-105,102
11077.367,303,302,300,308,-14668,6372,5700,54,-105,102
11077.367,303,302,300,309,-14668,6372,5700,54,-105,102
11084.849,303,303,299,310,-14668,6372,5700,54,-105,102
11088.839,302,302,299,309,-14668,6372,5700,54,-105,102
11096.4,304,302,298,309,-14248,6112,5560,-15,33,35
11100.095,304,302,298,309,-14248,6112,5560,-15,33,35
11110.751,304,302,297,308,-14248,6112,5560,-15,33,35
11110.751,305,302,297,308,-14248,6112,5560,-15,33,35
11122.573,305,302,297,308,-14248,6112,5560,-15,33,35
11122.573,305,302,298,309,-14248,6112,5560,-15,33,35
11128.791,306,302,298,309,-14248,6112,5560,-15,33,35
11133.228,306,302,297,308,-14336,6228,5656,-62,26,26
11143.727,306,301,297,308,-14336,6228,5656,-62,26,26
11144.34,305,301,296,309,-14336,6228,5656,-62,26,26
11154.906,307,302,296,308,-14336,6228,5656,-62,26,26
11157.371,306,302,296,308,-14336,6228,5656,-62,26,26
11157.371,307,302,297,309,-14336,6228,5656,-62,26,26
11167.034,306,303,298,308,-14336,6228,5656,-62,26,26
11175.379,307,303,297,308,-14336,6228,5656,-62,26,26
11177.454,307,303,297,308,-14228,6144,5456,-27,165,-75
11188.146,307,302,297,308,-14228,6144,5456,-27,165,-75
11190.034,308,302,296,308,-14228,6144,5456,-27,165,-75
11198.742,308,303,295,307,-14228,6144,5456,-27,165,-75
11201.842,307,302,296,308,-14228,6144,5456,-27,165,-75
11201.842,308,302,297,308,-14228,6144,5456,-27,165,-75
11210.039,308,302,297,308,-14228,6144,5456,-27,165,-75
11221.236,308,302,297,308,-14188,5992,5392,-57,34,70
11222.042,309,302,297,308,-14188,5992,5392,-57,34,70
11233.931,309,302,297,308,-14188,5992,5392,-57,34,70
11234.157,310,302,295,307,-14188,5992,5392,-57,34,70
11244.244,311,302,295,307,-14188,5992,5392,-57,34,70
11247.458,311,302,295,308,-14188,5992,5392,-57,34,70
11247.458,311,302,295,307,-14188,5992,5392,-57,34,70
11254.593,310,302,295,307,-14232,6176,5452,-28,76,54
11265.652,311,302,296,307,-14232,6176,5452,-28,76,54
11265.652,310,302,296,307,-14232,6176,5452,-28,76,54
11276.772,310,302,296,307,-14232,6176,5452,-28,76,54
11276.772,311,302,295,307,-14232,6176,5452,-28,76,54
11285.084,311,302,296,307,-14232,6176,5452,-28,76,54
11288.743,312,301,295,306,-14232,6176,5452,-28,76,54
11296.876,311,302,295,307,-14300,6276,5604,109,-67,18
11300.968,310,302,296,307,-14300,6276,5604,109,-67,18
11310.064,309,302,296,306,-14300,6276,5604,109,-67,18
11312.939,310,302,296,306,-14300,6276,5604,109,-67,18
11321.168,310,302,296,306,-14300,6276,5604,109,-67,18
11324.669,309,302,297,306,-14300,6276,5604,109,-67,18
11324.669,310,302,297,306,-14300,6276,5604,109,-67,18
11332.464,309,302,296,306,-14228,6212,5416,70,-8,-57
11343.83,310,303,297,307,-14228,6212,5416,70,-8,-57
11343.83,309,302,297,307,-14228,6212,5416,70,-8,-57
11354.406,310,303,298,306,-14228,6212,5416,70,-8,-57
11354.406,309,303,297,306,-14228,6212,5416,70,-8,-57
11362.322,309,302,297,306,-14228,6212,5416,70,-8,-57
11366.426,309,302,297,306,-14228,6212,5416,70,-8,-57
11377.222,309,301,296,306,-14228,6212,5416,70,-8,-57
11377.39,308,303,296,307,-14256,6136,5528,73,105,-71
11388.202,308,302,297,307,-14256,6136,5528,73,105,-71
11390.587,308,303,297,307,-14256,6136,5528,73,105,-71
11399.056,308,303,297,306,-14256,6136,5528,73,105,-71
11402.907,308,303,297,307,-14256,6136,5528,73,105,-71
11410.084,309,302,296,307,-14256,6136,5528,73,105,-71
11412.603,309,303,296,307,-14256,6136,5528,73,105,-71
11422.018,309,302,296,306,-14448,6184,5488,-24,172,-75
11430.096,309,303,295,306,-14448,6184,5488,-24,172,-75
11433.023,309,303,295,306,-14448,6184,5488,-24,172,-75
11433.023,309,303,296,305,-14448,6184,5488,-24,172,-75
11444.334,309,303,296,305,-14448,6184,5488,-24,172,-75
11448.656,309,303,296,306,-14448,6184,5488,-24,172,-75
11454.875,308,302,295,305,-14448,6184,5488,-24,172,-75
11459.987,310,302,295,305,-14240,6040,5400,-218,17,1
11465.741,309,303,295,306,-14240,6040,5400,-218,17,1
11468.625,308,303,295,305,-14240,6040,5400,-218,17,1
11478.139,309,303,295,305,-14240,6040,5400,-218,17,1
11478.139,308,303,296,306,-14240,6040,5400,-218,17,1
11488.547,308,303,296,306,-14240,6040,5400,-218,17,1
11488.547,308,303,297,305,-14240,6040,5400,-218,17,1
11499.46,308,303,297,306,-14280,6252,5476,-59,27,40
11507.865,308,303,296,306,-14280,6252,5476,-59,27,40
11511.667,306,303,296,306,-14280,6252,5476,-59,27,40
11514.497,306,303,296,306,-14280,6252,5476,-59,27,40
11521.293,306,303,297,306,-14280,6252,5476,-59,27,40
11525.958,305,303,297,306,-14280,6252,5476,-59,27,40
11532.667,306,303,298,306,-14280,6252,5476,-59,27,40
11534.07,306,303,297,305,-14244,6260,5500,39,-102,109
11543.338,306,302,298,306,-14244,6260,5500,39,-102,109
11543.338,306,303,298,305,-14244,6260,5500,39,-102,109
11555.059,305,303,297,305,-14244,6260,5500,39,-102,109
11559.199,304,303,297,305,-14244,6260,5500,39,-102,109
11566.48,305,303,298,306,-14244,6260,5500,39,-102,109
11571.094,304,303,298,305,-14244,6260,5500,39,-102,109
11576.893,304,303,298,305,-14192,6276,5512,-62,-16,-89
11583.066,304,304,298,305,-14192,6276,5512,-62,-16,-89
11589.136,304,303,298,306,-14192,6276,5512,-62,-16,-89
11598.408,304,304,298,305,-14192,6276,5512,-62,-16,-89
11599.129,304,304,298,306,-14192,6276,5512,-62,-16,-89
11610.13,304,303,299,306,-14192,6276,5512,-62,-16,-89
11610.13,304,303,298,306,-14192,6276,5512,-62,-16,-89
11621.236,304,304,299,305,-14388,6256,5528,-171,-31,-49
11627.156,303,303,299,306,-14388,6256,5528,-171,-31,-49
11630.083,302,303,299,306,-14388,6256,5528,-171,-31,-49
11633.14,303,303,300,304,-14388,6256,5528,-171,-31,-49
11641.09,302,303,299,305,-14388,6256,5528,-171,-31,-49
11644.9,302,303,300,305,-14388,6256,5528,-171,-31,-49
11655.121,302,302,300,305,-14388,6256,5528,-171,-31,-49
11663.258,302,303,300,305,-14240,6244,5468,-176,-45,-112
11667.267,302,302,300,306,-14240,6244,5468,-176,-45,-112
11676.295,303,302,300,306,-14240,6244,5468,-176,-45,-112
11677.839,302,301,300,305,-14240,6244,5468,-176,-45,-112
11687.776,302,301,300,306,-14240,6244,5468,-176,-45,-112
11689.488,302,302,300,305,-14240,6244,5468,-176,-45,-112
11700.251,303,302,300,306,-14240,6244,5468,-176,-45,-112
11700.251,303,302,300,306,-14260,6072,5388,-77,55,-67
11706.388,303,302,300,305,-14260,6072,5388,-77,55,-67
11710.801,303,303,300,305,-14260,6072,5388,-77,55,-67
11721.092,304,303,300,305,-14260,6072,5388,-77,55,-67
11721.732,303,303,301,305,-14260,6072,5388,-77,55,-67
11732.893,303,303,301,305,-14260,6072,5388,-77,55,-67
11732.893,303,303,300,305,-14260,6072,5388,-77,55,-67
11744.016,303,303,300,304,-14324,6212,5516,-37,-87,32
11747.213,303,302,299,305,-14324,6212,5516,-37,-87,32
11747.213,304,303,299,304,-14324,6212,5516,-37,-87,32
11755.201,304,303,300,304,-14324,6212,5516,-37,-87,32
11765.453,303,302,300,305,-14324,6212,5516,-37,-87,32
11765.453,302,302,299,304,-14324,6212,5516,-37,-87,32
11776.751,303,302,299,304,-14324,6212,5516,-37,-87,32
11776.751,303,302,299,304,-14264,6340,5448,-111,-52,-72
11788.485,304,302,299,305,-14264,6340,5448,-111,-52,-72
11792.39,305,302,299,305,-14264,6340,5448,-111,-52,-72
11799.844,306,302,299,304,-14264,6340,5448,-111,-52,-72
11803.815,305,302,299,305,-14264,6340,5448,-111,-52,-72
11810.115,304,302,299,305,-14264,6340,5448,-111,-52,-72
11810.115,304,302,299,304,-14264,6340,5448,-111,-52,-72
11822.546,304,301,299,305,-14276,6192,5476,-89,-105,-43
11831.26,304,302,299,305,-14276,6192,5476,-89,-105,-43
11833.588,304,301,298,304,-14276,6192,5476,-89,-105,-43
11843.355,305,301,298,304,-14276,6192,5476,-89,-105,-43
11845.161,305,301,299,305,-14276,6192,5476,-89,-105,-43
11853.296,305,301,298,305,-14276,6192,5476,-89,-105,-43
11855.601,305,302,299,304,-14336,5996,5328,-329,-41,-8
11862.104,305,302,298,305,-14336,5996,5328,-329,-41,-8
11866.5,305,302,299,305,-14336,5996,5328,-329,-41,-8
11876.58,305,302,298,304,-14336,5996,5328,-329,-41,-8
11877.352,305,302,299,304,-14336,5996,5328,-329,-41,-8
11888.507,305,302,299,305,-14336,5996,5328,-329,-41,-8
11888.507,304,303,299,305,-14336,5996,5328,-329,-41,-8
11899.535,304,303,299,305,-14248,6104,5508,-260,-217,83
11902.322,302,303,299,306,-14248,6104,5508,-260,-217,83
11912.558,301,304,299,306,-14248,6104,5508,-260,-217,83
11912.558,299,304,299,305,-14248,6104,5508,-260,-217,83
11922.093,298,303,299,306,-14248,6104,5508,-260,-217,83
11927.427,298,302,300,306,-14248,6104,5508,-260,-217,83
11932.748,297,301,299,305,-14248,6104,5508,-260,-217,83
11943.031,298,301,299,306,-14356,6172,5532,85,-207,140
11944.992,298,300,299,306,-14356,6172,5532,85,-207,140
11953.907,299,300,299,306,-14356,6172,5532,85,-207,140
11955.576,300,300,299,305,-14356,6172,5532,85,-207,140
11960.904,301,299,299,306,-14356,6172,5532,85,-207,140
11965.491,301,299,298,305,-14356,6172,5532,85,-207,140
11972.573,300,299,298,305,-14356,6172,5532,85,-207,140
11977.49,301,299,298,305,-14380,5784,5460,-49,-182,388
11984.311,300,299,298,306,-14380,5784,5460,-49,-182,388
11989.132,300,300,297,305,-14380,5784,5460,-49,-182,388
11999.723,301,300,298,305,-14380,5784,5460,-49,-182,388
11999.723,301,300,298,305,-14380,5784,5460,-49,-182,388
12010.056,301,300,298,305,-14380,5784,5460,-49,-182,388
12010.056,301,301,298,305,-14380,5784,5460,-49,-182,388
12021.809,301,301,299,306,-14204,5788,5180,115,-323,677
12021.809,300,301,299,306,-14204,5788,5180,115,-323,677
12033.256,300,301,299,306,-14204,5788,5180,115,-323,677
12038.55,300,302,298,306,-14204,5788,5180,115,-323,677
12043.353,300,302,299,307,-14204,5788,5180,115,-323,677
12046.313,300,303,299,307,-14204,5788,5180,115,-323,677
12055.111,300,304,300,307,-14204,5788,5180,115,-323,677
12065.199,300,303,300,308,-14284,5468,4996,292,-501,1320
12066.64,299,304,300,308,-14284,5468,4996,292,-501,1320
12077.667,300,303,300,308,-14284,5468,4996,292,-501,1320
12077.667,301,303,301,308,-14284,5468,4996,292,-501,1320
12088.123,302,303,302,308,-14284,5468,4996,292,-501,1320
12088.123,302,303,303,308,-14284,5468,4996,292,-501,1320
12101.872,301,303,303,308,-14256,4796,4684,282,-1011,2469
12105.562,299,304,304,307,-14256,4796,4684,282,-1011,2469
12114.252,296,304,303,306,-14256,4796,4684,282,-1011,2469
12118.384,294,305,305,305,-14256,4796,4684,282,-1011,2469
12124.605,290,307,308,304,-14256,4796,4684,282,-1011,2469
12124.605,287,307,310,304,-14256,4796,4684,282,-1011,2469
12139.059,285,307,312,302,-14256,4796,4684,282,-1011,2469
12140.652,284,307,314,303,-14164,3140,3816,-1171,-1858,5001
12144.506,280,306,314,301,-14164,3140,3816,-1171,-1858,5001
12155.085,278,305,314,300,-14164,3140,3816,-1171,-1858,5001
12163.467,276,303,315,301,-14164,3140,3816,-1171,-1858,5001
12166.304,275,303,316,302,-14164,3140,3816,-1171,-1858,5001
12168.906,274,303,316,301,-14164,3140,3816,-1171,-1858,5001
12177.105,273,302,316,301,-13612,4684,4572,-497,-3743,7410
12188.064,272,301,316,301,-13612,4684,4572,-497,-3743,7410
12188.918,272,301,316,301,-13612,4684,4572,-497,-3743,7410
12199.795,272,300,315,300,-13612,4684,4572,-497,-3743,7410
12208.161,273,298,315,301,-13612,4684,4572,-497,-3743,7410
12210.572,274,297,315,301,-13612,4684,4572,-497,-3743,7410
12215.612,277,296,314,301,-13612,4684,4572,-497,-3743,7410
12222.04,280,296,312,302,-12680,6224,4520,2729,-6006,9177
12233.03,284,298,311,303,-12680,6224,4520,2729,-6006,9177
12233.03,287,298,310,302,-12680,6224,4520,2729,-6006,9177
12243.753,291,302,307,304,-12680,6224,4520,2729,-6006,9177
12243.753,294,304,307,305,-12680,6224,4520,2729,-6006,9177
12255.888,297,307,305,305,-12680,6224,4520,2729,-6006,9177
12259.507,301,310,305,306,-11872,7216,5224,4152,-7925,10582
12266.56,307,315,304,307,-11872,7216,5224,4152,-7925,10582
12277.814,312,317,304,306,-11872,7216,5224,4152,-7925,10582
12277.814,316,318,303,307,-11872,7216,5224,4152,-7925,10582
12288.439,321,320,303,308,-11872,7216,5224,4152,-7925,10582
12288.439,327,322,303,307,-11872,7216,5224,4152,-7925,10582
12300.279,333,325,303,308,-10440,9244,7032,4175,-7092,11860
12300.279,339,329,302,309,-10440,9244,7032,4175,-7092,11860
12310.704,343,334,298,307,-10440,9244,7032,4175,-7092,11860
12321.168,347,342,294,306,-10440,9244,7032,4175,-7092,11860
12321.168,347,351,294,306,-10440,9244,7032,4175,-7092,11860
12332.517,346,359,293,304,-10440,9244,7032,4175,-7092,11860
12332.517,342,366,292,302,-10440,9244,7032,4175,-7092,11860
12343.702,336,374,292,301,-8528,9328,4608,-1261,-8155,13393
12343.702,328,385,291,300,-8528,9328,4608,-1261,-8155,13393
12354.638,318,394,291,299,-8528,9328,4608,-1261,-8155,13393
12354.638,310,404,293,299,-8528,9328,4608,-1261,-8155,13393
12366.38,298,415,295,298,-8528,9328,4608,-1261,-8155,13393
12377.878,289,423,298,297,-8528,9328,4608,-1261,-8155,13393
12377.878,280,431,302,296,-7416,10356,6560,-4147,-9735,14159
12388.529,273,441,307,295,-7416,10356,6560,-4147,-9735,14159
12396.614,265,448,318,293,-7416,10356,6560,-4147,-9735,14159
12398.842,260,455,331,292,-7416,10356,6560,-4147,-9735,14159
12410.803,253,461,344,289,-7416,10356,6560,-4147,-9735,14159
12415.698,248,464,357,286,-7416,10356,6560,-4147,-9735,14159
12421.516,245,460,380,283,-6824,10360,6424,-5844,-11511,13978
12426.675,252,450,415,280,-6824,10360,6424,-5844,-11511,13978
12432.364,265,439,445,277,-6824,10360,6424,-5844,-11511,13978
12444.131,273,429,474,275,-6824,10360,6424,-5844,-11511,13978
12447.548,280,423,499,274,-6824,10360,6424,-5844,-11511,13978
12456.098,291,425,518,275,-6824,10360,6424,-5844,-11511,13978
12456.098,301,429,532,278,-4040,11912,8200,-6662,-12781,12534
12466.401,316,437,551,281,-4040,11912,8200,-6662,-12781,12534
12477.05,337,443,568,287,-4040,11912,8200,-6662,-12781,12534
12477.05,353,447,584,293,-4040,11912,8200,-6662,-12781,12534
12488.7,362,453,601,303,-4040,11912,8200,-6662,-12781,12534
12492.95,361,457,612,309,-4040,11912,8200,-6662,-12781,12534
12499.637,356,463,624,319,-2932,11532,11856,-8766,-12144,11972
12510.596,349,469,632,329,-2932,11532,11856,-8766,-12144,11972
12513.551,337,475,632,336,-2932,11532,11856,-8766,-12144,11972
12521.701,327,473,629,342,-2932,11532,11856,-8766,-12144,11972
12531.903,307,463,621,349,-2932,11532,11856,-8766,-12144,11972
12533.194,283,443,609,354,-2932,11532,11856,-8766,-12144,11972
12544.428,254,425,589,357,-1604,13416,12160,-7582,-11203,9952
12544.428,229,418,565,360,-1604,13416,12160,-7582,-11203,9952
12555.696,213,414,542,364,-1604,13416,12160,-7582,-11203,9952
12564.782,201,407,517,368,-1604,13416,12160,-7582,-11203,9952
12566.202,198,400,491,368,-1604,13416,12160,-7582,-11203,9952
12577.35,196,387,460,365,-1604,13416,12160,-7582,-11203,9952
12577.35,195,374,433,363,-760,11260,15396,-9693,-8484,8174
12588.742,197,365,397,360,-760,11260,15396,-9693,-8484,8174
12596.834,199,358,356,356,-760,11260,15396,-9693,-8484,8174
12599.665,204,354,319,355,-760,11260,15396,-9693,-8484,8174
12602.893,209,350,282,352,-760,11260,15396,-9693,-8484,8174
12610.138,215,350,254,348,-760,11260,15396,-9693,-8484,8174
12621.678,223,354,230,347,-1300,13276,14888,-7938,-6872,6626
12630.048,229,368,211,344,-1300,13276,14888,-7938,-6872,6626
12633.49,235,380,197,343,-1300,13276,14888,-7938,-6872,6626
12636.705,239,391,189,343,-1300,13276,14888,-7938,-6872,6626
12643.17,243,392,182,344,-1300,13276,14888,-7938,-6872,6626
12655.02,245,388,181,344,-1300,13276,14888,-7938,-6872,6626
12658.827,244,380,184,348,-1384,11144,16160,-7698,-5364,4936
12666.36,242,373,194,348,-1384,11144,16160,-7698,-5364,4936
12674.44,239,366,214,349,-1384,11144,16160,-7698,-5364,4936
12677.251,234,354,238,351,-1384,11144,16160,-7698,-5364,4936
12680.853,227,337,263,352,-1384,11144,16160,-7698,-5364,4936
12687.945,221,319,281,351,-1384,11144,16160,-7698,-5364,4936
12699.508,219,294,302,351,-1384,11144,16160,-7698,-5364,4936
12707.877,219,272,319,351,-184,10100,15372,-4911,-3749,4890
12711.89,218,246,335,347,-184,10100,15372,-4911,-3749,4890
12714.682,215,224,344,346,-184,10100,15372,-4911,-3749,4890
12721.913,221,201,349,345,-184,10100,15372,-4911,-3749,4890
12733.133,260,180,352,343,-184,10100,15372,-4911,-3749,4890
12733.133,313,162,353,340,-184,10100,15372,-4911,-3749,4890
12743.985,369,147,352,340,232,8652,12884,-3116,-2971,4535
12752.066,429,132,356,340,232,8652,12884,-3116,-2971,4535
12755.104,473,122,361,338,232,8652,12884,-3116,-2971,4535
12765.447,512,114,363,337,232,8652,12884,-3116,-2971,4535
12766.44,547,108,363,336,232,8652,12884,-3116,-2971,4535
12777.821,578,102,358,334,232,8652,12884,-3116,-2971,4535
12777.821,605,97,351,332,328,7936,12448,-5976,-3273,4627
12789.381,633,94,344,329,328,7936,12448,-5976,-3273,4627
12789.381,648,93,337,327,328,7936,12448,-5976,-3273,4627
12797.672,663,90,327,324,328,7936,12448,-5976,-3273,4627
12799.859,675,87,319,321,328,7936,12448,-5976,-3273,4627
12810.893,682,83,310,317,328,7936,12448,-5976,-3273,4627
12818.996,684,80,298,314,328,7936,12448,-5976,-3273,4627
12822.141,683,78,287,310,6440,22780,21240,7013,-470,-933
12830.433,674,77,275,305,6440,22780,21240,7013,-470,-933
12833.492,665,78,264,302,6440,22780,21240,7013,-470,-933
12837.586,652,81,253,300,6440,22780,21240,7013,-470,-933
12844.212,638,87,241,298,6440,22780,21240,7013,-470,-933
12855.475,623,94,229,295,6440,22780,21240,7013,-470,-933
12855.475,608,103,220,294,6440,22780,21240,7013,-470,-933
12866.094,591,113,212,293,532,7772,11048,1804,-272,271
12866.094,572,125,202,291,532,7772,11048,1804,-272,271
12874.199,558,133,196,290,532,7772,11048,1804,-272,271
12877.837,545,140,190,290,532,7772,11048,1804,-272,271
12888.57,528,147,184,289,532,7772,11048,1804,-272,271
12896.57,511,154,180,286,532,7772,11048,1804,-272,271
12899.553,494,158,173,285,532,7772,11048,1804,-272,271
12902.024,478,161,170,284,1628,8920,15228,-1945,672,173
12909.909,458,168,163,281,1628,8920,15228,-1945,672,173
12914.444,443,172,159,278,1628,8920,15228,-1945,672,173
12921.402,423,178,156,277,1628,8920,15228,-1945,672,173
12926.384,402,184,151,276,1628,8920,15228,-1945,672,173
12932.318,382,190,147,273,1628,8920,15228,-1945,672,173
12938.83,362,196,143,272,328,7248,13176,-2398,197,524
12943.326,344,200,139,270,328,7248,13176,-2398,197,524
12947.24,329,204,135,266,328,7248,13176,-2398,197,524
12954.875,310,207,131,263,328,7248,13176,-2398,197,524
12966.004,292,210,125,261,328,7248,13176,-2398,197,524
12966.697,277,214,121,257,328,7248,13176,-2398,197,524
12978.327,262,218,115,254,328,7248,13176,-2398,197,524
12978.327,247,222,109,251,952,9052,13664,773,450,-348
12985.913,232,225,99,249,952,9052,13664,773,450,-348
12988.856,221,230,90,246,952,9052,13664,773,450,-348
12998.871,206,234,80,244,952,9052,13664,773,450,-348
12999.869,192,238,75,243,952,9052,13664,773,450,-348
13010.48,173,244,71,241,952,9052,13664,773,450,-348
13012.289,154,248,69,238,952,9052,13664,773,450,-348
13020.377,129,252,67,237,952,9052,13664,773,450,-348
13023.596,102,256,68,236,856,9140,12912,2580,462,-189
13029.433,65,260,70,233,856,9140,12912,2580,462,-189
13032.793,44,263,72,232,856,9140,12912,2580,462,-189
13043.742,18,265,74,231,856,9140,12912,2580,462,-189
13045.404,0,267,77,230,856,9140,12912,2580,462,-189
13045.404,0,268,81,230,856,9140,12912,2580,462,-189
13055.544,0,269,86,230,856,9140,12912,2580,462,-189
13062.267,0,270,90,231,840,8896,13560,2266,81,-141
13066.421,0,271,95,232,840,8896,13560,2266,81,-141
13070.39,0,271,98,232,840,8896,13560,2266,81,-141
13078.306,0,272,104,234,840,8896,13560,2266,81,-141
13078.306,0,272,110,235,840,8896,13560,2266,81,-141
13088.446,0,273,116,236,840,8896,13560,2266,81,-141
13096.894,0,273,122,237,840,8896,13560,2266,81,-141
13099.673,0,272,128,240,800,8872,13164,126,114,62
13102.477,2,274,133,242,800,8872,13164,126,114,62
13110.386,6,275,137,242,800,8872,13164,126,114,62
13115.08,11,275,143,244,800,8872,13164,126,114,62
13121.552,18,276,148,248,800,8872,13164,126,114,62
13123.359,24,276,152,249,800,8872,13164,126,114,62
13133.861,32,277,158,253,800,8872,13164,126,114,62
13133.861,38,277,163,255,800,8872,13164,126,114,62
13142.733,45,278,169,257,716,9000,13300,-1381,277,73
13144.127,56,278,178,259,716,9000,13300,-1381,277,73
13154.849,63,279,182,261,716,9000,13300,-1381,277,73
13155.024,73,280,188,263,716,9000,13300,-1381,277,73
13165.844,83,281,194,266,716,9000,13300,-1381,277,73
13165.844,94,282,199,267,716,9000,13300,-1381,277,73
13175.256,103,283,205,268,716,9000,13300,-1381,277,73
13179.527,114,284,210,270,896,9348,13440,-524,134,-158
13185.271,125,285,216,272,896,9348,13440,-524,134,-158
13188.674,134,285,219,273,896,9348,13440,-524,134,-158
13199.402,145,286,225,275,896,9348,13440,-524,134,-158
13199.402,156,286,231,277,896,9348,13440,-524,134,-158
13210.183,166,287,235,278,896,9348,13440,-524,134,-158
13213.189,174,288,240,279,896,9348,13440,-524,134,-158
13221.286,183,290,245,281,656,8748,13336,339,-2,-171
13225.275,192,290,250,282,656,8748,13336,339,-2,-171
13232.532,200,290,254,284,656,8748,13336,339,-2,-171
13233.808,208,291,258,285,656,8748,13336,339,-2,-171
13244.159,215,291,261,287,656,8748,13336,339,-2,-171
13244.159,224,290,264,288,656,8748,13336,339,-2,-171
13255.247,231,291,268,288,656,8748,13336,339,-2,-171
13258.65,238,291,272,290,656,8748,13336,339,-2,-171
13266.773,243,292,275,291,888,9248,13400,1214,-115,-315
13271.293,250,291,278,292,888,9248,13400,1214,-115,-315
13277.833,256,292,281,293,888,9248,13400,1214,-115,-315
13277.833,262,291,284,295,888,9248,13400,1214,-115,-315
13289.556,268,292,288,296,888,9248,13400,1214,-115,-315
13297.921,272,293,291,297,888,9248,13400,1214,-115,-315
13299.964,276,293,294,299,888,9248,13400,1214,-115,-315
13304.3,281,294,297,300,612,8976,13224,-4,65,-187
13310.796,286,295,299,300,612,8976,13224,-4,65,-187
13315.328,290,296,302,301,612,8976,13224,-4,65,-187
13321.263,293,296,303,303,612,8976,13224,-4,65,-187
13324.242,297,297,304,303,612,8976,13224,-4,65,-187
13333.707,301,296,305,303,612,8976,13224,-4,65,-187
13333.707,304,297,308,304,612,8976,13224,-4,65,-187
13343.994,308,298,310,306,764,9208,13280,-299,28,-177
13348.659,312,298,311,306,764,9208,13280,-299,28,-177
13354.929,314,299,313,307,764,9208,13280,-299,28,-177
13361.247,317,299,315,309,764,9208,13280,-299,28,-177
13365.592,319,299,316,309,764,9208,13280,-299,28,-177
13369.092,322,300,317,310,764,9208,13280,-299,28,-177
13377.789,324,299,319,311,764,9208,13280,-299,28,-177
13377.789,326,300,320,313,716,9128,13372,-417,103,-255
13389.081,329,299,321,313,716,9128,13372,-417,103,-255
13397.1,330,300,322,314,716,9128,13372,-417,103,-255
13399.589,331,301,324,315,716,9128,13372,-417,103,-255
13406.12,334,301,325,315,716,9128,13372,-417,103,-255
13410.631,336,302,325,315,716,9128,13372,-417,103,-255
13414.402,338,302,326,316,716,9128,13372,-417,103,-255
13421.931,339,302,327,316,708,9024,13436,22,34,-96
13421.931,342,304,327,316,708,9024,13436,22,34,-96
13432.939,342,304,326,316,708,9024,13436,22,34,-96
13439.692,343,304,327,317,708,9024,13436,22,34,-96
13443.896,345,304,327,317,708,9024,13436,22,34,-96
13453.189,347,305,326,318,708,9024,13436,22,34,-96
13454.927,348,305,326,318,708,9024,13436,22,34,-96
13459.411,350,305,325,318,708,9024,13436,22,34,-96
13466.674,351,305,325,318,744,9032,13212,750,-11,-140
13474.034,353,306,324,318,744,9032,13212,750,-11,-140
13477.992,353,308,326,318,744,9032,13212,750,-11,-140
13485.404,354,308,326,318,744,9032,13212,750,-11,-140
13489.94,356,309,326,318,744,9032,13212,750,-11,-140
13494.129,357,308,326,318,744,9032,13212,750,-11,-140
13501.283,358,309,326,319,744,9032,13212,750,-11,-140
13501.283,359,310,327,318,724,9144,13236,292,-75,85
13510.709,361,310,327,318,724,9144,13236,292,-75,85
13518.819,361,310,327,319,724,9144,13236,292,-75,85
13521.555,361,311,328,319,724,9144,13236,292,-75,85
13521.555,363,310,328,319,724,9144,13236,292,-75,85
13532.905,363,312,327,318,724,9144,13236,292,-75,85
13537.208,364,312,328,319,724,9144,13236,292,-75,85
13544.243,365,312,327,319,672,9248,13276,111,-32,-3
13545.561,367,312,327,319,672,9248,13276,111,-32,-3
13555.226,367,312,327,319,672,9248,13276,111,-32,-3
13555.226,368,312,329,319,672,9248,13276,111,-32,-3
13566.447,369,312,329,319,672,9248,13276,111,-32,-3
13566.447,371,312,328,318,672,9248,13276,111,-32,-3
13576.683,372,311,328,319,672,9248,13276,111,-32,-3
13578.003,373,310,329,319,672,9248,13276,111,-32,-3
13588.292,375,310,328,319,752,9236,13328,-205,-3,43
13589.977,377,308,327,318,752,9236,13328,-205,-3,43
13589.977,378,307,327,319,752,9236,13328,-205,-3,43
13599.757,379,306,327,319,752,9236,13328,-205,-3,43
13609.371,381,306,326,318,752,9236,13328,-205,-3,43
13609.959,382,305,326,318,752,9236,13328,-205,-3,43
13615.741,383,305,327,319,752,9236,13328,-205,-3,43
13621.654,384,303,328,319,704,8980,13192,24,-25,45
13626.863,385,302,327,317,704,8980,13192,24,-25,45
13632.162,386,302,328,317,704,8980,13192,24,-25,45
13639.699,386,301,327,318,704,8980,13192,24,-25,45
13643.989,387,300,326,318,704,8980,13192,24,-25,45
13647.823,387,300,326,316,704,8980,13192,24,-25,45
13656.337,387,299,325,316,704,8980,13192,24,-25,45
13656.337,387,298,326,316,704,8980,13192,24,-25,45
13665.507,387,297,325,316,732,9300,13288,233,-44,12
13668.074,387,297,324,315,732,9300,13288,233,-44,12
13678.116,387,297,324,315,732,9300,13288,233,-44,12
13678.116,385,296,324,315,732,9300,13288,233,-44,12
13688.808,384,296,323,313,732,9300,13288,233,-44,12
13694.544,383,296,322,313,732,9300,13288,233,-44,12
13700.208,382,296,321,313,732,9300,13288,233,-44,12
13700.485,379,296,319,313,712,9240,13308,115,25,-6
13710.362,378,297,319,312,712,9240,13308,115,25,-6
13710.362,376,297,319,312,712,9240,13308,115,25,-6
13720.637,375,297,319,312,712,9240,13308,115,25,-6
13722.436,373,297,317,311,712,9240,13308,115,25,-6
13730.343,371,298,316,311,712,9240,13308,115,25,-6
13733.189,369,298,316,311,712,9240,13308,115,25,-6
13738.269,367,299,316,311,712,9240,13308,115,25,-6
13743.772,365,300,314,311,664,9164,13140,66,-22,-41
13750.655,363,301,313,309,664,9164,13140,66,-22,-41
13755.231,362,302,312,309,664,9164,13140,66,-22,-41
13758.556,361,303,312,309,664,9164,13140,66,-22,-41
13766.03,358,304,311,308,664,9164,13140,66,-22,-41
13766.03,357,306,310,307,664,9164,13140,66,-22,-41
13778.397,355,308,310,307,664,9164,13140,66,-22,-41
13783.264,354,309,310,306,784,9260,13216,-86,14,0
13787.841,352,311,308,306,784,9260,13216,-86,14,0
13791.29,351,312,308,306,784,9260,13216,-86,14,0
13800.812,349,313,309,306,784,9260,13216,-86,14,0
13800.812,348,314,309,306,784,9260,13216,-86,14,0
13810.037,347,315,309,305,784,9260,13216,-86,14,0
13811.019,345,316,308,306,784,9260,13216,-86,14,0
13821.416,343,317,309,306,784,9260,13216,-86,14,0
13823.998,341,319,309,306,732,9052,13164,-142,13,10
13823.998,339,320,308,306,732,9052,13164,-142,13,10
13834.443,338,321,309,306,732,9052,13164,-142,13,10
13840.158,336,322,309,307,732,9052,13164,-142,13,10
13844.577,334,323,308,307,732,9052,13164,-142,13,10
13854.352,332,324,309,308,732,9052,13164,-142,13,10
13855.315,330,325,309,308,732,9052,13164,-142,13,10
13860.771,328,326,309,308,648,9412,13280,140,35,-95
13865.514,327,327,309,308,648,9412,13280,140,35,-95
13872.889,325,327,309,308,648,9412,13280,140,35,-95
13878.283,324,328,308,309,648,9412,13280,140,35,-95
13881.453,323,329,308,310,648,9412,13280,140,35,-95
13888.465,322,329,308,309,648,9412,13280,140,35,-95
13888.465,321,330,308,310,648,9412,13280,140,35,-95
13899.72,320,330,309,310,648,9412,13280,140,35,-95
13907.823,319,331,308,310,736,9164,13208,17,17,-117
13911.054,318,332,308,311,736,9164,13208,17,17,-117
13911.054,316,332,308,311,736,9164,13208,17,17,-117
13922.119,316,333,308,312,736,9164,13208,17,17,-117
13922.119,316,332,307,312,736,9164,13208,17,17,-117
13932.741,315,333,308,312,736,9164,13208,17,17,-117
13941.129,314,333,309,312,736,9164,13208,17,17,-117
13944.048,314,333,309,313,624,9184,13200,74,-15,-145
13944.048,313,334,308,312,624,9184,13200,74,-15,-145
13955.095,313,334,308,312,624,9184,13200,74,-15,-145
13959.044,313,334,308,313,624,9184,13200,74,-15,-145
13966.071,314,334,308,312,624,9184,13200,74,-15,-145
13967.428,314,334,308,312,624,9184,13200,74,-15,-145
13977.453,314,335,307,313,624,9184,13200,74,-15,-145
13978.459,315,336,307,313,624,9184,13200,74,-15,-145
13988.212,314,336,306,313,788,9196,13252,1,-35,-140
13988.212,315,337,305,313,788,9196,13252,1,-35,-140
13996.735,314,337,306,313,788,9196,13252,1,-35,-140
13999.709,314,337,304,313,788,9196,13252,1,-35,-140
14010.039,314,338,304,313,788,9196,13252,1,-35,-140
14010.039,314,339,303,312,788,9196,13252,1,-35,-140
14021.39,315,339,304,313,788,9196,13252,1,-35,-140
14021.39,315,339,304,312,744,9176,13136,-15,-22,-72
14031.782,316,340,303,312,744,9176,13136,-15,-22,-72
14033.678,316,340,303,312,744,9176,13136,-15,-22,-72
14043.66,318,340,303,312,744,9176,13136,-15,-22,-72
14044.348,319,341,302,311,744,9176,13136,-15,-22,-72
14054.457,320,341,303,312,744,9176,13136,-15,-22,-72
14057.303,322,341,302,312,744,9176,13136,-15,-22,-72
14057.303,323,340,302,312,724,9316,13184,85,33,-121
14066.552,324,340,302,311,724,9316,13184,85,33,-121
14073.842,324,341,302,311,724,9316,13184,85,33,-121
14078.605,325,341,302,312,724,9316,13184,85,33,-121
14087.919,326,342,303,311,724,9316,13184,85,33,-121
14089.717,327,341,302,311,724,9316,13184,85,33,-121
14089.717,328,341,302,311,724,9316,13184,85,33,-121
14099.786,328,341,302,311,724,9316,13184,85,33,-121
14106.471,329,341,302,311,740,9192,13096,-30,30,-39
14110.769,329,341,302,310,740,9192,13096,-30,30,-39
14121.186,329,341,302,311,740,9192,13096,-30,30,-39
14121.949,330,342,300,312,740,9192,13096,-30,30,-39
14126.907,329,342,300,312,740,9192,13096,-30,30,-39
14132.214,329,341,298,313,740,9192,13096,-30,30,-39
14134.959,329,340,299,315,740,9192,13096,-30,30,-39
14143.21,329,340,299,316,728,9244,13220,84,-18,-18
14143.21,330,340,299,316,728,9244,13220,84,-18,-18
14154.443,330,339,300,316,728,9244,13220,84,-18,-18
14154.443,329,339,300,316,728,9244,13220,84,-18,-18
14165.616,329,339,301,316,728,9244,13220,84,-18,-18
14165.616,328,338,301,316,728,9244,13220,84,-18,-18
14178.645,328,337,303,316,728,9244,13220,84,-18,-18
14178.645,328,336,303,316,728,9244,13220,84,-18,-18
14188.518,328,336,303,315,680,9384,13236,-64,48,-75
14188.518,329,335,302,315,680,9384,13236,-64,48,-75
14199.225,328,334,303,315,680,9384,13236,-64,48,-75
14201.964,327,334,303,315,680,9384,13236,-64,48,-75
14210.586,326,332,302,314,680,9384,13236,-64,48,-75
14210.586,325,331,302,314,680,9384,13236,-64,48,-75
14221.856,324,330,302,314,680,9384,13236,-64,48,-75
14221.856,322,328,301,313,760,9148,13136,-92,29,-82
14229.896,321,326,300,312,760,9148,13136,-92,29,-82
14232.913,319,324,300,312,760,9148,13136,-92,29,-82
14244.084,320,324,301,312,760,9148,13136,-92,29,-82
14244.084,320,322,301,312,760,9148,13136,-92,29,-82
14249.773,318,321,301,311,760,9148,13136,-92,29,-82
14254.98,318,320,301,311,760,9148,13136,-92,29,-82
