Time (ms),EMG1,EMG2,EMG3,EMG4,AccX,AccY,AccZ,GyroX,GyroY,GyroZ
1544.7869999999998,0,0,0,0,0,0,0,0,0,0
1544.7869999999998,0,0,0,0,0,0,0,0,0,0
1544.7869999999998,304,302,303,305,0,0,0,0,0,0
1561.656,303,302,302,305,0,0,0,0,0,0
1561.656,303,303,303,305,0,0,0,0,0,0
1567.164,303,303,303,305,0,0,0,0,0,0
1570.0510000000002,303,303,302,305,0,0,0,0,0,0
1577.2,303,303,302,305,0,0,0,0,0,0
1580.8329999999999,303,302,302,306,0,0,0,0,0,0
1583.54,304,303,303,306,0,0,0,0,0,0
1583.54,303,302,303,306,0,0,0,0,0,0
1583.54,304,303,303,306,0,0,0,0,0,0
1592.541,303,303,303,306,0,0,0,0,0,0
1592.541,303,303,303,306,0,0,0,0,0,0
1601.203,303,303,303,306,400,5956,14900,-151,31,7
1606.806,303,304,304,306,400,5956,14900,-151,31,7
1606.806,303,304,304,306,400,5956,14900,-151,31,7
1616.3419999999999,303,304,303,305,400,5956,14900,-151,31,7
1625.175,304,304,304,306,400,5956,14900,-151,31,7
1629.1899999999998,304,304,304,306,400,5956,14900,-151,31,7
1632.708,304,304,304,306,400,5956,14900,-151,31,7
1636.227,303,304,304,306,400,5956,14900,-151,31,7
1646.617,302,304,304,306,336,6040,14964,-26,46,-29
1648.521,302,304,304,306,336,6040,14964,-26,46,-29
1656.52,302,304,304,306,336,6040,14964,-26,46,-29
1658.108,302,304,304,306,336,6040,14964,-26,46,-29
1665.139,303,303,304,306,336,6040,14964,-26,46,-29
1670.0729999999999,302,303,304,307,336,6040,14964,-26,46,-29
1679.892,302,303,303,306,336,6040,14964,-26,46,-29
1681.33,302,303,304,306,336,6040,14964,-26,46,-29
1681.33,301,303,303,307,352,6024,15040,-137,8,-18
1691.1490000000001,301,303,304,306,352,6024,15040,-137,8,-18
1697.786,301,303,303,306,352,6024,15040,-137,8,-18
1703.578,301,303,303,306,352,6024,15040,-137,8,-18
1712.197,302,303,304,307,352,6024,15040,-137,8,-18
1714.279,301,303,304,307,352,6024,15040,-137,8,-18
1714.279,301,303,303,306,352,6024,15040,-137,8,-18
1725.12,301,303,304,306,332,5980,14924,-114,57,-17
1729.1460000000002,301,303,304,307,332,5980,14924,-114,57,-17
1737.161,300,303,303,306,332,5980,14924,-114,57,-17
1740.343,300,303,303,306,332,5980,14924,-114,57,-17
1748.902,300,303,303,306,332,5980,14924,-114,57,-17
1748.902,301,303,303,305,332,5980,14924,-114,57,-17
1758.655,301,304,302,305,332,5980,14924,-114,57,-17
1758.655,301,304,303,305,352,5980,14920,-117,26,-34
1770.238,301,304,303,306,352,5980,14920,-117,26,-34
1770.238,301,304,303,305,352,5980,14920,-117,26,-34
1778.583,301,304,303,305,352,5980,14920,-117,26,-34
1785.1889999999999,301,304,303,305,352,5980,14920,-117,26,-34
1793.21,301,304,303,305,352,5980,14920,-117,26,-34
1793.21,302,305,303,305,352,5980,14920,-117,26,-34
1803.333,302,305,303,305,352,5980,14920,-117,26,-34
1811.896,302,305,304,306,328,5988,15004,-107,56,-28
1814.54,302,305,303,306,328,5988,15004,-107,56,-28
1814.54,302,305,303,305,328,5988,15004,-107,56,-28
1824.8390000000002,302,305,303,306,328,5988,15004,-107,56,-28
1829.383,302,305,303,306,328,5988,15004,-107,56,-28
1836.1009999999999,303,305,303,306,328,5988,15004,-107,56,-28
1836.1009999999999,303,305,303,306,328,5988,15004,-107,56,-28
1846.891,303,305,303,306,416,6024,14964,-49,-3,-14
1846.891,303,305,303,306,416,6024,14964,-49,-3,-14
1858.7350000000001,302,306,303,306,416,6024,14964,-49,-3,-14
1861.809,302,306,303,306,416,6024,14964,-49,-3,-14
1861.809,303,306,304,307,416,6024,14964,-49,-3,-14
1870.362,303,307,303,306,416,6024,14964,-49,-3,-14
1880.447,303,307,303,306,416,6024,14964,-49,-3,-14
1880.447,304,307,303,306,360,5984,14980,-127,54,-26
1891.818,304,307,304,306,360,5984,14980,-127,54,-26
1891.818,304,307,303,306,360,5984,14980,-127,54,-26
1901.205,304,308,303,306,360,5984,14980,-127,54,-26
1903.992,303,308,304,306,360,5984,14980,-127,54,-26
1911.4850000000001,304,308,303,306,360,5984,14980,-127,54,-26
1914.083,303,308,303,305,360,5984,14980,-127,54,-26
1924.808,303,308,303,306,404,6004,14880,-37,-6,-11
1930.1219999999998,305,308,303,306,404,6004,14880,-37,-6,-11
1930.306,304,308,303,306,404,6004,14880,-37,-6,-11
1937.654,303,308,303,305,404,6004,14880,-37,-6,-11
1943.9189999999999,303,308,303,306,404,6004,14880,-37,-6,-11
1947.497,304,308,303,306,404,6004,14880,-37,-6,-11
1957.74,304,308,302,306,404,6004,14880,-37,-6,-11
1957.74,304,308,302,305,404,6004,14880,-37,-6,-11
1964.446,304,308,303,306,344,6052,14992,-162,49,-68
1969.4959999999999,305,308,302,306,344,6052,14992,-162,49,-68
1976.148,305,308,302,305,344,6052,14992,-162,49,-68
1981.129,304,308,302,305,344,6052,14992,-162,49,-68
1990.0549999999998,304,308,302,306,344,6052,14992,-162,49,-68
1992.0240000000001,304,308,302,306,344,6052,14992,-162,49,-68
1997.898,304,308,302,305,344,6052,14992,-162,49,-68
2002.672,304,307,302,305,404,5940,14888,-155,39,-20
2008.9899999999998,305,307,302,306,404,5940,14888,-155,39,-20
2014.245,305,307,302,305,404,5940,14888,-155,39,-20
2023.212,305,307,301,305,404,5940,14888,-155,39,-20
2025.328,304,307,302,305,404,5940,14888,-155,39,-20
2030.7110000000002,304,307,302,305,404,5940,14888,-155,39,-20
2035.556,304,307,302,305,404,5940,14888,-155,39,-20
2042.519,304,307,302,305,340,5984,15004,-76,80,-35
2047.386,305,306,302,306,340,5984,15004,-76,80,-35
2050.6839999999997,305,306,302,305,340,5984,15004,-76,80,-35
2059.4,304,306,301,305,340,5984,15004,-76,80,-35
2059.4,305,306,301,306,340,5984,15004,-76,80,-35
2069.66,304,306,302,305,340,5984,15004,-76,80,-35
2077.792,304,305,301,305,340,5984,15004,-76,80,-35
2081.109,303,306,301,305,340,5984,15004,-76,80,-35
2089.605,304,306,301,305,412,5992,14996,-124,-16,2
2091.4,304,306,301,305,412,5992,14996,-124,-16,2
2095.633,304,306,300,304,412,5992,14996,-124,-16,2
2102.561,303,305,301,305,412,5992,14996,-124,-16,2
2108.729,305,306,302,305,412,5992,14996,-124,-16,2
2114.3390000000004,304,306,301,305,412,5992,14996,-124,-16,2
2115.829,304,306,301,304,412,5992,14996,-124,-16,2
2125.314,303,306,301,305,336,5980,14884,-61,46,-37
2129.82,304,306,301,305,336,5980,14884,-61,46,-37
2129.82,305,306,300,304,336,5980,14884,-61,46,-37
2136.712,305,307,301,304,336,5980,14884,-61,46,-37
2147.2780000000002,304,307,301,305,336,5980,14884,-61,46,-37
2147.2780000000002,305,307,301,305,336,5980,14884,-61,46,-37
2158.156,304,307,301,304,336,5980,14884,-61,46,-37
2160.5,304,308,301,305,336,5980,14884,-61,46,-37
2168.52,304,308,301,305,392,5976,14944,-80,26,-8
2170.598,304,308,301,305,392,5976,14944,-80,26,-8
2178.786,304,308,301,304,392,5976,14944,-80,26,-8
2180.587,304,308,301,305,392,5976,14944,-80,26,-8
2185.8979999999997,305,307,302,305,392,5976,14944,-80,26,-8
2191.3610000000003,304,308,301,305,392,5976,14944,-80,26,-8
2197.375,304,307,301,305,392,5976,14944,-80,26,-8
2202.6240000000003,304,307,301,305,300,6048,14952,-68,-9,-51
2205.821,304,307,301,306,300,6048,14952,-68,-9,-51
2214.8430000000003,304,307,301,305,300,6048,14952,-68,-9,-51
2214.8430000000003,304,307,300,305,300,6048,14952,-68,-9,-51
2225.37,304,307,301,305,300,6048,14952,-68,-9,-51
2231.237,304,308,300,305,300,6048,14952,-68,-9,-51
2236.079,304,307,300,305,300,6048,14952,-68,-9,-51
2238.5480000000002,304,307,300,304,300,6048,14952,-68,-9,-51
2248.147,304,307,301,305,416,6028,14912,-125,32,-14
2248.147,304,307,300,304,416,6028,14912,-125,32,-14
2258.613,303,307,299,304,416,6028,14912,-125,32,-14
2263.401,304,307,300,304,416,6028,14912,-125,32,-14
2269.259,304,307,300,304,416,6028,14912,-125,32,-14
2269.259,304,306,300,304,416,6028,14912,-125,32,-14
2281.096,304,306,299,304,416,6028,14912,-125,32,-14
2281.096,303,305,299,303,336,6012,14976,-76,22,-21
2291.819,304,305,300,303,336,6012,14976,-76,22,-21
2291.819,303,305,299,303,336,6012,14976,-76,22,-21
2302.5190000000002,303,305,300,303,336,6012,14976,-76,22,-21
2302.5190000000002,304,304,300,303,336,6012,14976,-76,22,-21
2313.7940000000003,304,304,301,303,336,6012,14976,-76,22,-21
2316.54,303,303,300,303,336,6012,14976,-76,22,-21
2316.54,304,303,300,303,336,6012,14976,-76,22,-21
2329.848,303,303,300,303,396,6040,14940,-181,-31,-2
2333.7059999999997,302,303,300,303,396,6040,14940,-181,-31,-2
2336.379,302,303,300,303,396,6040,14940,-181,-31,-2
2347.1009999999997,302,303,300,304,396,6040,14940,-181,-31,-2
2347.1009999999997,303,303,301,304,396,6040,14940,-181,-31,-2
2358.894,302,302,300,304,396,6040,14940,-181,-31,-2
2361.118,302,302,301,304,396,6040,14940,-181,-31,-2
2361.118,302,303,301,304,396,6004,15048,-26,70,-35
2370.981,303,303,301,304,396,6004,15048,-26,70,-35
2380.424,303,303,301,304,396,6004,15048,-26,70,-35
2380.424,302,303,302,305,396,6004,15048,-26,70,-35
2386.9060000000004,303,303,302,305,396,6004,15048,-26,70,-35
2391.5969999999998,303,303,302,304,396,6004,15048,-26,70,-35
2398.0860000000002,303,304,302,304,396,6004,15048,-26,70,-35
2402.978,303,304,302,304,352,5924,14940,-84,-82,-6
2407.168,303,304,302,304,352,5924,14940,-84,-82,-6
2414.808,303,305,301,304,352,5924,14940,-84,-82,-6
2414.808,303,305,301,304,352,5924,14940,-84,-82,-6
2424.4590000000003,303,305,301,304,352,5924,14940,-84,-82,-6
2431.219,303,305,301,304,352,5924,14940,-84,-82,-6
2436.176,304,305,300,303,352,5924,14940,-84,-82,-6
2445.277,303,305,301,304,352,5924,14940,-84,-82,-6
2447.4390000000003,305,305,301,304,324,6000,14904,-46,30,-28
2453.3689999999997,303,305,300,304,324,6000,14904,-46,30,-28
2458.146,303,305,300,304,324,6000,14904,-46,30,-28
2463.718,303,305,300,304,324,6000,14904,-46,30,-28
2469.5640000000003,303,304,300,305,324,6000,14904,-46,30,-28
2471.911,303,304,300,304,324,6000,14904,-46,30,-28
2481.159,304,304,299,304,324,6000,14904,-46,30,-28
2481.159,303,304,299,304,388,5972,15024,-135,86,-43
2491.812,303,304,299,304,388,5972,15024,-135,86,-43
2491.812,303,304,299,304,388,5972,15024,-135,86,-43
2502.7720000000004,303,304,300,304,388,5972,15024,-135,86,-43
2510.867,303,304,300,304,388,5972,15024,-135,86,-43
2513.622,303,304,299,304,388,5972,15024,-135,86,-43
2516.8140000000003,302,304,299,304,388,5972,15024,-135,86,-43
2525.446,302,305,300,304,388,6064,14952,-44,15,-23
2530.417,303,305,300,304,388,6064,14952,-44,15,-23
2535.897,303,305,300,304,388,6064,14952,-44,15,-23
2535.897,303,306,299,304,388,6064,14952,-44,15,-23
2547.211,303,305,300,304,388,6064,14952,-44,15,-23
2547.211,303,305,300,304,388,6064,14952,-44,15,-23
2554.427,303,306,299,304,388,6064,14952,-44,15,-23
2558.576,304,305,300,304,388,6064,14952,-44,15,-23
2569.1730000000002,303,305,300,304,376,5952,14968,-84,-17,-27
2569.1730000000002,303,305,300,304,376,5952,14968,-84,-17,-27
2580.4049999999997,303,306,300,304,376,5952,14968,-84,-17,-27
2580.4049999999997,302,305,300,304,376,5952,14968,-84,-17,-27
2587.06,303,305,300,304,376,5952,14968,-84,-17,-27
2591.7940000000003,303,305,300,304,376,5952,14968,-84,-17,-27
2599.695,303,305,300,304,376,5952,14968,-84,-17,-27
2602.744,303,305,300,304,300,6032,15016,-24,69,-11
2607.927,303,305,300,304,300,6032,15016,-24,69,-11
2618.2490000000003,303,305,299,304,300,6032,15016,-24,69,-11
2621.7329999999997,304,305,300,304,300,6032,15016,-24,69,-11
2630.721,303,306,300,304,300,6032,15016,-24,69,-11
2631.9689999999996,303,306,299,304,300,6032,15016,-24,69,-11
2637.096,303,306,299,304,300,6032,15016,-24,69,-11
2645.29,303,306,299,305,300,6032,15016,-24,69,-11
2647.332,303,306,298,305,416,6068,15024,-95,15,-66
2652.6200000000003,304,306,298,304,416,6068,15024,-95,15,-66
2657.951,304,306,298,304,416,6068,15024,-95,15,-66
2664.0679999999998,305,307,299,305,416,6068,15024,-95,15,-66
2669.409,304,307,299,305,416,6068,15024,-95,15,-66
2672.653,304,307,298,304,416,6068,15024,-95,15,-66
2681.569,304,307,298,305,416,6068,15024,-95,15,-66
2681.569,304,307,299,305,360,5900,14896,-147,67,-40
2691.942,305,307,299,305,360,5900,14896,-147,67,-40
2700.094,306,307,298,305,360,5900,14896,-147,67,-40
2702.748,306,307,299,305,360,5900,14896,-147,67,-40
2711.7200000000003,306,307,299,305,360,5900,14896,-147,67,-40
2713.862,305,307,298,305,360,5900,14896,-147,67,-40
2719.009,305,307,298,305,360,5900,14896,-147,67,-40
2724.7309999999998,306,307,300,305,352,5948,14948,4,6,-26
2730.827,305,307,299,305,352,5948,14948,4,6,-26
2735.802,306,306,299,305,352,5948,14948,4,6,-26
2738.271,305,306,299,305,352,5948,14948,4,6,-26
2746.272,306,306,300,305,352,5948,14948,4,6,-26
2748.008,306,306,300,305,352,5948,14948,4,6,-26
2755.03,305,306,299,305,352,5948,14948,4,6,-26
2758.883,304,306,299,304,352,5948,14948,4,6,-26
2763.509,305,305,300,304,364,6020,14988,-35,27,-34
2769.8140000000003,305,305,300,304,364,6020,14988,-35,27,-34
2778.5229999999997,305,304,300,304,364,6020,14988,-35,27,-34
2780.979,305,304,300,304,364,6020,14988,-35,27,-34
2789.59,306,305,300,304,364,6020,14988,-35,27,-34
2791.811,305,304,300,304,364,6020,14988,-35,27,-34
2795.6409999999996,304,304,300,304,364,6020,14988,-35,27,-34
2802.824,305,304,300,304,364,6020,14988,-35,27,-34
2807.848,305,303,301,304,348,6032,14952,-95,11,-33
2813.4139999999998,305,303,300,304,348,6032,14952,-95,11,-33
2823.308,305,302,300,304,348,6032,14952,-95,11,-33
2825.846,305,302,300,304,348,6032,14952,-95,11,-33
2830.8810000000003,305,302,301,304,348,6032,14952,-95,11,-33
2836.034,305,302,301,304,348,6032,14952,-95,11,-33
2836.034,304,301,301,304,348,6032,14952,-95,11,-33
2846.356,305,302,301,305,312,6024,15004,-80,88,-27
2848.705,305,301,301,304,312,6024,15004,-80,88,-27
2858.176,304,301,301,304,312,6024,15004,-80,88,-27
2860.908,305,300,301,305,312,6024,15004,-80,88,-27
2860.908,306,300,302,305,312,6024,15004,-80,88,-27
2872.404,305,300,302,304,312,6024,15004,-80,88,-27
2877.9880000000003,305,301,302,305,312,6024,15004,-80,88,-27
2880.699,305,300,301,304,312,6024,15004,-80,88,-27
2890.986,305,301,302,305,380,5996,14976,-33,-10,-25
2893.5550000000003,305,301,301,304,380,5996,14976,-33,-10,-25
2901.559,305,301,302,304,380,5996,14976,-33,-10,-25
2903.888,306,300,302,304,380,5996,14976,-33,-10,-25
2912.15,306,301,302,304,380,5996,14976,-33,-10,-25
2913.952,305,301,302,304,380,5996,14976,-33,-10,-25
2924.978,306,301,303,304,380,5996,14976,-33,-10,-25
2926.788,306,301,303,305,288,6028,15004,-83,-23,-15
2933.344,306,302,302,305,288,6028,15004,-83,-23,-15
2941.063,306,301,302,305,288,6028,15004,-83,-23,-15
2945.19,306,302,303,305,288,6028,15004,-83,-23,-15
2954.108,307,302,302,305,288,6028,15004,-83,-23,-15
2958.1659999999997,307,301,302,304,288,6028,15004,-83,-23,-15
2959.181,307,302,302,304,288,6028,15004,-83,-23,-15
2968.982,306,302,303,305,336,5900,14768,-21,31,-10
2971.302,307,302,302,305,336,5900,14768,-21,31,-10
2979.32,307,302,301,305,336,5900,14768,-21,31,-10
2981.865,307,302,302,305,336,5900,14768,-21,31,-10
2990.003,307,302,302,305,336,5900,14768,-21,31,-10
2992.319,307,302,302,305,336,5900,14768,-21,31,-10
2996.3630000000003,307,302,302,305,336,5900,14768,-21,31,-10
3002.232,308,302,303,305,336,5900,14768,-21,31,-10
3009.328,307,302,303,305,392,6024,14936,20,65,-21
3014.1209999999996,307,302,302,305,392,6024,14936,20,65,-21
3017.209,307,302,302,305,392,6024,14936,20,65,-21
3025.7239999999997,307,303,303,305,392,6024,14936,20,65,-21
3030.739,307,302,303,305,392,6024,14936,20,65,-21
3036.213,307,302,303,305,392,6024,14936,20,65,-21
3036.213,307,302,302,305,392,6024,14936,20,65,-21
3046.9590000000003,306,302,303,305,396,6020,15016,-93,-1,-12
3046.9590000000003,306,302,302,305,396,6020,15016,-93,-1,-12
3058.17,306,302,303,304,396,6020,15016,-93,-1,-12
3062.2639999999997,306,302,303,304,396,6020,15016,-93,-1,-12
3062.2639999999997,306,302,303,305,396,6020,15016,-93,-1,-12
3069.443,306,302,303,304,396,6020,15016,-93,-1,-12
3080.676,306,301,303,304,396,6020,15016,-93,-1,-12
3080.676,307,301,304,304,396,6020,15016,-93,-1,-12
3092.211,306,301,304,304,332,5992,15024,-95,31,-16
3094.578,305,301,303,304,332,5992,15024,-95,31,-16
3094.578,305,301,303,304,332,5992,15024,-95,31,-16
3102.7149999999997,305,301,304,304,332,5992,15024,-95,31,-16
3111.05,305,301,304,304,332,5992,15024,-95,31,-16
3114.056,305,301,304,304,332,5992,15024,-95,31,-16
3122.0099999999998,305,301,305,304,332,5992,15024,-95,31,-16
3125.883,306,301,305,304,344,6008,14824,-103,18,-2
3132.727,306,301,304,304,344,6008,14824,-103,18,-2
3136.12,305,302,304,304,344,6008,14824,-103,18,-2
3140.37,306,302,304,304,344,6008,14824,-103,18,-2
3147.5620000000004,306,302,304,304,344,6008,14824,-103,18,-2
3153.103,306,302,303,304,344,6008,14824,-103,18,-2
3158.27,306,303,304,304,344,6008,14824,-103,18,-2
3164.2929999999997,306,303,304,305,344,6008,14824,-103,18,-2
3169.57,307,303,304,305,388,5896,14880,-48,15,-24
3172.33,306,303,303,305,388,5896,14880,-48,15,-24
3181.222,306,304,304,305,388,5896,14880,-48,15,-24
3181.222,306,304,304,305,388,5896,14880,-48,15,-24
3191.735,306,304,303,305,388,5896,14880,-48,15,-24
3197.5820000000003,305,304,303,305,388,5896,14880,-48,15,-24
3202.418,306,304,303,305,388,5896,14880,-48,15,-24
3212.19,306,304,303,305,380,6140,15064,-93,48,-39
3214.201,305,304,303,305,380,6140,15064,-93,48,-39
3214.201,306,305,302,305,380,6140,15064,-93,48,-39
3222.369,305,305,303,305,380,6140,15064,-93,48,-39
3231.185,306,305,303,305,380,6140,15064,-93,48,-39
3236.0389999999998,305,305,302,305,380,6140,15064,-93,48,-39
3238.4230000000002,305,305,302,305,380,6140,15064,-93,48,-39
3247.9680000000003,305,305,303,305,336,5844,14884,-156,-3,9
3247.9680000000003,305,305,301,304,336,5844,14884,-156,-3,9
3254.7799999999997,305,305,301,304,336,5844,14884,-156,-3,9
3258.846,305,305,301,305,336,5844,14884,-156,-3,9
3267.4449999999997,304,305,301,305,336,5844,14884,-156,-3,9
3269.733,304,305,301,304,336,5844,14884,-156,-3,9
3275.5809999999997,304,305,301,304,336,5844,14884,-156,-3,9
3280.4509999999996,304,305,301,304,336,5844,14884,-156,-3,9
3287.794,305,305,302,305,356,6036,14984,-8,111,-59
3291.584,304,304,301,304,356,6036,14984,-8,111,-59
3295.9770000000003,304,305,302,304,356,6036,14984,-8,111,-59
3303.28,304,304,302,304,356,6036,14984,-8,111,-59
3303.28,304,305,302,305,356,6036,14984,-8,111,-59
3314.036,304,305,302,304,356,6036,14984,-8,111,-59
3320.1710000000003,303,304,302,305,356,6036,14984,-8,111,-59
3324.8869999999997,303,305,302,305,356,6036,14984,-8,111,-59
3334.422,304,305,302,305,364,5992,14932,-109,-75,-5
3336.556,304,305,302,304,364,5992,14932,-109,-75,-5
3340.1960000000004,303,305,302,305,364,5992,14932,-109,-75,-5
3346.838,304,305,302,305,364,5992,14932,-109,-75,-5
3353.261,304,305,302,304,364,5992,14932,-109,-75,-5
3358.415,303,305,302,305,364,5992,14932,-109,-75,-5
3360.958,304,305,303,304,364,5992,14932,-109,-75,-5
3369.301,303,306,302,304,308,5956,14988,-92,146,-47
3369.301,303,305,301,304,308,5956,14988,-92,146,-47
3380.613,303,305,301,304,308,5956,14988,-92,146,-47
3386.321,304,304,302,305,308,5956,14988,-92,146,-47
3391.147,303,305,301,304,308,5956,14988,-92,146,-47
3393.654,303,305,301,304,308,5956,14988,-92,146,-47
3403.349,304,305,301,305,308,5956,14988,-92,146,-47
3403.349,304,305,301,305,332,6048,14968,-63,-3,-12
3415.498,304,306,301,304,332,6048,14968,-63,-3,-12
3417.989,305,305,301,304,332,6048,14968,-63,-3,-12
3424.4759999999997,304,305,302,305,332,6048,14968,-63,-3,-12
3431.993,304,305,301,305,332,6048,14968,-63,-3,-12
3436.124,304,305,301,304,332,6048,14968,-63,-3,-12
3436.124,304,305,301,304,332,6048,14968,-63,-3,-12
3446.9210000000003,304,306,302,305,332,6048,14968,-63,-3,-12
3451.317,304,305,302,305,388,5940,14896,-83,29,-38
3451.317,304,306,301,304,388,5940,14896,-83,29,-38
3458.526,306,305,301,305,388,5940,14896,-83,29,-38
3469.567,305,306,301,305,388,5940,14896,-83,29,-38
3469.567,305,306,301,305,388,5940,14896,-83,29,-38
3480.7070000000003,305,306,301,305,388,5940,14896,-83,29,-38
3480.7070000000003,305,306,302,305,388,5940,14896,-83,29,-38
3488.5950000000003,305,306,302,305,372,6028,14960,-31,16,-30
3491.4900000000002,304,306,301,305,372,6028,14960,-31,16,-30
3496.7259999999997,304,306,302,305,372,6028,14960,-31,16,-30
3503.221,304,305,302,305,372,6028,14960,-31,16,-30
3511.932,304,306,302,305,372,6028,14960,-31,16,-30
3513.509,304,306,302,304,372,6028,14960,-31,16,-30
3523.111,304,305,302,305,372,6028,14960,-31,16,-30
3525.7909999999997,304,305,302,305,372,5968,14988,-108,66,-8
3536.036,304,305,301,305,372,5968,14988,-108,66,-8
3536.036,303,305,301,304,372,5968,14988,-108,66,-8
3536.036,304,305,301,304,372,5968,14988,-108,66,-8
3547.5660000000003,305,305,301,304,372,5968,14988,-108,66,-8
3547.5660000000003,304,305,300,304,372,5968,14988,-108,66,-8
3556.345,304,304,301,304,372,5968,14988,-108,66,-8
3567.747,304,304,301,305,372,5968,14988,-108,66,-8
3571.736,304,304,300,305,332,6100,14932,-142,26,-26
3571.736,303,304,300,304,332,6100,14932,-142,26,-26
3580.5600000000004,303,304,300,305,332,6100,14932,-142,26,-26
3586.448,303,304,300,305,332,6100,14932,-142,26,-26
3591.1110000000003,304,304,300,304,332,6100,14932,-142,26,-26
3601.051,304,304,300,304,332,6100,14932,-142,26,-26
3603.0890000000004,304,304,301,305,332,6100,14932,-142,26,-26
3603.0890000000004,303,304,301,305,356,5948,14872,-111,34,-40
3614.085,303,304,301,304,356,5948,14872,-111,34,-40
3614.085,303,304,301,305,356,5948,14872,-111,34,-40
3624.819,303,304,302,305,356,5948,14872,-111,34,-40
3633.375,304,304,301,305,356,5948,14872,-111,34,-40
3636.143,304,304,301,304,356,5948,14872,-111,34,-40
3639.568,304,304,301,305,356,5948,14872,-111,34,-40
3647.734,304,304,302,305,320,6004,14988,-104,73,-35
3651.291,303,304,301,305,320,6004,14988,-104,73,-35
3658.198,303,304,302,305,320,6004,14988,-104,73,-35
3658.198,303,304,302,305,320,6004,14988,-104,73,-35
3669.795,304,304,302,305,320,6004,14988,-104,73,-35
3678.545,304,304,302,305,320,6004,14988,-104,73,-35
3680.657,304,304,302,305,320,6004,14988,-104,73,-35
3684.3590000000004,304,304,302,305,320,6004,14988,-104,73,-35
3691.478,304,304,302,305,328,6004,15040,-72,4,-34
3691.478,303,305,302,305,328,6004,15040,-72,4,-34
3702.362,303,305,302,305,328,6004,15040,-72,4,-34
3702.362,304,305,302,305,328,6004,15040,-72,4,-34
3713.982,304,306,302,305,328,6004,15040,-72,4,-34
3717.094,305,306,301,305,328,6004,15040,-72,4,-34
3717.094,305,306,302,305,328,6004,15040,-72,4,-34
3725.559,304,306,302,305,336,5984,14964,-89,37,-33
3736.272,304,306,301,305,336,5984,14964,-89,37,-33
3736.272,304,306,301,305,336,5984,14964,-89,37,-33
3742.274,304,306,301,305,336,5984,14964,-89,37,-33
3747.005,304,306,301,305,336,5984,14964,-89,37,-33
3754.644,304,307,300,305,336,5984,14964,-89,37,-33
3758.1699999999996,304,307,300,305,336,5984,14964,-89,37,-33
3762.866,304,307,301,305,336,5984,14964,-89,37,-33
3769.677,304,307,301,305,332,5984,14912,-150,23,6
3769.677,304,307,300,304,332,5984,14912,-150,23,6
3780.687,304,307,301,305,332,5984,14912,-150,23,6
3787.134,304,306,300,305,332,5984,14912,-150,23,6
3791.816,304,306,300,304,332,5984,14912,-150,23,6
3791.816,304,306,301,304,332,5984,14912,-150,23,6
3802.578,304,305,301,304,332,5984,14912,-150,23,6
3807.677,304,305,301,304,372,5920,15060,-76,31,-27
3813.7850000000003,304,305,300,304,372,5920,15060,-76,31,-27
3813.7850000000003,304,306,301,304,372,5920,15060,-76,31,-27
3824.529,304,305,302,304,372,5920,15060,-76,31,-27
3824.529,304,305,301,304,372,5920,15060,-76,31,-27
3836.5930000000003,303,305,301,304,372,5920,15060,-76,31,-27
3836.5930000000003,303,305,302,304,372,5920,15060,-76,31,-27
3846.953,303,305,302,304,372,5920,15060,-76,31,-27
3854.9829999999997,303,305,301,304,344,6044,14952,-76,33,-16
3858.6800000000003,304,305,302,303,344,6044,14952,-76,33,-16
3858.6800000000003,304,304,302,304,344,6044,14952,-76,33,-16
3869.243,304,305,302,304,344,6044,14952,-76,33,-16
3872.9840000000004,304,304,302,304,344,6044,14952,-76,33,-16
3872.9840000000004,304,304,302,304,344,6044,14952,-76,33,-16
3880.6470000000004,304,305,303,304,344,6044,14952,-76,33,-16
3891.676,305,304,303,304,400,5944,14944,-82,-17,-20
3893.2129999999997,305,304,302,304,400,5944,14944,-82,-17,-20
3893.2129999999997,304,305,303,304,400,5944,14944,-82,-17,-20
3903.378,305,304,303,304,400,5944,14944,-82,-17,-20
3910.158,304,304,302,304,400,5944,14944,-82,-17,-20
3914.025,304,305,302,304,400,5944,14944,-82,-17,-20
3924.748,304,305,302,304,400,5944,14944,-82,-17,-20
3924.748,304,305,302,304,400,5944,14944,-82,-17,-20
3932.777,304,305,302,304,344,5968,14936,-99,64,-6
3935.601,305,305,302,304,344,5968,14936,-99,64,-6
3943.185,304,306,303,305,344,5968,14936,-99,64,-6
3947.137,304,305,302,305,344,5968,14936,-99,64,-6
3951.1929999999998,304,305,302,304,344,5968,14936,-99,64,-6
3958.893,303,305,302,304,344,5968,14936,-99,64,-6
3958.893,303,305,301,305,344,5968,14936,-99,64,-6
3969.363,303,305,301,305,344,6016,14904,-49,-1,-16
3975.783,303,304,301,304,344,6016,14904,-49,-1,-16
3980.504,304,304,301,304,344,6016,14904,-49,-1,-16
3980.504,304,304,301,305,344,6016,14904,-49,-1,-16
3991.347,303,304,301,305,344,6016,14904,-49,-1,-16
3996.078,303,304,301,304,344,6016,14904,-49,-1,-16
3996.078,303,304,301,304,344,6016,14904,-49,-1,-16
4003.795,303,304,301,304,344,6016,14904,-49,-1,-16
4014.227,303,304,301,304,348,6020,14988,-78,57,-39
4014.227,303,304,301,304,348,6020,14988,-78,57,-39
4024.9449999999997,303,304,300,304,348,6020,14988,-78,57,-39
4027.8559999999998,302,304,300,304,348,6020,14988,-78,57,-39
4034.261,302,304,300,304,348,6020,14988,-78,57,-39
4036.391,302,304,300,304,348,6020,14988,-78,57,-39
4047.117,302,304,301,304,348,6020,14988,-78,57,-39
4047.117,303,304,300,304,360,5976,14952,-170,8,-44
4058.6070000000004,303,304,300,304,360,5976,14952,-170,8,-44
4061.5319999999997,303,304,300,304,360,5976,14952,-170,8,-44
4061.5319999999997,304,304,301,304,360,5976,14952,-170,8,-44
4070.555,303,304,299,304,360,5976,14952,-170,8,-44
4079.0899999999997,302,304,299,304,360,5976,14952,-170,8,-44
4081.6670000000004,302,304,300,304,360,5976,14952,-170,8,-44
4087.008,303,304,301,304,364,5904,14896,-131,88,-20
4091.912,303,304,301,304,364,5904,14896,-131,88,-20
4098.114,302,304,301,304,364,5904,14896,-131,88,-20
4103.3330000000005,303,304,302,304,364,5904,14896,-131,88,-20
4110.853,303,304,301,304,364,5904,14896,-131,88,-20
4113.833,303,304,301,304,364,5904,14896,-131,88,-20
4124.572999999999,303,304,301,304,364,5904,14896,-131,88,-20
4124.572999999999,303,304,302,304,364,5904,14896,-131,88,-20
4133.125,303,304,301,305,292,6008,14956,-71,31,-13
4136.116999999999,303,304,301,304,292,6008,14956,-71,31,-13
4143.565,303,304,301,304,292,6008,14956,-71,31,-13
4149.722,304,304,301,305,292,6008,14956,-71,31,-13
4151.5560000000005,303,304,302,304,292,6008,14956,-71,31,-13
4158.424,303,304,302,304,292,6008,14956,-71,31,-13
4158.424,302,305,302,305,292,6008,14956,-71,31,-13
4169.59,303,305,302,305,380,5896,15036,-110,53,-42
4178.8150000000005,303,305,302,305,380,5896,15036,-110,53,-42
4181.243,303,305,302,305,380,5896,15036,-110,53,-42
4183.75,303,305,302,305,380,5896,15036,-110,53,-42
4191.352,303,305,301,306,380,5896,15036,-110,53,-42
4196.792,303,305,301,305,380,5896,15036,-110,53,-42
4202.439,303,306,303,306,380,5896,15036,-110,53,-42
4208.3820000000005,304,306,302,306,292,6012,15012,-78,58,-14
4213.69,303,307,301,305,292,6012,15012,-78,58,-14
4216.718,303,307,302,305,292,6012,15012,-78,58,-14
4225.611,304,307,302,305,292,6012,15012,-78,58,-14
4225.611,304,307,301,305,292,6012,15012,-78,58,-14
4236.374,303,307,301,305,292,6012,15012,-78,58,-14
4244.499,304,307,301,305,292,6012,15012,-78,58,-14
4247.541,304,307,302,305,292,6012,15012,-78,58,-14
4247.541,304,307,301,305,352,5960,15052,-116,25,-33
4258.603,303,307,301,304,352,5960,15052,-116,25,-33
4262.382,304,307,301,305,352,5960,15052,-116,25,-33
4262.382,304,307,301,305,352,5960,15052,-116,25,-33
4269.649,304,307,301,305,352,5960,15052,-116,25,-33
4280.5419999999995,305,307,301,305,352,5960,15052,-116,25,-33
4280.5419999999995,305,307,302,305,352,5960,15052,-116,25,-33
4291.722,305,307,301,305,368,5924,15024,-72,44,-1
4291.722,305,307,300,304,368,5924,15024,-72,44,-1
4299.825,305,307,301,305,368,5924,15024,-72,44,-1
4302.771,305,307,301,305,368,5924,15024,-72,44,-1
4313.981,305,306,300,304,368,5924,15024,-72,44,-1
4313.981,306,306,301,304,368,5924,15024,-72,44,-1
4319.775,306,306,301,305,368,5924,15024,-72,44,-1
4324.587,306,306,301,305,368,5924,15024,-72,44,-1
4333.167,306,306,301,304,296,6024,15016,-94,45,-32
4336.053,305,305,301,304,296,6024,15016,-94,45,-32
4340.402,305,305,302,305,296,6024,15016,-94,45,-32
4348.183,305,305,301,305,296,6024,15016,-94,45,-32
4348.183,305,305,301,305,296,6024,15016,-94,45,-32
4358.617,305,305,301,305,296,6024,15016,-94,45,-32
4365.014,305,305,302,305,296,6024,15016,-94,45,-32
4369.587,305,304,301,305,292,5976,15004,-81,56,-15
4378.95,305,304,301,305,292,5976,15004,-81,56,-15
4381.329,305,304,301,305,292,5976,15004,-81,56,-15
4381.329,305,305,301,305,292,5976,15004,-81,56,-15
4391.543000000001,304,304,301,305,292,5976,15004,-81,56,-15
4398.081999999999,305,304,301,304,292,5976,15004,-81,56,-15
4402.6990000000005,305,303,301,305,292,5976,15004,-81,56,-15
4405.174,305,304,301,305,292,5976,15004,-81,56,-15
4415.181,305,304,301,305,336,5960,15016,-112,-28,-29
4415.181,304,304,301,305,336,5960,15016,-112,-28,-29
4425.066,304,304,301,305,336,5960,15016,-112,-28,-29
4430.573,304,304,301,305,336,5960,15016,-112,-28,-29
4435.779,304,304,301,304,336,5960,15016,-112,-28,-29
4438.191,304,304,301,305,336,5960,15016,-112,-28,-29
4447.338000000001,304,303,301,305,336,5960,15016,-112,-28,-29
4447.338000000001,304,303,301,304,368,6008,15036,-95,42,-4
4458.357,304,303,301,305,368,6008,15036,-95,42,-4
4458.357,304,303,302,305,368,6008,15036,-95,42,-4
4469.56,304,303,302,305,368,6008,15036,-95,42,-4
4477.722,303,303,301,305,368,6008,15036,-95,42,-4
4480.607,304,303,302,305,368,6008,15036,-95,42,-4
4480.607,304,303,302,305,368,6008,15036,-95,42,-4
4487.817,305,303,302,305,312,5976,14968,-115,8,-21
4491.722000000001,305,303,301,305,312,5976,14968,-115,8,-21
4500.523,304,303,301,305,312,5976,14968,-115,8,-21
4502.625,304,303,301,305,312,5976,14968,-115,8,-21
4514.069,304,303,300,305,312,5976,14968,-115,8,-21
4514.069,303,303,300,305,312,5976,14968,-115,8,-21
4520.3949999999995,303,303,301,305,312,5976,14968,-115,8,-21
4528.553,303,303,301,305,312,5976,14968,-115,8,-21
4533.422,304,304,300,305,380,5960,14936,-71,6,3
4536.909,302,303,301,305,380,5960,14936,-71,6,3
4536.909,303,303,300,305,380,5960,14936,-71,6,3
4547.396,303,303,301,306,380,5960,14936,-71,6,3
4555.424,302,303,300,305,380,5960,14936,-71,6,3
4558.214999999999,302,303,300,305,380,5960,14936,-71,6,3
4558.214999999999,302,303,301,305,380,5960,14936,-71,6,3
4566.465,302,303,300,305,380,5960,14936,-71,6,3
4569.244000000001,302,302,300,304,284,5928,14956,-124,-3,4
4577.7080000000005,301,302,301,305,284,5928,14956,-124,-3,4
4580.4439999999995,301,303,301,305,284,5928,14956,-124,-3,4
4591.247,301,302,301,305,284,5928,14956,-124,-3,4
4593.701,300,303,301,304,284,5928,14956,-124,-3,4
4593.701,300,302,302,305,284,5928,14956,-124,-3,4
4603.938,300,302,302,304,284,5928,14956,-124,-3,4
4612.236,300,302,302,305,304,5988,15036,-78,23,-19
4615.137,300,302,301,304,304,5988,15036,-78,23,-19
4615.137,300,303,302,304,304,5988,15036,-78,23,-19
4625.018,300,302,301,305,304,5988,15036,-78,23,-19
4633.473999999999,301,302,301,305,304,5988,15036,-78,23,-19
4635.639,300,303,302,305,304,5988,15036,-78,23,-19
4645.576,300,303,302,305,304,5988,15036,-78,23,-19
4647.758,300,303,303,305,304,5988,15036,-78,23,-19
4650.848,301,303,302,305,372,5940,15024,-105,-16,-39
4658.475,301,303,302,305,372,5940,15024,-105,-16,-39
4664.791,303,304,302,305,372,5940,15024,-105,-16,-39
4670.403,302,304,302,305,372,5940,15024,-105,-16,-39
4671.759,302,304,302,305,372,5940,15024,-105,-16,-39
4681.572,302,304,302,305,372,5940,15024,-105,-16,-39
4689.8949999999995,302,305,302,305,372,5940,15024,-105,-16,-39
4691.978,302,305,301,305,280,5960,14928,-50,26,-26
4691.978,302,305,302,305,280,5960,14928,-50,26,-26
4702.924,302,305,302,305,280,5960,14928,-50,26,-26
4708.704,303,306,302,305,280,5960,14928,-50,26,-26
4714.023,302,306,302,304,280,5960,14928,-50,26,-26
4723.522,302,306,302,304,280,5960,14928,-50,26,-26
4726.225,302,306,302,305,280,5960,14928,-50,26,-26
4726.225,302,306,301,305,348,5960,14976,-83,-26,-42
4736.117,302,306,301,304,348,5960,14976,-83,-26,-42
4741.849,303,305,301,305,348,5960,14976,-83,-26,-42
4746.715,303,306,301,304,348,5960,14976,-83,-26,-42
4749.272999999999,303,306,301,304,348,5960,14976,-83,-26,-42
4758.877,303,305,300,304,348,5960,14976,-83,-26,-42
4758.877,303,305,301,304,348,5960,14976,-83,-26,-42
4769.409,303,306,300,304,348,5960,14976,-83,-26,-42
4774.759999999999,303,305,300,304,344,5928,14964,-50,55,-21
4779.821,302,305,300,304,344,5928,14964,-50,55,-21
4781.969,303,305,299,304,344,5928,14964,-50,55,-21
4792.327,303,306,299,304,344,5928,14964,-50,55,-21
4792.327,304,305,299,304,344,5928,14964,-50,55,-21
4799.932,303,305,299,304,344,5928,14964,-50,55,-21
4802.677,303,306,299,304,344,5928,14964,-50,55,-21
4811.8189999999995,303,306,299,304,336,6016,14924,12,-49,-22
4814.033,303,305,299,304,336,6016,14924,12,-49,-22
4824.7660000000005,303,306,299,304,336,6016,14924,12,-49,-22
4824.7660000000005,304,305,299,304,336,6016,14924,12,-49,-22
4833.724,304,305,299,304,336,6016,14924,12,-49,-22
4835.962,304,305,299,304,336,6016,14924,12,-49,-22
4843.985,303,304,300,304,336,6016,14924,12,-49,-22
4847.237,303,305,300,304,336,6016,14924,12,-49,-22
4852.358,303,305,299,304,328,5900,14916,-75,14,-37
4859.489,303,305,300,304,328,5900,14916,-75,14,-37
4867.49,303,305,300,304,328,5900,14916,-75,14,-37
4869.218,303,305,300,304,328,5900,14916,-75,14,-37
4876.258,303,305,300,304,328,5900,14916,-75,14,-37
4880.579,304,305,300,304,328,5900,14916,-75,14,-37
4885.467000000001,304,305,299,304,328,5900,14916,-75,14,-37
4892.595,304,306,299,304,284,5980,14984,1,-8,-1
4892.595,304,306,300,304,284,5980,14984,1,-8,-1
4903.096,304,306,299,304,284,5980,14984,1,-8,-1
4903.096,305,306,299,304,284,5980,14984,1,-8,-1
4914.075000000001,305,307,299,304,284,5980,14984,1,-8,-1
4917.719,305,306,300,303,284,5980,14984,1,-8,-1
4917.719,306,306,300,304,284,5980,14984,1,-8,-1
4924.865,306,307,299,304,284,5980,14984,1,-8,-1
4936.194,306,306,299,304,392,5968,14952,-8,-9,-23
4936.194,305,307,299,304,392,5968,14952,-8,-9,-23
4942.531,306,307,298,305,392,5968,14952,-8,-9,-23
4947.197,306,307,299,305,392,5968,14952,-8,-9,-23
4950.574,305,307,298,305,392,5968,14952,-8,-9,-23
4958.951,307,307,298,304,392,5968,14952,-8,-9,-23
4958.951,307,307,299,305,392,5968,14952,-8,-9,-23
4969.551,308,308,298,305,392,5968,14952,-8,-9,-23
4969.551,308,308,298,305,368,5952,15044,-62,9,-25
4980.703,308,309,299,305,368,5952,15044,-62,9,-25
4980.703,308,309,299,305,368,5952,15044,-62,9,-25
4991.945000000001,308,308,298,305,368,5952,15044,-62,9,-25
4995.289,309,309,298,305,368,5952,15044,-62,9,-25
4995.289,309,308,299,306,368,5952,15044,-62,9,-25
5003.098,310,308,299,305,368,5952,15044,-62,9,-25
5013.976000000001,310,308,298,305,336,6020,14960,-7,-8,-7
5013.976000000001,310,308,298,305,336,6020,14960,-7,-8,-7
5021.7080000000005,310,309,298,306,336,6020,14960,-7,-8,-7
5025.063,310,309,299,306,336,6020,14960,-7,-8,-7
5034.576,308,307,298,305,336,6020,14960,-7,-8,-7
5036.26,308,307,298,306,336,6020,14960,-7,-8,-7
5040.789,308,307,299,306,336,6020,14960,-7,-8,-7
5047.001,308,307,299,306,336,6020,14960,-7,-8,-7
5052.549,308,307,298,305,308,5968,14972,-73,35,-22
5057.924,307,306,299,305,308,5968,14972,-73,35,-22
5060.59,307,306,299,306,308,5968,14972,-73,35,-22
5070.441,306,306,299,305,308,5968,14972,-73,35,-22
5070.441,306,306,299,305,308,5968,14972,-73,35,-22
5081.313,306,305,299,305,308,5968,14972,-73,35,-22
5081.313,306,305,300,306,308,5968,14972,-73,35,-22
5091.701999999999,306,304,299,305,404,5972,14904,-33,-23,-26
5099.8099999999995,306,304,300,305,404,5972,14904,-33,-23,-26
5102.436,305,304,300,305,404,5972,14904,-33,-23,-26
5102.436,305,304,300,305,404,5972,14904,-33,-23,-26
5114.058,304,303,300,305,404,5972,14904,-33,-23,-26
5118.568,304,303,300,305,404,5972,14904,-33,-23,-26
5118.568,304,303,300,305,404,5972,14904,-33,-23,-26
5128.841,304,302,300,305,404,5972,14904,-33,-23,-26
5136.146,303,302,300,305,340,5944,14980,-38,77,-14
5136.146,304,302,300,305,340,5944,14980,-38,77,-14
5147.691,304,302,301,305,340,5944,14980,-38,77,-14
5147.691,303,302,300,305,340,5944,14980,-38,77,-14
5156.544,303,302,300,304,340,5944,14980,-38,77,-14
5159.161,303,302,301,305,340,5944,14980,-38,77,-14
5169.586,304,302,301,305,340,5944,14980,-38,77,-14
5169.586,305,302,300,305,416,6000,14992,25,-69,-12
5176.610000000001,303,302,301,305,416,6000,14992,25,-69,-12
5182.892,304,301,301,305,416,6000,14992,25,-69,-12
5188.104,304,301,301,305,416,6000,14992,25,-69,-12
5192.441,304,302,301,305,416,6000,14992,25,-69,-12
5196.377,304,302,302,305,416,6000,14992,25,-69,-12
5203.523999999999,303,302,302,305,416,6000,14992,25,-69,-12
5211.893,304,302,301,305,416,6000,14992,25,-69,-12
5213.4890000000005,305,302,301,305,384,6024,15004,-1,-2,-24
5220.256,304,302,302,306,384,6024,15004,-1,-2,-24
5224.961,305,302,302,305,384,6024,15004,-1,-2,-24
5224.961,305,302,301,305,384,6024,15004,-1,-2,-24
5236.2789999999995,304,302,301,305,384,6024,15004,-1,-2,-24
5241.856000000001,304,302,302,306,384,6024,15004,-1,-2,-24
5246.717000000001,304,302,302,305,384,6024,15004,-1,-2,-24
5249.447,304,302,302,305,404,5916,14948,-48,-39,28
5258.88,305,302,302,306,404,5916,14948,-48,-39,28
5258.88,305,301,302,306,404,5916,14948,-48,-39,28
5269.542,305,301,303,305,404,5916,14948,-48,-39,28
5269.542,304,301,303,305,404,5916,14948,-48,-39,28
5280.198,304,301,303,305,404,5916,14948,-48,-39,28
5288.255,304,301,303,305,404,5916,14948,-48,-39,28
5291.540999999999,303,300,304,304,404,5916,14948,-48,-39,28
5293.848,303,300,303,304,300,5932,14924,-21,-44,-3
5302.983,303,300,304,305,300,5932,14924,-21,-44,-3
5305.91,304,300,305,304,300,5932,14924,-21,-44,-3
5305.91,303,300,304,304,300,5932,14924,-21,-44,-3
5313.816,303,300,305,304,300,5932,14924,-21,-44,-3
5325.2,303,300,305,304,300,5932,14924,-21,-44,-3
5326.976000000001,303,300,305,304,300,5932,14924,-21,-44,-3
5326.976000000001,303,300,305,304,372,6012,14972,-90,16,-27
5337.119000000001,304,300,305,304,372,6012,14972,-90,16,-27
5343.599,305,300,306,304,372,6012,14972,-90,16,-27
5347.598,305,300,305,304,372,6012,14972,-90,16,-27
5352.3820000000005,304,300,305,304,372,6012,14972,-90,16,-27
5359.455,305,301,305,304,372,6012,14972,-90,16,-27
5359.455,305,301,305,305,372,6012,14972,-90,16,-27
5369.392000000001,305,302,304,304,372,6012,14972,-90,16,-27
5378.615,304,302,305,304,408,5976,14924,-47,-1,-10
5380.955,305,302,305,304,408,5976,14924,-47,-1,-10
5389.69,306,302,305,304,408,5976,14924,-47,-1,-10
5391.892000000001,305,302,304,304,408,5976,14924,-47,-1,-10
5391.892000000001,305,302,304,304,408,5976,14924,-47,-1,-10
5403.045,306,302,304,304,408,5976,14924,-47,-1,-10
5403.045,306,302,304,304,408,5976,14924,-47,-1,-10
5415.353,306,302,303,303,356,6128,14944,-30,22,-38
5415.353,307,303,304,304,356,6128,14944,-30,22,-38
5424.820000000001,306,302,304,305,356,6128,14944,-30,22,-38
5428.8910000000005,307,302,303,304,356,6128,14944,-30,22,-38
5435.794,306,302,303,303,356,6128,14944,-30,22,-38
5435.794,306,302,304,304,356,6128,14944,-30,22,-38
5447.277,306,302,303,304,356,6128,14944,-30,22,-38
5447.277,306,302,302,304,372,6000,14944,-72,-31,-16
5458.263,306,302,302,304,372,6000,14944,-72,-31,-16
5462.545,306,302,302,304,372,6000,14944,-72,-31,-16
5462.545,305,302,302,304,372,6000,14944,-72,-31,-16
5470.032,306,302,302,304,372,6000,14944,-72,-31,-16
5480.314,306,302,303,304,372,6000,14944,-72,-31,-16
5480.314,306,302,303,304,372,6000,14944,-72,-31,-16
5491.817,305,302,302,304,372,6000,14944,-72,-31,-16
5491.817,305,302,302,304,440,6076,14920,-55,49,-4
5499.692,306,302,302,305,440,6076,14920,-55,49,-4
5502.616,306,302,303,305,440,6076,14920,-55,49,-4
5513.8189999999995,306,302,301,305,440,6076,14920,-55,49,-4
5513.8189999999995,306,302,302,304,440,6076,14920,-55,49,-4
5519.845,307,302,302,305,440,6076,14920,-55,49,-4
5524.985,307,302,302,305,440,6076,14920,-55,49,-4
5532.284,306,303,302,305,376,6036,14884,-28,-29,-22
5535.977,307,303,302,305,376,6036,14884,-28,-29,-22
5540.546,307,303,303,305,376,6036,14884,-28,-29,-22
5547.831,307,303,303,304,376,6036,14884,-28,-29,-22
5547.831,307,303,303,305,376,6036,14884,-28,-29,-22
5558.6,308,303,303,305,376,6036,14884,-28,-29,-22
5565.0,308,303,303,305,376,6036,14884,-28,-29,-22
5569.538,308,303,303,305,376,6036,14884,-28,-29,-22
5577.216,307,303,303,304,392,6012,14960,-113,11,-2
5580.39,307,303,304,305,392,6012,14960,-113,11,-2
5585.434,307,304,303,305,392,6012,14960,-113,11,-2
5592.75,307,304,303,305,392,6012,14960,-113,11,-2
5596.878000000001,307,304,304,305,392,6012,14960,-113,11,-2
5603.035,308,304,304,305,392,6012,14960,-113,11,-2
5612.209,307,304,303,305,392,6012,14960,-113,11,-2
5614.995000000001,308,304,304,304,344,6048,14932,-20,43,-32
5614.995000000001,307,305,304,305,344,6048,14932,-20,43,-32
5624.872,307,305,304,305,344,6048,14932,-20,43,-32
5630.764,306,305,304,304,344,6048,14932,-20,43,-32
5635.679999999999,307,305,304,304,344,6048,14932,-20,43,-32
5638.216,307,305,304,305,344,6048,14932,-20,43,-32
5647.268999999999,307,305,303,304,344,6048,14932,-20,43,-32
5647.268999999999,308,305,303,304,412,6060,14912,-41,23,-21
5658.392,308,305,304,304,412,6060,14912,-41,23,-21
5658.392,307,306,303,305,412,6060,14912,-41,23,-21
5669.5869999999995,307,306,303,305,412,6060,14912,-41,23,-21
5677.6669999999995,307,306,303,305,412,6060,14912,-41,23,-21
5680.4490000000005,307,306,303,305,412,6060,14912,-41,23,-21
5680.4490000000005,307,306,304,305,412,6060,14912,-41,23,-21
5690.47,308,306,303,304,412,6060,14912,-41,23,-21
5693.663,308,306,302,304,340,6004,14964,-35,-16,-23
5700.666,308,305,303,305,340,6004,14964,-35,-16,-23
5702.862999999999,307,306,303,304,340,6004,14964,-35,-16,-23
5714.295,307,306,302,304,340,6004,14964,-35,-16,-23
5714.295,307,306,302,304,340,6004,14964,-35,-16,-23
5725.075000000001,307,306,303,304,340,6004,14964,-35,-16,-23
5725.075000000001,307,305,302,304,340,6004,14964,-35,-16,-23
5735.286999999999,306,305,301,304,420,6044,14928,-66,35,-30
5737.1939999999995,306,305,301,304,420,6044,14928,-66,35,-30
5747.164,306,305,301,305,420,6044,14928,-66,35,-30
5747.164,306,305,300,304,420,6044,14928,-66,35,-30
5754.519,305,305,300,304,420,6044,14928,-66,35,-30
5758.232999999999,305,305,300,304,420,6044,14928,-66,35,-30
5765.454,306,305,300,304,420,6044,14928,-66,35,-30
5770.196999999999,306,304,300,304,420,6044,14928,-66,35,-30
5778.681,306,305,300,304,400,6024,14944,-97,38,-33
5780.787,306,304,300,304,400,6024,14944,-97,38,-33
5786.089,305,304,300,304,400,6024,14944,-97,38,-33
5791.241999999999,305,303,299,303,400,6024,14944,-97,38,-33
5797.9839999999995,305,303,299,304,400,6024,14944,-97,38,-33
5802.878,305,303,299,304,400,6024,14944,-97,38,-33
5806.701,304,303,299,304,400,6024,14944,-97,38,-33
5814.266,305,303,299,304,396,6112,14884,-35,17,-28
5814.266,304,303,300,304,396,6112,14884,-35,17,-28
5825.271,305,303,300,304,396,6112,14884,-35,17,-28
5832.162,304,303,299,304,396,6112,14884,-35,17,-28
5835.96,304,303,300,304,396,6112,14884,-35,17,-28
5839.254999999999,304,303,300,304,396,6112,14884,-35,17,-28
5847.739,304,303,300,304,396,6112,14884,-35,17,-28
5847.739,303,303,299,304,408,5980,14992,-107,35,-10
5861.18,303,302,300,304,408,5980,14992,-107,35,-10
5865.337,304,302,301,304,408,5980,14992,-107,35,-10
5870.153,304,302,300,304,408,5980,14992,-107,35,-10
5878.468,303,303,299,304,408,5980,14992,-107,35,-10
5881.835,303,303,300,305,408,5980,14992,-107,35,-10
5887.068,304,302,300,305,408,5980,14992,-107,35,-10
5891.641,303,303,300,304,408,5980,14992,-107,35,-10
5896.867,303,303,300,304,284,6012,14996,-122,83,-40
5902.782,304,302,300,305,284,6012,14996,-122,83,-40
5904.648,304,302,300,304,284,6012,14996,-122,83,-40
5914.1089999999995,303,302,299,304,284,6012,14996,-122,83,-40
5914.1089999999995,303,303,299,304,284,6012,14996,-122,83,-40
5924.941,304,302,300,305,284,6012,14996,-122,83,-40
5929.362,304,303,300,305,284,6012,14996,-122,83,-40
5936.147,304,302,300,304,456,5996,14936,-89,36,-4
5936.997,304,302,300,305,456,5996,14936,-89,36,-4
5947.331,305,302,301,305,456,5996,14936,-89,36,-4
5947.331,304,302,300,304,456,5996,14936,-89,36,-4
5954.817,304,302,301,304,456,5996,14936,-89,36,-4
5958.611999999999,303,302,301,305,456,5996,14936,-89,36,-4
5966.147,303,302,301,305,456,5996,14936,-89,36,-4
5969.541,303,302,301,304,456,5996,14936,-89,36,-4
5980.499,303,302,302,304,376,6036,14984,-119,18,-32
5980.499,303,301,303,304,376,6036,14984,-119,18,-32
5980.499,304,301,303,304,376,6036,14984,-119,18,-32
5992.037,303,302,302,304,376,6036,14984,-119,18,-32
5999.879,303,302,303,304,376,6036,14984,-119,18,-32
6002.922,302,302,303,305,376,6036,14984,-119,18,-32
6007.658,302,302,302,304,376,6036,14984,-119,18,-32
6014.54,302,302,303,304,344,6004,14936,-178,120,-35
6025.076999999999,302,302,303,304,344,6004,14936,-178,120,-35
6025.076999999999,303,302,303,304,344,6004,14936,-178,120,-35
6031.37,302,303,303,304,344,6004,14936,-178,120,-35
6036.181,303,303,303,305,344,6004,14936,-178,120,-35
6044.168,303,303,303,305,344,6004,14936,-178,120,-35
6047.037,303,304,302,304,344,6004,14936,-178,120,-35
6058.379000000001,303,304,302,304,400,6016,14908,-85,21,-31
6058.379000000001,303,304,302,305,400,6016,14908,-85,21,-31
6064.384999999999,303,304,302,304,400,6016,14908,-85,21,-31
6069.562,303,305,301,304,400,6016,14908,-85,21,-31
6076.131,304,305,301,304,400,6016,14908,-85,21,-31
6080.7,304,305,302,305,400,6016,14908,-85,21,-31
6085.1179999999995,304,306,301,305,400,6016,14908,-85,21,-31
6093.1230000000005,303,305,301,304,324,6060,14980,-107,9,-43
6093.1230000000005,303,306,301,304,324,6060,14980,-107,9,-43
6103.087,304,306,301,304,324,6060,14980,-107,9,-43
6111.851,303,306,300,304,324,6060,14980,-107,9,-43
6113.674,304,306,300,304,324,6060,14980,-107,9,-43
6117.139,304,306,301,304,324,6060,14980,-107,9,-43
6124.926,304,306,301,304,324,6060,14980,-107,9,-43
6130.5,303,306,300,304,324,6060,14980,-107,9,-43
6135.866,303,306,301,304,364,6020,14992,-137,13,-23
6138.117,303,306,301,304,364,6020,14992,-137,13,-23
6148.111,304,305,301,304,364,6020,14992,-137,13,-23
6156.553,303,305,299,304,364,6020,14992,-137,13,-23
6158.451999999999,304,305,300,304,364,6020,14992,-137,13,-23
6158.451999999999,304,305,301,304,364,6020,14992,-137,13,-23
6169.526,304,304,300,304,364,6020,14992,-137,13,-23
6175.466,303,304,300,304,384,6048,14892,-119,59,-28
6180.438999999999,303,305,301,305,384,6048,14892,-119,59,-28
6182.837,304,304,301,305,384,6048,14892,-119,59,-28
6192.732999999999,303,304,299,304,384,6048,14892,-119,59,-28
6192.732999999999,304,304,300,304,384,6048,14892,-119,59,-28
6203.865000000001,304,304,300,304,384,6048,14892,-119,59,-28
6209.601000000001,304,303,300,304,384,6048,14892,-119,59,-28
6213.866999999999,304,303,299,304,412,6088,14948,-148,21,-31
6221.959,304,304,299,304,412,6088,14948,-148,21,-31
6225.139,304,304,299,304,412,6088,14948,-148,21,-31
6227.867,304,304,300,304,412,6088,14948,-148,21,-31
6236.138000000001,304,304,300,304,412,6088,14948,-148,21,-31
6239.971,305,304,300,305,412,6088,14948,-148,21,-31
6246.919,305,304,301,305,412,6088,14948,-148,21,-31
6246.919,304,303,300,304,412,6088,14948,-148,21,-31
6258.0289999999995,304,304,301,305,388,6208,14924,-128,44,-122
6258.0289999999995,304,304,300,305,388,6208,14924,-128,44,-122
6269.546,304,304,298,304,388,6208,14924,-128,44,-122
6273.436000000001,304,304,297,305,388,6208,14924,-128,44,-122
6280.331999999999,304,304,297,306,388,6208,14924,-128,44,-122
6285.016,305,304,297,306,388,6208,14924,-128,44,-122
6291.454,305,304,295,307,388,6208,14924,-128,44,-122
6293.574,306,304,294,307,304,5632,15028,-383,187,-154
6302.751,306,304,292,308,304,5632,15028,-383,187,-154
6312.027,306,304,290,308,304,5632,15028,-383,187,-154
6313.9529999999995,306,304,290,308,304,5632,15028,-383,187,-154
6318.88,307,305,289,309,304,5632,15028,-383,187,-154
6324.318,307,305,288,309,304,5632,15028,-383,187,-154
6331.045999999999,307,305,287,309,304,5632,15028,-383,187,-154
6336.009,307,305,287,309,292,5860,14924,-96,249,-40
6342.351,307,305,287,310,292,5860,14924,-96,249,-40
6347.4259999999995,307,305,286,309,292,5860,14924,-96,249,-40
6350.761,306,305,286,309,292,5860,14924,-96,249,-40
6359.112,307,305,287,310,292,5860,14924,-96,249,-40
6359.112,306,305,288,310,292,5860,14924,-96,249,-40
6369.892,306,306,287,310,292,5860,14924,-96,249,-40
6375.8369999999995,306,306,288,310,336,5996,14908,-107,166,-93
6380.631,305,307,289,310,336,5996,14908,-107,166,-93
6390.002,304,308,289,309,336,5996,14908,-107,166,-93
6392.089999999999,304,308,291,310,336,5996,14908,-107,166,-93
6400.693,304,309,292,309,336,5996,14908,-107,166,-93
6402.803,305,309,293,309,336,5996,14908,-107,166,-93
6409.664000000001,304,309,292,308,336,5996,14908,-107,166,-93
6413.932,305,309,293,309,240,5928,15060,-220,195,-93
6420.789,306,309,294,309,240,5928,15060,-220,195,-93
6425.137000000001,307,309,294,309,240,5928,15060,-220,195,-93
6435.639,306,309,294,308,240,5928,15060,-220,195,-93
6436.159,307,310,294,308,240,5928,15060,-220,195,-93
6446.8189999999995,308,310,295,309,240,5928,15060,-220,195,-93
6446.8189999999995,308,309,295,307,240,5928,15060,-220,195,-93
6453.161,308,309,295,308,312,5928,14884,-7,143,-39
6458.412,309,309,296,308,312,5928,14884,-7,143,-39
6465.553,308,309,296,308,312,5928,14884,-7,143,-39
6470.018,308,309,296,307,312,5928,14884,-7,143,-39
6470.018,308,310,297,307,312,5928,14884,-7,143,-39
6480.918,308,309,297,307,312,5928,14884,-7,143,-39
6486.945000000001,308,309,297,307,312,5928,14884,-7,143,-39
6491.571000000001,308,309,297,307,312,5928,14884,-7,143,-39
6494.111,309,309,298,307,308,5924,15124,-505,141,17
6503.73,308,308,298,307,308,5924,15124,-505,141,17
6503.73,308,308,298,306,308,5924,15124,-505,141,17
6513.764,307,309,298,305,308,5924,15124,-505,141,17
6513.764,306,308,299,306,308,5924,15124,-505,141,17
6525.103999999999,306,308,300,306,308,5924,15124,-505,141,17
6534.215999999999,304,309,300,305,308,5924,15124,-505,141,17
6536.299,304,308,300,305,260,5744,15280,-146,235,-50
6545.401,304,308,300,305,260,5744,15280,-146,235,-50
6547.662,304,308,301,306,260,5744,15280,-146,235,-50
6551.316,304,308,301,305,260,5744,15280,-146,235,-50
6557.991,303,308,301,305,260,5744,15280,-146,235,-50
6564.508,301,308,301,305,260,5744,15280,-146,235,-50
6569.39,300,307,300,305,260,5744,15280,-146,235,-50
6572.0689999999995,299,307,300,305,504,6980,15524,312,311,-400
6581.089000000001,298,308,302,306,504,6980,15524,312,311,-400
6589.92,298,307,302,306,504,6980,15524,312,311,-400
6591.905,297,307,301,306,504,6980,15524,312,311,-400
6597.6990000000005,295,307,302,307,504,6980,15524,312,311,-400
6602.68,293,307,302,307,504,6980,15524,312,311,-400
6608.874,291,307,302,307,504,6980,15524,312,311,-400
6614.128,292,308,302,307,-96,8524,19492,1081,2645,-1692
6621.05,293,308,300,307,-96,8524,19492,1081,2645,-1692
6624.95,295,310,294,308,-96,8524,19492,1081,2645,-1692
6635.985,295,312,283,308,-96,8524,19492,1081,2645,-1692
6644.072,296,314,272,308,-96,8524,19492,1081,2645,-1692
6647.195,298,319,261,308,-96,8524,19492,1081,2645,-1692
6647.195,300,322,251,307,-96,8524,19492,1081,2645,-1692
6658.610000000001,303,325,242,305,52,7948,22728,2998,5742,-1991
6658.610000000001,306,327,234,304,52,7948,22728,2998,5742,-1991
6669.253000000001,309,330,227,303,52,7948,22728,2998,5742,-1991
6674.943,314,331,223,302,52,7948,22728,2998,5742,-1991
6680.098,317,332,218,303,52,7948,22728,2998,5742,-1991
6687.2,315,327,210,303,52,7948,22728,2998,5742,-1991
6692.167,309,308,197,304,52,7948,22728,2998,5742,-1991
6694.8150000000005,297,287,179,307,452,11624,22824,8768,9648,-2233
6703.316,275,258,154,314,452,11624,22824,8768,9648,-2233
6714.165,257,236,122,319,452,11624,22824,8768,9648,-2233
6718.789,234,221,69,325,452,11624,22824,8768,9648,-2233
6724.927,215,202,11,328,452,11624,22824,8768,9648,-2233
6724.927,200,150,0,331,452,11624,22824,8768,9648,-2233
6735.853999999999,192,74,0,335,-16,8852,16540,7369,10217,-5310
6740.224999999999,188,0,0,344,-16,8852,16540,7369,10217,-5310
6746.840999999999,189,0,0,350,-16,8852,16540,7369,10217,-5310
6752.345,189,0,0,358,-16,8852,16540,7369,10217,-5310
6758.235,191,0,0,373,-16,8852,16540,7369,10217,-5310
6760.608,192,0,0,385,-16,8852,16540,7369,10217,-5310
6770.5019999999995,197,0,0,397,-16,8852,16540,7369,10217,-5310
6770.5019999999995,203,0,0,408,660,10120,15996,1939,12493,-9516
6780.665,212,0,0,422,660,10120,15996,1939,12493,-9516
6785.878000000001,222,0,0,436,660,10120,15996,1939,12493,-9516
6790.947,231,0,0,451,660,10120,15996,1939,12493,-9516
6797.96,232,0,0,465,660,10120,15996,1939,12493,-9516
6802.817,227,0,0,474,660,10120,15996,1939,12493,-9516
6806.0380000000005,217,0,3,483,660,10120,15996,1939,12493,-9516
6814.441000000001,209,0,14,489,-620,9776,15232,3413,18503,-11829
6823.295,199,0,34,496,-620,9776,15232,3413,18503,-11829
6825.3859999999995,193,8,47,500,-620,9776,15232,3413,18503,-11829
6835.966,183,21,64,502,-620,9776,15232,3413,18503,-11829
6835.966,175,39,81,502,-620,9776,15232,3413,18503,-11829
6847.184,174,58,101,507,-620,9776,15232,3413,18503,-11829
6847.184,166,75,123,514,-620,9776,15232,3413,18503,-11829
6858.4490000000005,167,97,152,532,-3120,8560,10020,4724,21965,-14099
6858.4490000000005,174,122,174,547,-3120,8560,10020,4724,21965,-14099
6869.555,184,146,188,554,-3120,8560,10020,4724,21965,-14099
6880.072,198,169,206,559,-3120,8560,10020,4724,21965,-14099
6883.038,220,198,233,565,-3120,8560,10020,4724,21965,-14099
6892.798,246,224,257,567,-3120,8560,10020,4724,21965,-14099
6892.798,277,250,284,576,-4796,5748,7460,-1935,22356,-17059
6903.144,306,275,313,590,-4796,5748,7460,-1935,22356,-17059
6913.214,332,298,340,599,-4796,5748,7460,-1935,22356,-17059
6913.214,353,319,367,602,-4796,5748,7460,-1935,22356,-17059
6925.017000000001,376,346,391,601,-4796,5748,7460,-1935,22356,-17059
6925.017000000001,388,371,416,610,-4796,5748,7460,-1935,22356,-17059
6936.2029999999995,393,398,438,616,-7380,1180,3160,-5032,21239,-14598
6946.437000000001,389,421,462,629,-7380,1180,3160,-5032,21239,-14598
6948.598,377,438,474,638,-7380,1180,3160,-5032,21239,-14598
6958.103999999999,362,454,487,643,-7380,1180,3160,-5032,21239,-14598
6960.886,344,469,503,647,-7380,1180,3160,-5032,21239,-14598
6970.535,332,480,513,661,-7380,1180,3160,-5032,21239,-14598
6978.802,316,485,505,673,-9636,3752,3100,-6047,19669,-11305
6981.353,300,488,512,696,-9636,3752,3100,-6047,19669,-11305
6991.247,287,485,512,712,-9636,3752,3100,-6047,19669,-11305
6993.709,285,484,517,728,-9636,3752,3100,-6047,19669,-11305
7003.226,287,486,514,739,-9636,3752,3100,-6047,19669,-11305
7005.992,294,493,526,750,-9636,3752,3100,-6047,19669,-11305
7013.831,298,501,529,749,-9636,3752,3100,-6047,19669,-11305
7024.906,301,509,530,742,-14380,1372,12076,-4732,16058,-11356
7024.906,308,521,546,739,-14380,1372,12076,-4732,16058,-11356
7036.069,315,531,553,730,-14380,1372,12076,-4732,16058,-11356
7038.738,322,540,557,717,-14380,1372,12076,-4732,16058,-11356
7047.605,328,553,564,707,-14380,1372,12076,-4732,16058,-11356
7058.169999999999,332,566,563,692,-14380,1372,12076,-4732,16058,-11356
7058.504,333,573,549,676,-11364,1768,5540,2248,12074,-10696
7069.434,335,581,541,664,-11364,1768,5540,2248,12074,-10696
7078.208,335,584,531,648,-11364,1768,5540,2248,12074,-10696
7080.486,333,586,528,633,-11364,1768,5540,2248,12074,-10696
7084.2429999999995,331,586,525,611,-11364,1768,5540,2248,12074,-10696
7092.464,327,582,522,587,-11364,1768,5540,2248,12074,-10696
7102.969,325,576,525,562,-14360,-280,3936,-3087,7053,-7036
7111.116,326,569,524,537,-14360,-280,3936,-3087,7053,-7036
7113.678,329,561,526,513,-14360,-280,3936,-3087,7053,-7036
7122.509,333,553,535,490,-14360,-280,3936,-3087,7053,-7036
7125.033,335,543,538,466,-14360,-280,3936,-3087,7053,-7036
7136.0599999999995,337,533,541,443,-14360,-280,3936,-3087,7053,-7036
7136.284,340,522,551,419,-14852,344,4508,-4380,6680,-5932
7146.858,341,512,555,395,-14852,344,4508,-4380,6680,-5932
7146.858,346,505,562,375,-14852,344,4508,-4380,6680,-5932
7158.306,348,497,570,351,-14852,344,4508,-4380,6680,-5932
7162.5740000000005,347,491,572,327,-14852,344,4508,-4380,6680,-5932
7169.857,345,487,576,308,-14852,344,4508,-4380,6680,-5932
7180.817,341,482,577,285,-16324,-996,4420,-1525,3791,-5047
7180.817,336,480,574,265,-16324,-996,4420,-1525,3791,-5047
7191.845,331,479,574,247,-16324,-996,4420,-1525,3791,-5047
7191.845,327,480,576,234,-16324,-996,4420,-1525,3791,-5047
7203.2660000000005,317,480,576,217,-16324,-996,4420,-1525,3791,-5047
7203.2660000000005,310,480,573,201,-16324,-996,4420,-1525,3791,-5047
7213.955,301,481,575,188,-16324,-996,4420,-1525,3791,-5047
7224.375,293,480,570,175,-15748,964,3852,1094,3561,-4567
7229.121,286,482,569,165,-15748,964,3852,1094,3561,-4567
7229.121,280,481,560,152,-15748,964,3852,1094,3561,-4567
7237.154,276,482,560,142,-15748,964,3852,1094,3561,-4567
7244.42,276,485,553,130,-15748,964,3852,1094,3561,-4567
7247.339,276,490,547,118,-15748,964,3852,1094,3561,-4567
7258.058,277,490,538,103,-15676,-32,3716,975,3387,-3493
7264.649,280,491,533,92,-15676,-32,3716,975,3387,-3493
7269.5470000000005,284,492,532,82,-15676,-32,3716,975,3387,-3493
7278.900000000001,288,491,524,71,-15676,-32,3716,975,3387,-3493
7281.08,292,491,525,61,-15676,-32,3716,975,3387,-3493
7289.602999999999,296,491,525,50,-15676,-32,3716,975,3387,-3493
7291.655000000001,303,491,527,43,-15676,-32,3716,975,3387,-3493
7302.767,308,490,525,32,-15604,-624,3468,-1734,2517,-2667
7305.464,314,487,523,21,-15604,-624,3468,-1734,2517,-2667
7315.464999999999,320,487,527,16,-15604,-624,3468,-1734,2517,-2667
7315.464999999999,326,486,525,7,-15604,-624,3468,-1734,2517,-2667
7324.985,331,486,524,0,-15604,-624,3468,-1734,2517,-2667
7333.056,334,485,520,0,-15604,-624,3468,-1734,2517,-2667
7336.3279999999995,338,484,515,0,-15836,-988,3844,-2474,1641,-1540
7336.3279999999995,342,484,512,0,-15836,-988,3844,-2474,1641,-1540
7347.252,345,484,513,0,-15836,-988,3844,-2474,1641,-1540
7356.372,348,483,509,0,-15836,-988,3844,-2474,1641,-1540
7358.5289999999995,351,482,506,0,-15836,-988,3844,-2474,1641,-1540
7367.54,354,479,499,0,-15836,-988,3844,-2474,1641,-1540
7375.502,358,478,500,0,-15836,-988,3844,-2474,1641,-1540
7381.554,362,476,499,0,-15832,-896,4152,-2328,1356,-1027
7384.16,365,474,498,0,-15832,-896,4152,-2328,1356,-1027
7392.348,367,470,493,0,-15832,-896,4152,-2328,1356,-1027
7400.835,371,467,491,0,-15832,-896,4152,-2328,1356,-1027
7402.910000000001,371,466,492,0,-15832,-896,4152,-2328,1356,-1027
7413.583,373,462,486,0,-15832,-896,4152,-2328,1356,-1027
7413.583,372,457,479,0,-15788,-968,4236,-969,603,-527
7419.826999999999,374,455,482,0,-15788,-968,4236,-969,603,-527
7425.299,373,452,480,0,-15788,-968,4236,-969,603,-527
7432.05,372,448,476,0,-15788,-968,4236,-969,603,-527
7436.777,372,444,475,1,-15788,-968,4236,-969,603,-527
7447.256,371,441,473,2,-15788,-968,4236,-969,603,-527
7455.371,370,437,468,3,-15788,-968,4236,-969,603,-527
7458.292,369,433,464,3,-16080,-1264,3908,43,193,314
7460.971,367,429,462,3,-16080,-1264,3908,43,193,314
7470.596,366,426,460,5,-16080,-1264,3908,43,193,314
7470.596,364,422,456,5,-16080,-1264,3908,43,193,314
7478.607,362,417,454,7,-16080,-1264,3908,43,193,314
7481.3369999999995,360,413,450,7,-16080,-1264,3908,43,193,314
7492.013,357,409,448,7,-16080,-1264,3908,43,193,314
7492.013,356,405,448,8,-16080,-1264,3908,43,193,314
7502.9839999999995,354,402,451,12,-15812,-1432,3332,2129,-155,1306
7502.9839999999995,350,394,448,12,-15812,-1432,3332,2129,-155,1306
7514.032,347,390,449,14,-15812,-1432,3332,2129,-155,1306
7518.736,343,385,450,17,-15812,-1432,3332,2129,-155,1306
7524.581999999999,340,380,450,19,-15812,-1432,3332,2129,-155,1306
7531.094999999999,336,375,448,21,-15812,-1432,3332,2129,-155,1306
7535.965,332,371,449,24,-15976,-904,4144,1498,-957,1009
7542.524,329,368,450,27,-15976,-904,4144,1498,-957,1009
7547.374,324,365,452,31,-15976,-904,4144,1498,-957,1009
7556.021000000001,321,362,454,35,-15976,-904,4144,1498,-957,1009
7558.432,318,359,454,38,-15976,-904,4144,1498,-957,1009
7569.598,316,355,452,40,-15976,-904,4144,1498,-957,1009
7577.713,315,353,451,43,-15976,-904,4144,1498,-957,1009
7580.353999999999,313,352,449,49,-15800,-292,4808,-474,142,1323
7580.353999999999,311,350,446,52,-15800,-292,4808,-474,142,1323
7591.611000000001,310,348,441,53,-15800,-292,4808,-474,142,1323
7591.611000000001,310,348,441,60,-15800,-292,4808,-474,142,1323
7601.81,309,346,435,62,-15800,-292,4808,-474,142,1323
7608.268,310,345,438,69,-15800,-292,4808,-474,142,1323
7613.294,309,342,435,70,-15800,-292,4808,-474,142,1323
7620.545,308,341,435,76,-15764,332,4696,-988,-797,937
7625.7919999999995,309,338,435,80,-15764,332,4696,-988,-797,937
7634.393,308,337,433,85,-15764,332,4696,-988,-797,937
7636.573,307,335,430,87,-15764,332,4696,-988,-797,937
7647.3550000000005,306,333,424,91,-15764,332,4696,-988,-797,937
7647.3550000000005,305,329,419,93,-15764,332,4696,-988,-797,937
7656.522,306,328,419,99,-15764,332,4696,-988,-797,937
7658.334,305,327,417,104,-16024,80,5052,-2076,256,459
7665.965,304,324,410,108,-16024,80,5052,-2076,256,459
7669.5869999999995,303,324,410,112,-16024,80,5052,-2076,256,459
7678.7119999999995,302,322,407,115,-16024,80,5052,-2076,256,459
7681.116,301,321,407,120,-16024,80,5052,-2076,256,459
7692.228,300,320,405,125,-16024,80,5052,-2076,256,459
7692.228,300,321,404,130,-16024,80,5052,-2076,256,459
7703.282999999999,298,320,400,133,-15860,-264,4120,-212,-2,-397
7707.03,296,319,395,137,-15860,-264,4120,-212,-2,-397
7713.173000000001,294,317,389,138,-15860,-264,4120,-212,-2,-397
7719.358,293,318,387,145,-15860,-264,4120,-212,-2,-397
7724.697,293,318,382,148,-15860,-264,4120,-212,-2,-397
7733.851,290,318,376,150,-15860,-264,4120,-212,-2,-397
7737.133,293,318,373,155,-15992,-308,4280,45,-154,-292
7739.358,292,319,370,160,-15992,-308,4280,45,-154,-292
7747.918000000001,292,319,367,163,-15992,-308,4280,45,-154,-292
7758.618,292,320,364,167,-15992,-308,4280,45,-154,-292
7758.618,292,321,362,171,-15992,-308,4280,45,-154,-292
7769.625999999999,293,321,359,173,-15992,-308,4280,45,-154,-292
7771.804999999999,293,321,356,176,-15992,-308,4280,45,-154,-292
7779.81,293,321,352,180,-15872,-408,4600,23,-295,13
7781.178,296,322,353,186,-15872,-408,4600,23,-295,13
7788.725,296,323,351,189,-15872,-408,4600,23,-295,13
7791.715,297,322,346,192,-15872,-408,4600,23,-295,13
7803.188999999999,298,323,346,196,-15872,-408,4600,23,-295,13
7803.188999999999,298,323,344,200,-15872,-408,4600,23,-295,13
7814.221,299,323,341,202,-15872,-408,4600,23,-295,13
7816.668,299,322,335,203,-15928,-368,5016,1071,-263,47
7825.711,302,325,338,211,-15928,-368,5016,1071,-263,47
7828.97,302,324,336,214,-15928,-368,5016,1071,-263,47
7835.872,303,325,336,217,-15928,-368,5016,1071,-263,47
7835.872,303,325,332,220,-15928,-368,5016,1071,-263,47
7847.571,304,325,327,221,-15928,-368,5016,1071,-263,47
7856.290000000001,305,325,330,226,-15928,-368,5016,1071,-263,47
7858.585,306,325,330,230,-15836,140,4820,1337,-98,173
7862.541,308,324,328,235,-15836,140,4820,1337,-98,173
7869.201999999999,309,324,327,237,-15836,140,4820,1337,-98,173
7874.817,309,323,327,239,-15836,140,4820,1337,-98,173
7880.1759999999995,310,321,325,241,-15836,140,4820,1337,-98,173
7886.543,311,318,323,245,-15836,140,4820,1337,-98,173
7891.885,312,316,324,249,-15836,140,4820,1337,-98,173
7899.712,312,315,326,252,-15768,156,4940,1285,-153,41
7902.764,312,314,324,256,-15768,156,4940,1285,-153,41
7913.924,313,312,325,259,-15768,156,4940,1285,-153,41
7913.924,313,311,320,261,-15768,156,4940,1285,-153,41
7925.6900000000005,314,310,321,265,-15768,156,4940,1285,-153,41
7927.646000000001,313,310,319,267,-15768,156,4940,1285,-153,41
7927.646000000001,313,309,318,271,-15768,156,4940,1285,-153,41
7936.713,312,307,317,273,-15820,16,4144,469,-322,126
7947.143,311,306,315,275,-15820,16,4144,469,-322,126
7947.174,311,306,316,277,-15820,16,4144,469,-322,126
7958.335,310,305,315,279,-15820,16,4144,469,-322,126
7958.335,309,305,318,281,-15820,16,4144,469,-322,126
7970.142,308,305,318,283,-15820,16,4144,469,-322,126
7970.142,306,304,320,284,-15820,16,4144,469,-322,126
7977.747,305,303,320,285,-15864,8,4668,-600,-537,217
7980.564,304,304,323,286,-15864,8,4668,-600,-537,217
7991.527999999999,303,303,325,285,-15864,8,4668,-600,-537,217
7999.631,303,303,326,288,-15864,8,4668,-600,-537,217
8002.446000000001,302,302,323,287,-15864,8,4668,-600,-537,217
8002.446000000001,301,302,323,290,-15864,8,4668,-600,-537,217
8014.201,300,302,321,290,-15864,8,4668,-600,-537,217
8014.201,299,303,318,291,-15752,-32,4744,54,-173,100
8024.798000000001,299,302,315,291,-15752,-32,4744,54,-173,100
8024.798000000001,298,302,315,291,-15752,-32,4744,54,-173,100
8036.625000000001,298,302,318,293,-15752,-32,4744,54,-173,100
8044.704,298,302,318,293,-15752,-32,4744,54,-173,100
8047.404,298,302,317,293,-15752,-32,4744,54,-173,100
8047.404,298,302,316,293,-15752,-32,4744,54,-173,100
8058.271,297,303,316,294,-15860,-48,4840,518,-131,-191
8063.548000000001,298,303,314,294,-15860,-48,4840,518,-131,-191
8068.837,297,302,312,292,-15860,-48,4840,518,-131,-191
8075.339,297,302,311,294,-15860,-48,4840,518,-131,-191
8080.366,297,302,308,294,-15860,-48,4840,518,-131,-191
8087.209,297,302,308,294,-15860,-48,4840,518,-131,-191
8092.391,298,302,306,295,-15860,-48,4840,518,-131,-191
8102.347,298,302,307,295,-15752,-64,5048,137,-42,-107
8103.02,298,302,305,294,-15752,-64,5048,137,-42,-107
8113.945,298,302,304,292,-15752,-64,5048,137,-42,-107
8113.945,299,302,306,295,-15752,-64,5048,137,-42,-107
8123.272,300,302,307,295,-15752,-64,5048,137,-42,-107
8126.023999999999,301,302,308,296,-15752,-64,5048,137,-42,-107
8133.205,300,301,309,297,-15752,-64,5048,137,-42,-107
8136.661,299,301,308,297,-15904,136,5228,-216,-33,-115
8147.099000000001,299,301,304,297,-15904,136,5228,-216,-33,-115
8155.146000000001,299,302,304,299,-15904,136,5228,-216,-33,-115
8158.41,299,301,301,299,-15904,136,5228,-216,-33,-115
8160.871999999999,299,301,299,300,-15904,136,5228,-216,-33,-115
8169.874,299,301,299,301,-15904,136,5228,-216,-33,-115
8173.159,299,301,298,303,-15904,136,5228,-216,-33,-115
8180.263,299,300,297,304,-15760,-184,4928,-225,285,-212
8186.545000000001,299,301,297,306,-15760,-184,4928,-225,285,-212
8191.509,299,301,297,307,-15760,-184,4928,-225,285,-212
8197.877999999999,300,301,295,309,-15760,-184,4928,-225,285,-212
8202.923,300,300,293,309,-15760,-184,4928,-225,285,-212
8210.908,300,300,293,311,-15760,-184,4928,-225,285,-212
8213.713,301,300,291,313,-15760,-184,4928,-225,285,-212
8225.258,301,300,290,313,-15932,64,4600,340,196,-237
8225.258,299,299,285,311,-15932,64,4600,340,196,-237
8236.884,299,299,286,313,-15932,64,4600,340,196,-237
8239.41,299,299,286,313,-15932,64,4600,340,196,-237
8239.41,299,299,285,314,-15932,64,4600,340,196,-237
8253.876999999999,298,299,286,314,-15932,64,4600,340,196,-237
8258.381,297,297,282,312,-15932,64,4600,340,196,-237
8266.615,298,298,286,313,-15828,-368,4544,52,-39,27
8269.831,297,297,290,313,-15828,-368,4544,52,-39,27
8269.831,297,297,291,313,-15828,-368,4544,52,-39,27
8281.015,297,297,292,313,-15828,-368,4544,52,-39,27
8281.015,297,297,294,313,-15828,-368,4544,52,-39,27
8288.61,296,297,294,311,-15828,-368,4544,52,-39,27
8291.435,296,296,296,309,-15828,-368,4544,52,-39,27
8302.876,297,296,298,310,-15852,-64,4812,-17,0,52
8302.876,296,296,301,310,-15852,-64,4812,-17,0,52
8315.296999999999,295,296,303,309,-15852,-64,4812,-17,0,52
8315.296999999999,295,296,305,309,-15852,-64,4812,-17,0,52
8323.368,295,296,307,309,-15852,-64,4812,-17,0,52
8325.883,294,295,304,306,-15852,-64,4812,-17,0,52
8334.447,294,295,307,307,-15852,-64,4812,-17,0,52
8336.814,295,295,307,307,-15852,-64,4812,-17,0,52
8341.812,296,295,308,307,-15788,216,4736,103,-108,92
8346.916000000001,296,295,309,306,-15788,216,4736,103,-108,92
8353.641,296,295,311,307,-15788,216,4736,103,-108,92
8358.613,295,295,313,307,-15788,216,4736,103,-108,92
8362.119,295,295,315,307,-15788,216,4736,103,-108,92
8369.443000000001,295,295,315,306,-15788,216,4736,103,-108,92
8380.537,296,295,316,306,-15788,216,4736,103,-108,92
8380.537,296,295,315,307,-15768,-76,4944,54,153,100
8387.686,297,295,315,307,-15768,-76,4944,54,153,100
8391.648,296,296,315,308,-15768,-76,4944,54,153,100
8398.944,296,296,315,308,-15768,-76,4944,54,153,100
8403.074,296,296,316,308,-15768,-76,4944,54,153,100
8413.207,296,296,313,307,-15768,-76,4944,54,153,100
8414.885,296,296,314,308,-15768,-76,4944,54,153,100
8422.92,297,296,313,308,-15788,96,4916,200,102,-18
8425.224999999999,297,296,313,309,-15788,96,4916,200,102,-18
8434.067000000001,297,296,312,308,-15788,96,4916,200,102,-18
8436.825,297,296,313,309,-15788,96,4916,200,102,-18
8440.069,297,297,312,310,-15788,96,4916,200,102,-18
8448.175000000001,297,296,309,309,-15788,96,4916,200,102,-18
8448.175000000001,298,296,310,311,-15788,96,4916,200,102,-18
8458.613,298,296,307,311,-15884,-48,4700,-225,121,-49
8464.899000000001,299,296,307,312,-15884,-48,4700,-225,121,-49
8469.530999999999,298,297,307,313,-15884,-48,4700,-225,121,-49
8477.257,299,297,306,314,-15884,-48,4700,-225,121,-49
8480.469,299,296,304,315,-15884,-48,4700,-225,121,-49
8485.849999999999,298,296,302,314,-15884,-48,4700,-225,121,-49
8491.833,299,296,301,316,-15884,-48,4700,-225,121,-49
8503.06,298,296,300,316,-15824,-60,4464,-132,51,-89
8505.705,298,296,298,317,-15824,-60,4464,-132,51,-89
8505.705,299,296,297,318,-15824,-60,4464,-132,51,-89
8515.02,298,296,296,320,-15824,-60,4464,-132,51,-89
8522.149000000001,300,296,296,321,-15824,-60,4464,-132,51,-89
8525.003999999999,299,297,294,322,-15824,-60,4464,-132,51,-89
8536.127,299,297,292,323,-15824,-60,4464,-132,51,-89
8537.142,299,296,291,324,-16008,84,4676,-135,-234,-51
8547.466999999999,300,296,289,325,-16008,84,4676,-135,-234,-51
8547.466999999999,300,296,288,327,-16008,84,4676,-135,-234,-51
8558.082,301,297,288,329,-16008,84,4676,-135,-234,-51
8562.998,300,296,287,331,-16008,84,4676,-135,-234,-51
8562.998,301,297,285,332,-16008,84,4676,-135,-234,-51
8571.177,301,297,283,333,-16008,84,4676,-135,-234,-51
8581.02,301,297,281,334,-15828,-200,4804,135,-185,108
8589.689,301,297,279,336,-15828,-200,4804,135,-185,108
8591.965999999999,302,297,275,335,-15828,-200,4804,135,-185,108
8595.342999999999,303,297,276,338,-15828,-200,4804,135,-185,108
8603.284,303,297,274,340,-15828,-200,4804,135,-185,108
8607.973,303,296,273,340,-15828,-200,4804,135,-185,108
8613.456,303,296,272,341,-15828,-200,4804,135,-185,108
8619.726999999999,303,296,269,340,-15956,-160,4740,245,-457,388
8624.734,304,297,267,341,-15956,-160,4740,245,-457,388
8632.566,303,297,267,342,-15956,-160,4740,245,-457,388
8637.155,303,297,265,342,-15956,-160,4740,245,-457,388
8647.424,303,297,263,343,-15956,-160,4740,245,-457,388
8647.424,302,297,262,343,-15956,-160,4740,245,-457,388
8658.187,302,297,263,344,-15956,-160,4740,245,-457,388
8658.187,302,296,264,342,-15816,-424,5060,-431,-98,468
8669.937,302,297,265,341,-15816,-424,5060,-431,-98,468
8673.393,302,296,267,341,-15816,-424,5060,-431,-98,468
8681.976,302,297,269,342,-15816,-424,5060,-431,-98,468
8681.976,302,297,269,341,-15816,-424,5060,-431,-98,468
8692.08,303,296,270,341,-15816,-424,5060,-431,-98,468
8698.057999999999,302,296,273,341,-15816,-424,5060,-431,-98,468
8702.92,302,296,274,340,-15840,428,5040,433,-120,9
8705.842,302,296,274,341,-15840,428,5040,433,-120,9
8714.77,302,295,273,340,-15840,428,5040,433,-120,9
8714.77,302,296,275,341,-15840,428,5040,433,-120,9
8724.83,304,295,274,340,-15840,428,5040,433,-120,9
8732.89,302,295,273,339,-15840,428,5040,433,-120,9
8737.226,302,295,274,339,-15840,428,5040,433,-120,9
8738.776,301,295,276,339,-15772,144,4780,272,-24,-206
8747.614,302,296,278,339,-15772,144,4780,272,-24,-206
8757.666000000001,302,296,281,339,-15772,144,4780,272,-24,-206
8760.515,302,296,283,339,-15772,144,4780,272,-24,-206
8763.323,302,295,283,339,-15772,144,4780,272,-24,-206
8769.171999999999,302,296,285,339,-15772,144,4780,272,-24,-206
8776.901,303,296,287,339,-15772,144,4780,272,-24,-206
8780.671,302,296,286,336,-15908,320,4884,207,-130,-437
8787.515000000001,303,296,290,337,-15908,320,4884,207,-130,-437
8792.412,302,296,290,336,-15908,320,4884,207,-130,-437
8802.782000000001,303,297,293,337,-15908,320,4884,207,-130,-437
8802.782000000001,303,296,292,335,-15908,320,4884,207,-130,-437
8815.394,304,297,296,336,-15908,320,4884,207,-130,-437
8815.394,304,296,298,336,-15908,320,4884,207,-130,-437
8825.614,305,297,299,335,-15800,168,5056,72,-270,-283
8828.433,304,297,300,334,-15800,168,5056,72,-270,-283
8837.491999999998,304,297,298,332,-15800,168,5056,72,-270,-283
8841.011999999999,304,297,302,333,-15800,168,5056,72,-270,-283
8847.035,305,297,302,332,-15800,168,5056,72,-270,-283
8847.035,305,297,303,332,-15800,168,5056,72,-270,-283
8858.496000000001,305,297,304,332,-15800,168,5056,72,-270,-283
8867.596000000001,305,297,305,331,-15756,-272,5048,-649,32,-26
8869.881,305,298,306,330,-15756,-272,5048,-649,32,-26
8874.319,305,297,305,329,-15756,-272,5048,-649,32,-26
8880.592,305,297,306,329,-15756,-272,5048,-649,32,-26
8886.973,306,297,307,329,-15756,-272,5048,-649,32,-26
8891.717,307,297,307,329,-15756,-272,5048,-649,32,-26
8898.701000000001,308,296,307,329,-15756,-272,5048,-649,32,-26
8903.265,308,297,308,329,-15796,-292,4872,-404,209,58
8912.323,308,297,308,328,-15796,-292,4872,-404,209,58
8914.386,308,297,307,328,-15796,-292,4872,-404,209,58
8924.541,309,297,308,329,-15796,-292,4872,-404,209,58
8924.541,308,296,308,327,-15796,-292,4872,-404,209,58
8932.138,309,296,309,327,-15796,-292,4872,-404,209,58
8937.695,308,296,309,328,-15796,-292,4872,-404,209,58
8944.086000000001,309,296,310,327,-15760,312,4808,309,-146,-306
8947.307999999999,308,295,311,324,-15760,312,4808,309,-146,-306
8958.265000000001,306,295,308,317,-15760,312,4808,309,-146,-306
8966.32,306,294,309,311,-15760,312,4808,309,-146,-306
8969.533,305,295,310,306,-15760,312,4808,309,-146,-306
8972.091,305,295,311,303,-15760,312,4808,309,-146,-306
8981.118,306,294,309,299,-15848,-80,4900,358,23,-410
8981.118,305,294,311,298,-15848,-80,4900,358,23,-410
8991.808,304,294,312,296,-15848,-80,4900,358,23,-410
8999.809000000001,305,295,313,296,-15848,-80,4900,358,23,-410
9002.864000000001,305,294,314,295,-15848,-80,4900,358,23,-410
9004.97,304,294,316,294,-15848,-80,4900,358,23,-410
9014.686,304,293,317,294,-15848,-80,4900,358,23,-410
9023.172,304,294,320,294,-15848,-80,4900,358,23,-410
9025.102,304,293,321,294,-15848,60,4852,349,92,-445
9030.408,304,293,321,295,-15848,60,4852,349,92,-445
9037.924,303,294,322,296,-15848,60,4852,349,92,-445
9041.905,304,294,323,297,-15848,60,4852,349,92,-445
9046.967,304,294,323,297,-15848,60,4852,349,92,-445
9049.935,303,293,325,297,-15848,60,4852,349,92,-445
9058.939,304,293,327,299,-15848,60,4852,349,92,-445
9058.939,304,293,328,299,-15816,0,4912,-488,32,-275
9069.359,304,293,329,301,-15816,0,4912,-488,32,-275
9075.718,304,293,330,301,-15816,0,4912,-488,32,-275
9080.461,304,291,327,301,-15816,0,4912,-488,32,-275
9082.753,304,292,329,304,-15816,0,4912,-488,32,-275
9092.899,304,293,327,305,-15816,0,4912,-488,32,-275
9092.899,304,293,326,306,-15816,0,4912,-488,32,-275
9102.792000000001,305,293,324,307,-15848,-476,5020,-556,433,38
9108.248,305,293,321,306,-15848,-476,5020,-556,433,38
9113.773,305,293,323,310,-15848,-476,5020,-556,433,38
9119.287,305,294,324,311,-15848,-476,5020,-556,433,38
9124.610999999999,306,294,322,312,-15848,-476,5020,-556,433,38
9127.809,307,294,321,312,-15848,-476,5020,-556,433,38
9135.808,308,294,320,315,-15848,-476,5020,-556,433,38
9146.652,309,295,319,317,-15796,156,4720,133,103,69
9147.39,310,295,317,317,-15796,156,4720,133,103,69
9152.127999999999,311,295,314,318,-15796,156,4720,133,103,69
9158.238000000001,311,295,313,320,-15796,156,4720,133,103,69
9166.818,312,295,310,320,-15796,156,4720,133,103,69
9170.999,311,295,308,320,-15796,156,4720,133,103,69
9179.083999999999,311,296,306,322,-15796,156,4720,133,103,69
9183.622,311,296,302,321,-15912,-276,4784,-177,304,13
9187.776,311,296,300,322,-15912,-276,4784,-177,304,13
9193.425,311,295,300,324,-15912,-276,4784,-177,304,13
9193.425,311,295,297,324,-15912,-276,4784,-177,304,13
9202.711000000001,311,295,297,324,-15912,-276,4784,-177,304,13
9210.078,311,296,297,325,-15912,-276,4784,-177,304,13
9214.617,311,296,297,326,-15912,-276,4784,-177,304,13
9222.742999999999,311,296,298,328,-15808,-76,4696,330,234,-104
9225.417,312,297,299,328,-15808,-76,4696,330,234,-104
9235.733,312,297,300,329,-15808,-76,4696,330,234,-104
9239.651,311,296,298,329,-15808,-76,4696,330,234,-104
9239.651,312,295,296,330,-15808,-76,4696,330,234,-104
9248.091,311,296,292,330,-15808,-76,4696,330,234,-104
9257.876,312,297,289,331,-15808,-76,4696,330,234,-104
9257.876,312,297,286,333,-15844,160,4776,255,51,-141
9269.644,313,297,282,333,-15844,160,4776,255,51,-141
9273.645,313,297,279,333,-15844,160,4776,255,51,-141
9280.62,313,297,278,334,-15844,160,4776,255,51,-141
9280.62,314,298,277,334,-15844,160,4776,255,51,-141
9291.543000000001,314,297,279,335,-15844,160,4776,255,51,-141
9296.206,314,298,279,335,-15844,160,4776,255,51,-141
9296.206,315,299,280,335,-15856,-160,4560,-139,34,-214
9304.462,314,299,279,335,-15856,-160,4560,-139,34,-214
9311.994999999999,314,299,279,334,-15856,-160,4560,-139,34,-214
9322.939,314,298,277,333,-15856,-160,4560,-139,34,-214
9322.939,315,299,279,334,-15856,-160,4560,-139,34,-214
9334.071,314,298,279,334,-15856,-160,4560,-139,34,-214
9336.132,314,299,283,334,-15856,-160,4560,-139,34,-214
9340.149,314,299,283,333,-15804,-500,4676,-324,28,-241
9351.224999999999,314,300,287,333,-15804,-500,4676,-324,28,-241
9351.224999999999,314,300,287,334,-15804,-500,4676,-324,28,-241
9358.321,314,300,289,334,-15804,-500,4676,-324,28,-241
9365.49,315,300,289,334,-15804,-500,4676,-324,28,-241
9369.739,315,300,290,333,-15804,-500,4676,-324,28,-241
9380.459,314,299,291,332,-15804,-500,4676,-324,28,-241
9388.918,314,300,291,334,-15840,-124,4828,-132,-61,-201
9391.783,315,301,293,334,-15840,-124,4828,-132,-61,-201
9391.783,315,301,293,334,-15840,-124,4828,-132,-61,-201
9403.413,314,300,293,332,-15840,-124,4828,-132,-61,-201
9406.389000000001,315,301,296,333,-15840,-124,4828,-132,-61,-201
9413.819,316,301,296,334,-15840,-124,4828,-132,-61,-201
9418.421,315,301,294,334,-15840,-124,4828,-132,-61,-201
9424.706,315,302,292,334,-15836,-360,4824,-6,-60,-43
9430.809,315,302,288,334,-15836,-360,4824,-6,-60,-43
9435.854000000001,314,302,286,334,-15836,-360,4824,-6,-60,-43
9439.999,315,303,284,334,-15836,-360,4824,-6,-60,-43
9447.779,314,303,282,334,-15836,-360,4824,-6,-60,-43
9456.537,313,303,281,335,-15836,-360,4824,-6,-60,-43
9458.691,313,303,278,336,-15836,-360,4824,-6,-60,-43
9464.288,312,303,274,335,-15868,-172,4864,-252,-25,125
9469.221,311,303,269,334,-15868,-172,4864,-252,-25,125
9475.971,310,304,268,336,-15868,-172,4864,-252,-25,125
9481.081,310,304,268,336,-15868,-172,4864,-252,-25,125
9488.735999999999,310,304,267,336,-15868,-172,4864,-252,-25,125
9491.858,309,304,266,336,-15868,-172,4864,-252,-25,125
9502.684000000001,308,304,265,338,-15868,-172,4864,-252,-25,125
9502.684000000001,308,304,265,337,-15868,-80,4832,-439,-87,77
9513.94,307,303,263,336,-15868,-80,4832,-439,-87,77
9517.489,307,304,265,337,-15868,-80,4832,-439,-87,77
9525.824,306,303,266,336,-15868,-80,4832,-439,-87,77
9525.824,306,303,270,336,-15868,-80,4832,-439,-87,77
9536.42,306,303,273,337,-15868,-80,4832,-439,-87,77
9539.948,305,303,276,337,-15868,-80,4832,-439,-87,77
9546.913,305,302,277,336,-15828,-64,4836,-210,-98,13
9556.302,304,302,276,336,-15828,-64,4836,-210,-98,13
9558.61,304,302,278,336,-15828,-64,4836,-210,-98,13
9558.61,304,302,279,336,-15828,-64,4836,-210,-98,13
9569.832,305,302,282,336,-15828,-64,4836,-210,-98,13
9574.774,305,301,283,336,-15828,-64,4836,-210,-98,13
9580.17,304,301,285,334,-15828,-64,4836,-210,-98,13
9580.17,305,301,289,335,-15900,-36,4988,162,60,-167
9591.685,305,301,289,334,-15900,-36,4988,162,60,-167
9600.714,304,301,291,334,-15900,-36,4988,162,60,-167
9602.79,304,301,293,334,-15900,-36,4988,162,60,-167
9602.79,304,301,293,334,-15900,-36,4988,162,60,-167
9613.438,304,302,294,334,-15900,-36,4988,162,60,-167
9619.257,304,301,291,333,-15900,-36,4988,162,60,-167
9625.057999999999,304,301,291,333,-15824,-148,4872,-2,3,-183
9634.078000000001,304,301,291,332,-15824,-148,4872,-2,3,-183
9636.217,305,301,292,332,-15824,-148,4872,-2,3,-183
9640.044,305,302,291,333,-15824,-148,4872,-2,3,-183
9647.109999999999,304,301,291,333,-15824,-148,4872,-2,3,-183
9652.240000000002,304,301,290,331,-15824,-148,4872,-2,3,-183
9658.082,304,301,291,332,-15824,-148,4872,-2,3,-183
9660.393,305,302,293,332,-15924,-348,4744,-160,133,-49
9670.184000000001,305,301,293,332,-15924,-348,4744,-160,133,-49
9678.734,305,301,294,333,-15924,-348,4744,-160,133,-49
9680.633,303,303,293,332,-15924,-348,4744,-160,133,-49
9684.848,303,301,292,330,-15924,-348,4744,-160,133,-49
9692.126999999999,302,302,294,331,-15924,-348,4744,-160,133,-49
9702.828,302,301,293,330,-15924,-348,4744,-160,133,-49
9705.029,302,301,295,331,-15808,-140,4792,-103,36,-22
9705.029,302,301,295,330,-15808,-140,4792,-103,36,-22
9714.291,303,301,295,329,-15808,-140,4792,-103,36,-22
9721.857,303,301,296,330,-15808,-140,4792,-103,36,-22
9725.002,302,301,297,329,-15808,-140,4792,-103,36,-22
9736.31,302,301,297,329,-15808,-140,4792,-103,36,-22
9739.838000000002,302,301,297,329,-15808,-140,4792,-103,36,-22
9747.638,302,301,297,328,-15884,-108,4828,102,75,-31
9747.638,303,301,299,329,-15884,-108,4828,102,75,-31
9754.877,304,300,298,329,-15884,-108,4828,102,75,-31
9758.391,303,301,298,328,-15884,-108,4828,102,75,-31
9769.277,302,301,299,328,-15884,-108,4828,102,75,-31
9777.647,303,301,299,327,-15884,-108,4828,102,75,-31
9781.694,302,301,299,327,-15884,-108,4828,102,75,-31
9784.372,302,301,298,326,-15832,-240,4864,119,16,0
9792.06,303,301,300,327,-15832,-240,4864,119,16,0
9795.355000000001,303,301,300,327,-15832,-240,4864,119,16,0
9795.355000000001,303,301,301,327,-15832,-240,4864,119,16,0
9803.07,303,300,301,327,-15832,-240,4864,119,16,0
9813.519,302,300,301,325,-15832,-240,4864,119,16,0
9813.519,302,300,301,325,-15832,-240,4864,119,16,0
9820.498000000001,302,300,301,325,-15884,-108,4752,99,182,38
9825.208,301,299,300,324,-15884,-108,4752,99,182,38
9832.938,301,299,301,324,-15884,-108,4752,99,182,38
9839.951,299,299,299,322,-15884,-108,4752,99,182,38
9847.105000000001,300,299,301,324,-15884,-108,4752,99,182,38
9847.105000000001,298,299,301,323,-15884,-108,4752,99,182,38
9859.005,298,299,302,324,-15884,-108,4752,99,182,38
9859.005,299,298,302,322,-15884,-108,4752,99,182,38
9865.925000000001,300,298,303,322,-15900,-120,4772,715,-32,-123
9869.355000000001,300,299,310,323,-15900,-120,4772,715,-32,-123
9880.404,300,299,313,322,-15900,-120,4772,715,-32,-123
9888.572999999999,300,299,319,322,-15900,-120,4772,715,-32,-123
9891.554,300,299,322,320,-15900,-120,4772,715,-32,-123
9899.604,300,300,325,322,-15900,-120,4772,715,-32,-123
9903.096,300,299,327,322,-15900,-120,4772,715,-32,-123
9905.68,301,299,328,321,-15864,104,4916,1261,30,-388
9913.972,301,299,326,320,-15864,104,4916,1261,30,-388
9918.143,301,300,327,319,-15864,104,4916,1261,30,-388
9924.746000000001,301,300,326,320,-15864,104,4916,1261,30,-388
9931.153,302,300,328,320,-15864,104,4916,1261,30,-388
9935.995,302,300,327,320,-15864,104,4916,1261,30,-388
9939.984,302,301,327,319,-15912,-676,4812,581,27,-99
9947.623,302,301,327,319,-15912,-676,4812,581,27,-99
9956.533,302,301,326,320,-15912,-676,4812,581,27,-99
9958.65,302,301,324,319,-15912,-676,4812,581,27,-99
9964.218,302,301,321,318,-15912,-676,4812,581,27,-99
9968.921,302,301,321,318,-15912,-676,4812,581,27,-99
9975.628,303,301,322,318,-15912,-676,4812,581,27,-99
9980.785,303,302,320,319,-15912,-676,4812,581,27,-99
9987.674,304,302,319,320,-15748,-440,4376,-745,-132,190
9991.944,304,302,315,320,-15748,-440,4376,-745,-132,190
10002.426,303,301,314,319,-15748,-440,4376,-745,-132,190
10002.426,304,301,310,319,-15748,-440,4376,-745,-132,190
10014.048,303,300,309,319,-15748,-440,4376,-745,-132,190
10014.048,304,301,311,319,-15748,-440,4376,-745,-132,190
10025.486,303,302,311,320,-15852,48,4996,-690,-281,313
10025.486,303,301,310,319,-15852,48,4996,-690,-281,313
10036.007,302,301,308,319,-15852,48,4996,-690,-281,313
10041.515000000001,303,300,309,320,-15852,48,4996,-690,-281,313
10046.842,303,301,308,320,-15852,48,4996,-690,-281,313
10056.758,303,301,306,320,-15852,48,4996,-690,-281,313
10058.793,304,301,303,321,-15852,48,4996,-690,-281,313
10058.793,304,301,298,320,-15800,-36,4976,-24,-31,138
10069.556,303,301,296,320,-15800,-36,4976,-24,-31,138
10074.507000000001,303,301,295,321,-15800,-36,4976,-24,-31,138
10080.284000000001,303,301,293,321,-15800,-36,4976,-24,-31,138
10087.103000000001,303,302,290,320,-15800,-36,4976,-24,-31,138
10091.276,305,301,290,322,-15800,-36,4976,-24,-31,138
10094.408,304,301,289,323,-15800,-36,4976,-24,-31,138
10103.831,304,301,287,321,-15844,92,4664,516,-21,-131
10103.831,304,301,285,321,-15844,92,4664,516,-21,-131
10113.952,304,300,284,322,-15844,92,4664,516,-21,-131
10121.996,304,301,284,321,-15844,92,4664,516,-21,-131
10129.498,303,301,284,321,-15844,92,4664,516,-21,-131
10134.980000000001,303,301,285,321,-15844,92,4664,516,-21,-131
10138.32,304,301,285,321,-15844,92,4664,516,-21,-131
10145.671,302,301,286,320,-15816,-256,4864,-272,108,-78
10150.996,303,301,288,321,-15816,-256,4864,-272,108,-78
10158.571,302,301,289,321,-15816,-256,4864,-272,108,-78
10158.571,302,300,289,318,-15816,-256,4864,-272,108,-78
10169.387,302,301,290,320,-15816,-256,4864,-272,108,-78
10171.839,302,301,290,320,-15816,-256,4864,-272,108,-78
10181.296,304,301,292,321,-15816,-256,4864,-272,108,-78
10184.104,304,301,292,320,-15820,-168,4792,-317,88,82
10191.457,303,301,294,320,-15820,-168,4792,-317,88,82
10191.457,302,301,294,319,-15820,-168,4792,-317,88,82
10203.03,303,301,297,321,-15820,-168,4792,-317,88,82
10203.03,301,300,296,319,-15820,-168,4792,-317,88,82
10214.497,301,299,298,320,-15820,-168,4792,-317,88,82
10214.497,302,299,297,319,-15820,-168,4792,-317,88,82
10222.414999999999,302,300,298,319,-15844,16,4784,44,-130,7
10225.386,302,300,298,319,-15844,16,4784,44,-130,7
10236.373,302,300,297,320,-15844,16,4784,44,-130,7
10239.888,301,300,296,319,-15844,16,4784,44,-130,7
10247.14,301,300,296,319,-15844,16,4784,44,-130,7
10247.14,301,300,294,319,-15844,16,4784,44,-130,7
10254.757,302,301,295,319,-15844,16,4784,44,-130,7
10258.222,302,300,293,317,-15844,16,4784,44,-130,7
10263.011,302,300,295,319,-15888,-44,4856,109,-190,-10
10269.564,303,301,296,319,-15888,-44,4856,109,-190,-10
10280.557,302,301,295,317,-15888,-44,4856,109,-190,-10
10282.764000000001,303,301,296,317,-15888,-44,4856,109,-190,-10
10290.900000000001,303,302,298,318,-15888,-44,4856,109,-190,-10
10297.747,303,302,298,318,-15888,-44,4856,109,-190,-10
10299.443,304,302,299,318,-15888,-44,4856,109,-190,-10
10302.958999999999,303,302,298,317,-15864,-32,4972,262,74,-25
10313.627999999999,304,302,297,318,-15864,-32,4972,262,74,-25
10313.627999999999,303,303,297,318,-15864,-32,4972,262,74,-25
10324.979000000001,304,303,295,318,-15864,-32,4972,262,74,-25
10324.979000000001,304,304,297,318,-15864,-32,4972,262,74,-25
10332.849,304,303,296,317,-15864,-32,4972,262,74,-25
10340.098,304,303,297,318,-15864,-32,4972,262,74,-25
10347.293,304,303,294,316,-15828,8,4748,-28,-19,-200
10347.293,304,303,295,317,-15828,8,4748,-28,-19,-200
10357.772,304,303,293,318,-15828,8,4748,-28,-19,-200
10357.772,304,303,290,317,-15828,8,4748,-28,-19,-200
10365.778,305,304,288,318,-15828,8,4748,-28,-19,-200
10369.392,304,304,286,317,-15828,8,4748,-28,-19,-200
10377.577000000001,304,304,284,317,-15828,8,4748,-28,-19,-200
10380.514,304,304,283,318,-15828,8,4748,-28,-19,-200
10391.657000000001,304,304,282,318,-15832,-212,4784,-427,2,0
10393.110999999999,304,304,280,316,-15832,-212,4784,-427,2,0
10401.131,304,304,282,318,-15832,-212,4784,-427,2,0
10402.851999999999,305,304,281,317,-15832,-212,4784,-427,2,0
10409.779999999999,305,304,281,317,-15832,-212,4784,-427,2,0
10414.767,304,304,279,315,-15832,-212,4784,-427,2,0
10424.835,305,304,279,318,-15832,-212,4784,-427,2,0
10426.052,305,304,278,318,-15804,-176,4544,-286,-102,85
10435.877,306,303,275,317,-15804,-176,4544,-286,-102,85
10440.193000000001,306,304,275,318,-15804,-176,4544,-286,-102,85
10440.193000000001,305,303,278,318,-15804,-176,4544,-286,-102,85
10447.812,306,303,280,317,-15804,-176,4544,-286,-102,85
10455.724,304,303,281,317,-15804,-176,4544,-286,-102,85
10458.333,305,303,284,317,-15804,-176,4544,-286,-102,85
10469.483,304,302,286,316,-15840,36,4700,-8,-203,-49
10469.483,305,303,291,317,-15840,36,4700,-8,-203,-49
10480.692,305,302,293,318,-15840,36,4700,-8,-203,-49
10483.875,304,302,291,316,-15840,36,4700,-8,-203,-49
10483.875,304,302,291,316,-15840,36,4700,-8,-203,-49
10492.609,304,302,290,316,-15840,36,4700,-8,-203,-49
10500.551,304,302,289,316,-15840,36,4700,-8,-203,-49
10511.179,304,302,289,316,-15876,52,4492,25,-168,-77
10514.44,304,302,291,315,-15876,52,4492,25,-168,-77
10514.44,304,302,292,316,-15876,52,4492,25,-168,-77
10525.198,306,302,294,316,-15876,52,4492,25,-168,-77
10529.203000000001,305,302,295,316,-15876,52,4492,25,-168,-77
10529.203000000001,304,301,294,315,-15876,52,4492,25,-168,-77
10542.949999999999,304,302,292,317,-15876,52,4492,25,-168,-77
10547.402999999998,304,302,288,315,-15860,124,4628,-19,-347,-204
10552.735999999999,304,303,286,318,-15860,124,4628,-19,-347,-204
10560.376,304,303,282,317,-15860,124,4628,-19,-347,-204
10562.961,304,302,280,317,-15860,124,4628,-19,-347,-204
10569.197,304,303,277,317,-15860,124,4628,-19,-347,-204
10569.197,304,303,279,317,-15860,124,4628,-19,-347,-204
10580.292,304,303,278,318,-15860,124,4628,-19,-347,-204
10586.418,303,303,277,317,-15824,-192,4656,-31,-586,-270
10591.174,304,304,277,318,-15824,-192,4656,-31,-586,-270
10598.613000000001,304,304,277,319,-15824,-192,4656,-31,-586,-270
10602.771999999999,304,304,277,318,-15824,-192,4656,-31,-586,-270
10610.868,303,303,276,317,-15824,-192,4656,-31,-586,-270
10614.279,303,304,278,319,-15824,-192,4656,-31,-586,-270
10624.223,302,304,279,320,-15824,-192,4656,-31,-586,-270
10626.603,302,303,281,320,-15816,-388,5080,-208,-468,63
10636.2,302,303,282,320,-15816,-388,5080,-208,-468,63
10640.499,301,303,282,320,-15816,-388,5080,-208,-468,63
10647.028,302,303,284,320,-15816,-388,5080,-208,-468,63
10651.598,302,303,285,320,-15816,-388,5080,-208,-468,63
10658.262999999999,303,303,288,321,-15816,-388,5080,-208,-468,63
10664.036,303,303,291,320,-15816,-388,5080,-208,-468,63
10669.124,303,303,291,320,-15728,124,5500,132,-297,209
10672.003999999999,304,303,294,320,-15728,124,5500,132,-297,209
10681.688,304,303,295,320,-15728,124,5500,132,-297,209
10689.884,306,304,298,321,-15728,124,5500,132,-297,209
10692.483,307,303,300,320,-15728,124,5500,132,-297,209
10692.483,307,304,302,321,-15728,124,5500,132,-297,209
10702.838,306,303,300,319,-15728,124,5500,132,-297,209
10710.673,306,304,303,319,-15668,-224,5140,-197,-153,205
10714.196,305,304,306,319,-15668,-224,5140,-197,-153,205
10721.583,306,304,306,319,-15668,-224,5140,-197,-153,205
10725.493,304,304,306,319,-15668,-224,5140,-197,-153,205
10736.162,305,304,308,319,-15668,-224,5140,-197,-153,205
10740.687,305,304,308,319,-15668,-224,5140,-197,-153,205
10747.117,304,303,306,317,-15828,-20,5508,-261,217,247
10747.117,304,304,308,317,-15828,-20,5508,-261,217,247
10758.369999999999,304,304,307,316,-15828,-20,5508,-261,217,247
10758.369999999999,304,304,310,317,-15828,-20,5508,-261,217,247
10769.610999999999,303,304,307,315,-15828,-20,5508,-261,217,247
10774.926000000001,304,304,308,316,-15828,-20,5508,-261,217,247
10780.060000000001,305,303,309,316,-15828,-20,5508,-261,217,247
10780.060000000001,304,303,309,315,-15720,144,4908,43,312,146
10791.948,304,303,312,315,-15720,144,4908,43,312,146
10800.714,304,303,312,315,-15720,144,4908,43,312,146
10802.722,303,303,311,315,-15720,144,4908,43,312,146
10810.826000000001,303,302,308,314,-15720,144,4908,43,312,146
10817.588,303,302,310,314,-15720,144,4908,43,312,146
10819.189,303,302,310,314,-15720,144,4908,43,312,146
10824.557,302,302,309,311,-15840,-60,4764,-386,284,74
10834.068000000001,302,302,310,312,-15840,-60,4764,-386,284,74
10838.561,301,302,312,312,-15840,-60,4764,-386,284,74
10840.823,300,302,312,311,-15840,-60,4764,-386,284,74
10847.107,300,301,311,310,-15840,-60,4764,-386,284,74
10852.415,300,301,314,309,-15840,-60,4764,-386,284,74
10858.128,299,302,316,310,-15840,-60,4764,-386,284,74
10864.163,300,302,319,309,-15840,-60,4764,-386,284,74
10869.303,299,301,321,308,-15792,-112,4616,105,266,17
10872.678,299,301,325,308,-15792,-112,4616,105,266,17
10881.126999999999,299,302,328,309,-15792,-112,4616,105,266,17
10881.126999999999,299,302,328,307,-15792,-112,4616,105,266,17
10895.598,299,302,329,306,-15792,-112,4616,105,266,17
10899.794,299,302,329,308,-15792,-112,4616,105,266,17
10907.966,300,302,329,308,-15792,-112,4616,105,266,17
10911.614,300,303,327,308,-15768,48,4688,205,293,-177
10915.810000000001,300,303,324,307,-15768,48,4688,205,293,-177
10924.519,300,303,323,307,-15768,48,4688,205,293,-177
10925.230000000001,300,304,323,307,-15768,48,4688,205,293,-177
10929.976,301,304,321,308,-15768,48,4688,205,293,-177
10941.041000000001,302,304,320,307,-15768,48,4688,205,293,-177
10942.244,303,305,317,308,-15768,48,4688,205,293,-177
10947.371000000001,304,305,312,308,-15808,-136,4800,-68,392,-18
10954.26,305,305,309,309,-15808,-136,4800,-68,392,-18
10958.399,305,306,308,309,-15808,-136,4800,-68,392,-18
10969.572,305,307,303,309,-15808,-136,4800,-68,392,-18
10970.65,305,307,303,310,-15808,-136,4800,-68,392,-18
10980.571,305,307,301,310,-15808,-136,4800,-68,392,-18
10983.444000000001,306,308,301,311,-15808,-136,4800,-68,392,-18
10983.444000000001,306,308,301,311,-15852,212,4888,3,-36,139
10992.194,307,308,300,312,-15852,212,4888,3,-36,139
11000.151,306,309,301,312,-15852,212,4888,3,-36,139
11002.973,307,308,299,312,-15852,212,4888,3,-36,139
11014.611,307,308,299,311,-15852,212,4888,3,-36,139
11014.611,307,308,299,313,-15852,212,4888,3,-36,139
11023.244,307,307,299,312,-15852,212,4888,3,-36,139
11025.560000000001,307,307,298,312,-15800,84,4972,19,63,73
11035.047,308,306,299,312,-15800,84,4972,19,63,73
11035.788,307,306,299,313,-15800,84,4972,19,63,73
11041.104000000001,307,306,298,311,-15800,84,4972,19,63,73
11046.86,307,306,299,311,-15800,84,4972,19,63,73
11052.853000000001,306,306,300,312,-15800,84,4972,19,63,73
11057.961000000001,305,306,299,312,-15800,84,4972,19,63,73
11060.931,305,305,300,312,-15800,84,4972,19,63,73
11070.845000000001,304,305,299,310,-15800,-72,4920,188,79,33
11070.845000000001,305,304,302,311,-15800,-72,4920,188,79,33
11078.845,305,304,304,311,-15800,-72,4920,188,79,33
11081.4,304,303,303,310,-15800,-72,4920,188,79,33
11091.4,304,303,303,310,-15800,-72,4920,188,79,33
11091.4,304,304,306,311,-15800,-72,4920,188,79,33
11097.764,304,304,310,312,-15800,-72,4920,188,79,33
11103.298999999999,304,304,312,311,-15824,348,4572,372,-104,-121
11110.399,304,303,312,311,-15824,348,4572,372,-104,-121
11114.269,303,303,312,311,-15824,348,4572,372,-104,-121
11125.061,304,303,312,312,-15824,348,4572,372,-104,-121
11133.126,305,303,308,311,-15824,348,4572,372,-104,-121
11136.129,304,303,307,312,-15824,348,4572,372,-104,-121
11145.969,304,304,307,312,-15824,348,4572,372,-104,-121
11148.78,304,304,307,312,-15868,60,4928,-63,-231,-271
11148.78,304,303,308,312,-15868,60,4928,-63,-231,-271
11158.359,305,303,308,312,-15868,60,4928,-63,-231,-271
11164.716999999999,305,303,305,312,-15868,60,4928,-63,-231,-271
11169.376,305,302,302,311,-15868,60,4928,-63,-231,-271
11175.485999999999,305,303,301,313,-15868,60,4928,-63,-231,-271
11180.626999999999,305,304,298,312,-15868,60,4928,-63,-231,-271
11184.151,305,304,297,314,-15816,-232,5000,63,-229,-227
11191.992,305,305,295,313,-15816,-232,5000,63,-229,-227
11203.019,305,305,293,314,-15816,-232,5000,63,-229,-227
11203.019,306,305,292,313,-15816,-232,5000,63,-229,-227
11214.127,307,305,293,313,-15816,-232,5000,63,-229,-227
11214.127,308,305,294,314,-15816,-232,5000,63,-229,-227
11224.885,307,305,293,313,-15816,-232,5000,63,-229,-227
11229.31,307,306,295,315,-15784,-300,5236,-262,-191,-119
11238.024,308,306,294,314,-15784,-300,5236,-262,-191,-119
11241.529999999999,308,306,293,315,-15784,-300,5236,-262,-191,-119
11247.797,308,305,289,313,-15784,-300,5236,-262,-191,-119
11256.619999999999,307,305,290,315,-15784,-300,5236,-262,-191,-119
11258.616999999998,308,305,289,315,-15784,-300,5236,-262,-191,-119
11267.89,307,305,289,315,-15784,-300,5236,-262,-191,-119
11269.640000000001,307,305,288,315,-15728,-176,5120,-85,-42,80
11280.932999999999,308,305,289,315,-15728,-176,5120,-85,-42,80
11280.932999999999,307,305,289,315,-15728,-176,5120,-85,-42,80
11286.8,308,304,288,313,-15728,-176,5120,-85,-42,80
11291.717999999999,308,304,288,314,-15728,-176,5120,-85,-42,80
11299.556,308,304,288,314,-15728,-176,5120,-85,-42,80
11302.761,308,303,286,314,-15728,-176,5120,-85,-42,80
11313.759,307,304,288,315,-15732,-132,4972,318,100,31
11313.759,307,303,288,315,-15732,-132,4972,318,100,31
11324.547,307,303,288,314,-15732,-132,4972,318,100,31
11324.547,307,302,285,312,-15732,-132,4972,318,100,31
11337.48,308,303,288,313,-15732,-132,4972,318,100,31
11342.117999999999,307,303,287,313,-15732,-132,4972,318,100,31
11345.245,307,302,287,312,-15732,-132,4972,318,100,31
11347.485,307,302,286,311,-15712,-80,4948,181,158,10
11356.347,307,302,289,314,-15712,-80,4948,181,158,10
11359.616,308,302,289,314,-15712,-80,4948,181,158,10
11367.479,307,302,288,312,-15712,-80,4948,181,158,10
11375.484,307,301,289,312,-15712,-80,4948,181,158,10
11378.833,307,301,289,312,-15712,-80,4948,181,158,10
11385.839,307,301,290,312,-15712,-80,4948,181,158,10
11391.588,306,301,291,312,-15804,140,4796,-117,58,-107
11391.588,306,301,293,312,-15804,140,4796,-117,58,-107
11402.728,306,301,293,312,-15804,140,4796,-117,58,-107
11402.728,305,301,294,311,-15804,140,4796,-117,58,-107
11413.831,305,300,295,311,-15804,140,4796,-117,58,-107
11417.786,305,300,293,312,-15804,140,4796,-117,58,-107
11425.331,306,300,293,311,-15804,140,4796,-117,58,-107
11430.008000000002,305,300,293,312,-15824,-16,4708,-288,-63,-1
11435.800000000001,305,300,291,311,-15824,-16,4708,-288,-63,-1
11441.514,305,301,291,311,-15824,-16,4708,-288,-63,-1
11447.084,305,302,291,310,-15824,-16,4708,-288,-63,-1
11450.125,305,302,292,311,-15824,-16,4708,-288,-63,-1
11458.831999999999,305,301,290,310,-15824,-16,4708,-288,-63,-1
11458.831999999999,306,302,291,312,-15824,-16,4708,-288,-63,-1
11469.702,306,302,291,312,-15796,-112,4788,-206,-130,100
11476.065,307,302,293,312,-15796,-112,4788,-206,-130,100
11480.591,307,302,291,311,-15796,-112,4788,-206,-130,100
11486.983,307,303,293,312,-15796,-112,4788,-206,-130,100
11492.497,308,303,294,313,-15796,-112,4788,-206,-130,100
11500.956,308,303,292,312,-15796,-112,4788,-206,-130,100
11503.809000000001,308,303,293,313,-15796,-112,4788,-206,-130,100
11514.028,308,303,294,313,-15792,-144,4824,238,-148,-75
11514.028,308,303,294,312,-15792,-144,4824,238,-148,-75
11525.347,308,303,295,313,-15792,-144,4824,238,-148,-75
11527.990000000002,308,303,294,312,-15792,-144,4824,238,-148,-75
11536.608,308,302,293,311,-15792,-144,4824,238,-148,-75
11541.443,308,303,294,312,-15792,-144,4824,238,-148,-75
11547.055999999999,307,304,295,312,-15816,100,4756,417,-130,71
11547.055999999999,308,304,294,312,-15816,100,4756,417,-130,71
11558.18,308,304,295,313,-15816,100,4756,417,-130,71
11567.145999999999,307,305,293,312,-15816,100,4756,417,-130,71
11569.561,307,305,295,313,-15816,100,4756,417,-130,71
11573.884,307,306,296,314,-15816,100,4756,417,-130,71
11580.594,306,307,296,313,-15816,100,4756,417,-130,71
11585.601999999999,306,307,296,313,-15816,100,4756,417,-130,71
11591.335000000001,306,308,296,314,-15736,196,4944,256,-281,67
11593.705999999998,306,308,296,312,-15736,196,4944,256,-281,67
11603.217,306,309,296,312,-15736,196,4944,256,-281,67
11612.133,305,309,297,313,-15736,196,4944,256,-281,67
11614.204000000002,304,309,295,312,-15736,196,4944,256,-281,67
11617.967999999999,305,310,296,312,-15736,196,4944,256,-281,67
11624.483,304,310,297,311,-15736,196,4944,256,-281,67
11631.021999999999,305,310,298,311,-15848,64,5144,-305,-128,163
11636.061,305,310,299,313,-15848,64,5144,-305,-128,163
11642.353,305,309,299,311,-15848,64,5144,-305,-128,163
11647.349,304,309,299,311,-15848,64,5144,-305,-128,163
11651.095,304,309,300,312,-15848,64,5144,-305,-128,163
11659.374,304,308,299,311,-15848,64,5144,-305,-128,163
11669.914999999999,304,308,299,312,-15848,64,5144,-305,-128,163
11669.914999999999,304,307,300,312,-15652,-176,4724,-469,-328,439
11680.733,303,306,300,312,-15652,-176,4724,-469,-328,439
11680.733,303,306,300,311,-15652,-176,4724,-469,-328,439
11688.421999999999,303,306,300,311,-15652,-176,4724,-469,-328,439
11691.398,302,305,300,311,-15652,-176,4724,-469,-328,439
11702.832,302,305,300,311,-15652,-176,4724,-469,-328,439
11710.892,301,304,299,310,-15832,-20,4368,-690,-577,903
11713.877999999999,299,303,299,310,-15832,-20,4368,-690,-577,903
11723.076000000001,300,303,299,310,-15832,-20,4368,-690,-577,903
11725.118999999999,298,302,298,310,-15832,-20,4368,-690,-577,903
11729.236,298,302,298,309,-15832,-20,4368,-690,-577,903
11737.029,297,303,297,310,-15832,-20,4368,-690,-577,903
11741.546,297,302,296,310,-15832,-20,4368,-690,-577,903
11747.688999999998,297,302,295,310,-15664,-884,5232,-1573,-407,2116
11758.296,297,301,295,311,-15664,-884,5232,-1573,-407,2116
11761.665,298,299,294,310,-15664,-884,5232,-1573,-407,2116
11770.946,298,297,293,310,-15664,-884,5232,-1573,-407,2116
11770.946,298,296,293,310,-15664,-884,5232,-1573,-407,2116
11780.744,299,295,294,309,-15664,-884,5232,-1573,-407,2116
11786.621000000001,300,294,294,308,-15664,-884,5232,-1573,-407,2116
11791.496000000001,300,293,294,308,-15668,-1884,2036,-1213,-1431,4293
11798.531,300,292,295,309,-15668,-1884,2036,-1213,-1431,4293
11803.086000000001,300,290,296,309,-15668,-1884,2036,-1213,-1431,4293
11813.779,299,289,297,309,-15668,-1884,2036,-1213,-1431,4293
11819.395999999999,298,287,299,310,-15668,-1884,2036,-1213,-1431,4293
11824.42,296,285,300,310,-15668,-1884,2036,-1213,-1431,4293
11831.757,294,283,303,311,-14628,-3616,944,-2068,-3780,6138
11842.155999999999,293,279,308,312,-14628,-3616,944,-2068,-3780,6138
11842.927,290,276,311,313,-14628,-3616,944,-2068,-3780,6138
11847.592999999999,288,273,315,314,-14628,-3616,944,-2068,-3780,6138
11862.3,285,270,319,316,-14628,-3616,944,-2068,-3780,6138
11863.561000000002,283,268,323,317,-14628,-3616,944,-2068,-3780,6138
11869.086,282,265,327,319,-14872,-2588,2452,422,-6769,7737
11876.62,280,262,333,321,-14872,-2588,2452,422,-6769,7737
11881.123000000001,278,260,337,323,-14872,-2588,2452,422,-6769,7737
11890.93,276,258,342,326,-14872,-2588,2452,422,-6769,7737
11899.330000000002,274,256,349,330,-14872,-2588,2452,422,-6769,7737
11903.833999999999,274,253,361,334,-14872,-2588,2452,422,-6769,7737
11911.149,273,251,375,337,-14120,-1512,516,3414,-9610,9594
11915.661,271,249,394,340,-14120,-1512,516,3414,-9610,9594
11923.685000000001,271,248,408,340,-14120,-1512,516,3414,-9610,9594
11926.157,268,246,429,336,-14120,-1512,516,3414,-9610,9594
11936.034,267,245,449,331,-14120,-1512,516,3414,-9610,9594
11936.034,264,246,467,327,-14120,-1512,516,3414,-9610,9594
11947.224,261,247,486,322,-14120,-1512,516,3414,-9610,9594
11950.383,258,247,509,315,-12588,0,3268,4604,-14954,12617
11959.268,259,247,530,310,-12588,0,3268,4604,-14954,12617
11959.268,260,246,549,305,-12588,0,3268,4604,-14954,12617
11969.45,264,245,564,303,-12588,0,3268,4604,-14954,12617
11977.535,266,246,573,302,-12588,0,3268,4604,-14954,12617
11980.161,268,246,579,301,-12588,0,3268,4604,-14954,12617
11991.236,270,250,581,301,-10424,2268,3576,4248,-17036,15113
11994.445000000002,270,254,578,299,-10424,2268,3576,4248,-17036,15113
12003.847,269,258,572,295,-10424,2268,3576,4248,-17036,15113
12003.847,265,264,561,291,-10424,2268,3576,4248,-17036,15113
12014.121,262,269,548,288,-10424,2268,3576,4248,-17036,15113
12020.193000000001,256,274,529,284,-10424,2268,3576,4248,-17036,15113
12024.925,251,280,512,282,-10424,2268,3576,4248,-17036,15113
12036.035,248,286,490,279,-7628,5720,7052,596,-21894,16652
12042.407000000001,244,292,466,278,-7628,5720,7052,596,-21894,16652
12046.856,241,295,450,280,-7628,5720,7052,596,-21894,16652
12052.566,234,301,428,288,-7628,5720,7052,596,-21894,16652
12057.998,228,304,411,296,-7628,5720,7052,596,-21894,16652
12064.32,221,307,395,306,-7628,5720,7052,596,-21894,16652
12069.303,213,309,379,317,-5876,9104,11256,-2238,-21259,15205
12080.479000000001,201,314,361,330,-5876,9104,11256,-2238,-21259,15205
12085.56,191,316,347,337,-5876,9104,11256,-2238,-21259,15205
12091.645,184,319,333,346,-5876,9104,11256,-2238,-21259,15205
12098.107,181,325,319,355,-5876,9104,11256,-2238,-21259,15205
12102.753,176,326,306,363,-5876,9104,11256,-2238,-21259,15205
12113.989,175,325,297,367,-4168,8412,14088,-6202,-18523,11811
12118.258000000002,176,323,287,371,-4168,8412,14088,-6202,-18523,11811
12124.978000000001,179,321,279,372,-4168,8412,14088,-6202,-18523,11811
12136.339,182,318,270,375,-4168,8412,14088,-6202,-18523,11811
12136.339,186,317,262,377,-4168,8412,14088,-6202,-18523,11811
12147.726999999999,190,317,257,379,-4168,8412,14088,-6202,-18523,11811
12147.726999999999,193,317,251,380,-2532,8880,13492,-8115,-19365,10578
12158.467999999999,197,317,245,379,-2532,8880,13492,-8115,-19365,10578
12169.545,200,317,240,377,-2532,8880,13492,-8115,-19365,10578
12169.545,204,317,235,376,-2532,8880,13492,-8115,-19365,10578
12180.926,207,316,231,374,-2532,8880,13492,-8115,-19365,10578
12183.699,210,311,224,369,-2532,8880,13492,-8115,-19365,10578
12192.646,213,302,217,364,-1780,8732,17796,-11334,-15568,6561
12200.984,214,293,212,358,-1780,8732,17796,-11334,-15568,6561
12203.404,214,287,204,352,-1780,8732,17796,-11334,-15568,6561
12213.511,215,277,193,343,-1780,8732,17796,-11334,-15568,6561
12223.307,217,256,181,337,-1780,8732,17796,-11334,-15568,6561
12225.896999999999,222,246,170,328,-1780,8732,17796,-11334,-15568,6561
12234.304,226,244,162,321,-1464,7620,17428,-9886,-13228,4676
12236.636,230,256,158,314,-1464,7620,17428,-9886,-13228,4676
12246.518999999998,230,270,155,311,-1464,7620,17428,-9886,-13228,4676
12246.518999999998,231,297,153,309,-1464,7620,17428,-9886,-13228,4676
12258.347,234,324,148,309,-1464,7620,17428,-9886,-13228,4676
12267.081,238,329,138,308,-1464,7620,17428,-9886,-13228,4676
12269.531,239,327,133,306,-1476,6092,18676,-7417,-10491,1463
12274.784,242,343,144,306,-1476,6092,18676,-7417,-10491,1463
12280.679,242,356,153,305,-1476,6092,18676,-7417,-10491,1463
12291.765,244,376,168,305,-1476,6092,18676,-7417,-10491,1463
12300.800000000001,244,388,180,303,-1476,6092,18676,-7417,-10491,1463
12303.283000000001,243,402,199,301,-1476,6092,18676,-7417,-10491,1463
12312.177,241,415,218,297,-828,8516,19696,-1764,-9201,758
12315.014,238,427,240,295,-828,8516,19696,-1764,-9201,758
12324.973999999998,234,435,262,294,-828,8516,19696,-1764,-9201,758
12324.973999999998,230,443,287,290,-828,8516,19696,-1764,-9201,758
12336.016000000001,226,450,310,289,-828,8516,19696,-1764,-9201,758
12339.359,224,454,334,286,-828,8516,19696,-1764,-9201,758
12347.49,222,457,360,283,-828,8516,19696,-1764,-9201,758
12350.896999999999,218,457,391,281,1468,11444,32511,5551,-2766,1042
12358.818,214,457,430,279,1468,11444,32511,5551,-2766,1042
12365.137,210,455,461,277,1468,11444,32511,5551,-2766,1042
12370.528,207,456,490,275,1468,11444,32511,5551,-2766,1042
12376.028,206,458,508,274,1468,11444,32511,5551,-2766,1042
12381.255,208,460,517,271,1468,11444,32511,5551,-2766,1042
12387.936,211,463,515,271,-984,-1816,11672,1689,312,1977
12391.787,217,464,506,270,-984,-1816,11672,1689,312,1977
12402.682999999999,225,465,497,270,-984,-1816,11672,1689,312,1977
12410.771999999999,234,465,490,270,-984,-1816,11672,1689,312,1977
12414.389,243,463,483,271,-984,-1816,11672,1689,312,1977
12422.890000000001,253,459,472,271,-984,-1816,11672,1689,312,1977
12425.345,262,456,459,269,-984,-1816,11672,1689,312,1977
12429.614000000001,273,454,447,268,-1168,9368,18716,-2547,-1393,840
12437.223,282,453,438,268,-1168,9368,18716,-2547,-1393,840
12447.177,292,451,429,267,-1168,9368,18716,-2547,-1393,840
12452.66,303,448,420,267,-1168,9368,18716,-2547,-1393,840
12458.803,312,445,412,268,-1168,9368,18716,-2547,-1393,840
12461.506,320,440,401,268,-1168,9368,18716,-2547,-1393,840
12469.414999999999,329,434,388,270,-1016,6372,14436,537,208,534
12474.529999999999,338,429,371,271,-1016,6372,14436,537,208,534
12480.491,345,425,358,271,-1016,6372,14436,537,208,534
12486.142,352,419,346,272,-1016,6372,14436,537,208,534
12491.390000000001,359,413,337,273,-1016,6372,14436,537,208,534
12494.573,367,407,325,274,-1016,6372,14436,537,208,534
12503.331,372,400,314,274,-1016,6372,14436,537,208,534
12513.868999999999,377,394,304,275,-592,5840,15260,4893,-1317,-293
12514.322999999999,382,387,296,276,-592,5840,15260,4893,-1317,-293
12525.017,387,382,287,277,-592,5840,15260,4893,-1317,-293
12525.017,390,375,280,278,-592,5840,15260,4893,-1317,-293
12537.29,393,370,272,280,-592,5840,15260,4893,-1317,-293
12537.29,394,365,263,282,-592,5840,15260,4893,-1317,-293
12547.149,394,360,255,284,-592,5840,15260,4893,-1317,-293
12552.752999999999,395,355,248,286,-604,5628,14684,1163,-88,-277
12557.966,397,350,238,288,-604,5628,14684,1163,-88,-277
12564.059000000001,398,345,232,289,-604,5628,14684,1163,-88,-277
12569.313,399,340,226,291,-604,5628,14684,1163,-88,-277
12576.171,400,336,219,292,-604,5628,14684,1163,-88,-277
12580.828,401,333,212,292,-604,5628,14684,1163,-88,-277
12585.406,402,329,207,294,-604,5628,14684,1163,-88,-277
12591.832999999999,400,326,202,295,-1064,5792,15048,-1448,548,-25
12602.710000000001,400,323,196,297,-1064,5792,15048,-1448,548,-25
12602.710000000001,398,319,190,297,-1064,5792,15048,-1448,548,-25
12614.264000000001,397,314,188,300,-1064,5792,15048,-1448,548,-25
12614.264000000001,396,311,183,301,-1064,5792,15048,-1448,548,-25
12625.163,394,307,180,303,-1064,5792,15048,-1448,548,-25
12625.163,393,304,178,304,-752,5520,14820,-1825,560,38
12636.273,390,301,177,305,-752,5520,14820,-1825,560,38
12643.937,389,299,175,306,-752,5520,14820,-1825,560,38
12647.159,388,295,174,307,-752,5520,14820,-1825,560,38
12650.812,387,293,175,309,-752,5520,14820,-1825,560,38
12658.587000000001,385,290,175,310,-752,5520,14820,-1825,560,38
12669.340999999999,384,288,174,310,-752,5520,14820,-1825,560,38
12669.759,382,285,175,311,-952,5256,15044,117,152,-152
12675.696,381,283,176,312,-952,5256,15044,117,152,-152
12680.239,379,280,176,313,-952,5256,15044,117,152,-152
12687.122000000001,378,279,177,313,-952,5256,15044,117,152,-152
12692.021999999999,376,277,179,314,-952,5256,15044,117,152,-152
12696.051000000001,375,275,181,315,-952,5256,15044,117,152,-152
12703.757,373,273,183,316,-952,5256,15044,117,152,-152
12713.530999999999,372,271,185,316,-756,6064,15404,1760,-257,-320
12715.858,370,269,187,317,-756,6064,15404,1760,-257,-320
12725.073999999999,369,268,189,318,-756,6064,15404,1760,-257,-320
12727.797,367,266,192,317,-756,6064,15404,1760,-257,-320
12736.187,366,265,196,319,-756,6064,15404,1760,-257,-320
12740.083999999999,364,264,198,319,-756,6064,15404,1760,-257,-320
12747.196,364,263,200,319,-756,6064,15404,1760,-257,-320
12752.88,363,263,203,320,-920,5548,15084,-31,-31,-70
12757.926,363,262,204,320,-920,5548,15084,-31,-31,-70
12761.137,361,262,205,320,-920,5548,15084,-31,-31,-70
12770.021,360,262,208,321,-920,5548,15084,-31,-31,-70
12770.021,360,261,209,322,-920,5548,15084,-31,-31,-70
12780.834,359,261,211,322,-920,5548,15084,-31,-31,-70
12780.834,359,261,213,322,-920,5548,15084,-31,-31,-70
12791.992,357,261,215,322,-1028,5388,15112,-767,292,38
12800.792,356,262,218,322,-1028,5388,15112,-767,292,38
12803.314,354,262,219,322,-1028,5388,15112,-767,292,38
12809.926000000001,353,262,221,323,-1028,5388,15112,-767,292,38
12814.332999999999,352,263,222,323,-1028,5388,15112,-767,292,38
12818.987,351,262,222,323,-1028,5388,15112,-767,292,38
12826.198,351,262,223,323,-1028,5388,15112,-767,292,38
12834.198,349,263,224,324,-844,5804,14844,-76,67,-22
12836.907,350,262,225,324,-844,5804,14844,-76,67,-22
12843.774,349,263,225,324,-844,5804,14844,-76,67,-22
12847.294,348,263,226,323,-844,5804,14844,-76,67,-22
12856.457,348,263,228,324,-844,5804,14844,-76,67,-22
12858.425000000001,348,263,229,323,-844,5804,14844,-76,67,-22
12869.036,347,264,229,323,-844,5804,14844,-76,67,-22
12869.036,346,263,231,323,-960,5784,15220,617,24,-140
12877.504,347,262,231,324,-960,5784,15220,617,24,-140
12882.917000000001,345,263,232,324,-960,5784,15220,617,24,-140
12888.373,344,263,234,323,-960,5784,15220,617,24,-140
12891.823,344,264,235,323,-960,5784,15220,617,24,-140
12896.677,343,264,235,323,-960,5784,15220,617,24,-140
12903.242,343,264,236,322,-960,5784,15220,617,24,-140
12913.83,344,263,237,323,-784,5740,15208,292,-185,-127
12913.83,344,263,238,323,-784,5740,15208,292,-185,-127
12922.074,344,263,239,322,-784,5740,15208,292,-185,-127
12924.825,344,263,240,321,-784,5740,15208,292,-185,-127
12936.054,343,263,242,322,-784,5740,15208,292,-185,-127
12943.699,343,263,244,322,-784,5740,15208,292,-185,-127
12947.32,343,263,245,322,-784,5740,15208,292,-185,-127
12955.37,342,263,246,321,-1224,5764,14976,-110,414,142
12958.818000000001,342,264,247,321,-1224,5764,14976,-110,414,142
12961.432,341,264,249,321,-1224,5764,14976,-110,414,142
12969.789999999999,342,264,250,321,-1224,5764,14976,-110,414,142
12969.789999999999,340,264,252,321,-1224,5764,14976,-110,414,142
12980.681,341,264,253,320,-1224,5764,14976,-110,414,142
12986.462,340,264,255,321,-1224,5764,14976,-110,414,142
12991.386999999999,340,263,256,322,-864,5156,15220,-642,139,-2
12999.029999999999,341,263,258,321,-864,5156,15220,-642,139,-2
13002.66,339,263,259,320,-864,5156,15220,-642,139,-2
13007.496,340,264,262,320,-864,5156,15220,-642,139,-2
13014.911,339,263,264,320,-864,5156,15220,-642,139,-2
13025.448,337,264,264,320,-864,5156,15220,-642,139,-2
13025.448,337,264,266,319,-864,5156,15220,-642,139,-2
13031.665,336,265,267,320,-840,5752,15016,61,-39,7
13039.675000000001,336,265,268,319,-840,5752,15016,61,-39,7
13044.416,336,266,268,319,-840,5752,15016,61,-39,7
13047.077,336,266,269,319,-840,5752,15016,61,-39,7
13052.313,336,265,269,320,-840,5752,15016,61,-39,7
13058.484999999999,335,266,269,319,-840,5752,15016,61,-39,7
13064.407,333,267,271,318,-840,5752,15016,61,-39,7
13069.362,333,268,272,318,-840,5752,15016,61,-39,7
13072.031,332,268,273,319,-1004,5704,15032,179,-21,-135
13081.533,331,268,273,318,-1004,5704,15032,179,-21,-135
13091.352,331,268,273,318,-1004,5704,15032,179,-21,-135
13091.777,330,269,274,318,-1004,5704,15032,179,-21,-135
13097.504,330,269,275,318,-1004,5704,15032,179,-21,-135
13102.267,328,270,275,317,-1004,5704,15032,179,-21,-135
13110.232999999998,328,271,277,317,-1004,5704,15032,179,-21,-135
13114.006,328,271,279,317,-892,5544,15084,-201,44,61
13121.732,328,273,279,317,-892,5544,15084,-201,44,61
13125.166,328,272,280,316,-892,5544,15084,-201,44,61
13129.952,327,273,281,317,-892,5544,15084,-201,44,61
13137.117999999999,326,273,281,317,-892,5544,15084,-201,44,61
13144.714,325,274,282,316,-892,5544,15084,-201,44,61
13150.235,324,275,281,316,-892,5544,15084,-201,44,61
13150.235,323,277,282,317,-884,5688,15040,-96,14,-30
13159.048,322,277,283,316,-884,5688,15040,-96,14,-30
13167.714,321,278,282,316,-884,5688,15040,-96,14,-30
13170.264,321,278,283,315,-884,5688,15040,-96,14,-30
13170.264,321,279,284,316,-884,5688,15040,-96,14,-30
13180.083,320,280,283,314,-884,5688,15040,-96,14,-30
13187.075,319,281,285,314,-884,5688,15040,-96,14,-30
13191.729000000001,319,282,286,314,-960,5628,15104,-291,107,-54
13199.433,319,282,286,314,-960,5628,15104,-291,107,-54
13202.878999999999,318,283,287,314,-960,5628,15104,-291,107,-54
13213.554,317,284,287,314,-960,5628,15104,-291,107,-54
13214.382000000001,316,285,287,314,-960,5628,15104,-291,107,-54
13225.155,316,284,286,313,-960,5628,15104,-291,107,-54
13227.378,314,285,286,313,-960,5628,15104,-291,107,-54
13235.382,314,286,286,313,-908,5696,14932,111,-97,-40
13236.229,313,286,286,312,-908,5696,14932,111,-97,-40
13244.865000000002,313,287,286,311,-908,5696,14932,111,-97,-40
13247.445000000002,313,287,286,312,-908,5696,14932,111,-97,-40
13259.315,313,287,286,312,-908,5696,14932,111,-97,-40
13263.075,313,287,286,312,-908,5696,14932,111,-97,-40
13270.596,313,287,285,312,-908,5696,14932,111,-97,-40
13275.091,313,288,287,311,-908,5740,15004,55,12,9
13279.276,312,288,287,311,-908,5740,15004,55,12,9
13281.693000000001,311,288,287,311,-908,5740,15004,55,12,9
13291.878,311,289,287,311,-908,5740,15004,55,12,9
13291.878,311,289,287,311,-908,5740,15004,55,12,9
13297.198,311,289,288,311,-908,5740,15004,55,12,9
13302.777,311,289,288,311,-908,5740,15004,55,12,9
13312.054,312,289,290,311,-908,5740,15004,55,12,9
13313.965,312,290,291,311,-892,5712,15048,-28,-10,-23
13317.946,311,290,291,311,-892,5712,15048,-28,-10,-23
13325.037,312,290,291,311,-892,5712,15048,-28,-10,-23
13330.088,312,291,291,311,-892,5712,15048,-28,-10,-23
13335.598,312,291,292,311,-892,5712,15048,-28,-10,-23
13344.885,313,292,293,311,-892,5712,15048,-28,-10,-23
13347.196,314,293,294,311,-892,5712,15048,-28,-10,-23
13351.27,314,294,294,311,-920,5628,14988,-22,-8,-27
13358.832,315,295,293,311,-920,5628,14988,-22,-8,-27
13363.216,315,295,293,311,-920,5628,14988,-22,-8,-27
13369.082,316,296,293,311,-920,5628,14988,-22,-8,-27
13374.938,317,296,293,311,-920,5628,14988,-22,-8,-27
13380.663,317,296,293,311,-920,5628,14988,-22,-8,-27
13383.341,318,295,292,310,-920,5628,14988,-22,-8,-27
13393.077,318,295,294,311,-884,5736,15076,54,55,-166
13398.325,317,294,294,311,-884,5736,15076,54,55,-166
13402.835,316,293,294,310,-884,5736,15076,54,55,-166
13409.321,316,293,294,310,-884,5736,15076,54,55,-166
13414.059,314,292,295,310,-884,5736,15076,54,55,-166
13416.271,314,292,295,310,-884,5736,15076,54,55,-166
13426.17,312,291,295,309,-884,5736,15076,54,55,-166
13434.210000000001,311,290,296,309,-884,5736,15076,54,55,-166
13436.973,310,290,297,309,-852,5752,15040,-134,-13,10
13442.209,310,289,297,309,-852,5752,15040,-134,-13,10
13447.285000000002,308,289,297,309,-852,5752,15040,-134,-13,10
13447.285000000002,308,288,298,309,-852,5752,15040,-134,-13,10
13458.762,307,289,297,308,-852,5752,15040,-134,-13,10
13467.646999999999,306,289,297,308,-852,5752,15040,-134,-13,10
13471.855,306,288,297,308,-852,5752,15040,-134,-13,10
13471.855,305,289,297,308,-920,5776,15060,-22,24,-56
13480.997000000001,305,289,296,308,-920,5776,15060,-22,24,-56
13485.652999999998,304,287,296,308,-920,5776,15060,-22,24,-56
13492.136999999999,303,289,296,308,-920,5776,15060,-22,24,-56
13501.480000000001,303,289,296,307,-920,5776,15060,-22,24,-56
13504.144,302,290,295,307,-920,5776,15060,-22,24,-56
13512.143999999998,303,290,296,307,-920,5776,15060,-22,24,-56
13514.431999999999,304,290,295,308,-944,5564,15040,-130,-77,2
13514.431999999999,302,290,294,307,-944,5564,15040,-130,-77,2
13525.731,304,290,293,307,-944,5564,15040,-130,-77,2
13531.277,303,290,292,306,-944,5564,15040,-130,-77,2
13536.033,303,290,293,307,-944,5564,15040,-130,-77,2
13545.329,303,291,293,306,-944,5564,15040,-130,-77,2
13547.245,303,290,294,307,-944,5564,15040,-130,-77,2
13551.059000000001,303,290,295,307,-912,5692,15040,-42,-34,-13
13558.184000000001,304,291,295,307,-912,5692,15040,-42,-34,-13
13563.357999999998,303,291,295,306,-912,5692,15040,-42,-34,-13
13569.1,303,292,295,306,-912,5692,15040,-42,-34,-13
13575.824,304,293,296,306,-912,5692,15040,-42,-34,-13
13581.014,303,293,296,306,-912,5692,15040,-42,-34,-13
13589.696,303,293,296,306,-912,5692,15040,-42,-34,-13
13591.851999999999,304,293,297,306,-896,5588,15000,-98,-69,48
13596.764000000001,305,294,298,306,-896,5588,15000,-98,-69,48
13602.365000000002,305,294,298,306,-896,5588,15000,-98,-69,48
13608.254,304,294,299,306,-896,5588,15000,-98,-69,48
13613.291000000001,305,295,299,307,-896,5588,15000,-98,-69,48
13623.403,304,295,299,307,-896,5588,15000,-98,-69,48
13628.035,305,296,300,307,-896,5588,15000,-98,-69,48
13632.624,305,296,300,306,-896,5588,15000,-98,-69,48
13639.18,305,296,299,305,-912,5724,15092,26,-94,5
13644.487,305,296,300,306,-912,5724,15092,26,-94,5
13646.761,306,296,301,306,-912,5724,15092,26,-94,5
13646.761,306,297,301,307,-912,5724,15092,26,-94,5
13657.969,306,298,302,307,-912,5724,15092,26,-94,5
13661.997,305,299,301,306,-912,5724,15092,26,-94,5
13668.533,306,299,303,307,-912,5724,15092,26,-94,5
13668.533,306,299,304,307,-788,5724,15104,5,-73,28
13680.045,306,300,305,306,-788,5724,15104,5,-73,28
13680.045,306,299,306,306,-788,5724,15104,5,-73,28
13687.354,306,299,307,307,-788,5724,15104,5,-73,28
13691.656,306,299,307,306,-788,5724,15104,5,-73,28
