Time (ms),EMG1,EMG2,EMG3,EMG4,AccX,AccY,AccZ,GyroX,GyroY,GyroZ
1549.683,0,0,0,0,0,0,0,0,0,0
1549.683,0,0,0,0,0,0,0,0,0,0
1549.683,306,302,303,309,0,0,0,0,0,0
1549.683,306,302,304,308,0,0,0,0,0,0
1561.43,306,303,303,309,0,0,0,0,0,0
1565.851,306,302,303,308,0,0,0,0,0,0
1567.475,305,303,303,308,0,0,0,0,0,0
1571.4889999999998,305,303,303,308,0,0,0,0,0,0
1571.4889999999998,304,303,303,308,0,0,0,0,0,0
1577.693,304,303,303,308,0,0,0,0,0,0
1577.693,304,303,303,308,0,0,0,0,0,0
1585.183,305,303,302,308,0,0,0,0,0,0
1587.723,304,303,302,307,0,0,0,0,0,0
1587.723,304,303,302,307,0,0,0,0,0,0
1596.769,305,303,302,308,152,6576,14696,-7,-45,-9
1599.144,306,304,303,307,152,6576,14696,-7,-45,-9
1605.026,307,303,302,307,152,6576,14696,-7,-45,-9
1612.2479999999998,307,304,302,307,152,6576,14696,-7,-45,-9
1612.2479999999998,309,303,302,307,152,6576,14696,-7,-45,-9
1622.1200000000001,309,304,302,307,152,6576,14696,-7,-45,-9
1629.342,308,303,302,306,152,6576,14696,-7,-45,-9
1632.426,307,304,302,305,152,6576,14696,-7,-45,-9
1638.1200000000001,306,304,303,306,264,6652,14700,57,-16,-13
1643.029,305,303,302,306,264,6652,14700,57,-16,-13
1649.092,304,304,303,305,264,6652,14700,57,-16,-13
1654.565,304,304,303,305,264,6652,14700,57,-16,-13
1657.227,306,304,303,305,264,6652,14700,57,-16,-13
1665.9219999999998,305,303,303,305,264,6652,14700,57,-16,-13
1671.4389999999999,306,303,303,305,264,6652,14700,57,-16,-13
1681.072,307,303,303,305,264,6652,14700,57,-16,-13
1682.904,308,303,303,305,248,6640,14788,-2,-62,12
1687.531,309,303,303,305,248,6640,14788,-2,-62,12
1697.35,309,303,303,305,248,6640,14788,-2,-62,12
1699.3290000000002,311,303,303,305,248,6640,14788,-2,-62,12
1702.677,311,303,303,305,248,6640,14788,-2,-62,12
1702.677,311,303,303,304,248,6640,14788,-2,-62,12
1715.099,310,303,302,304,248,6640,14788,-2,-62,12
1721.0520000000001,308,303,302,305,188,6696,14752,10,-52,7
1721.0520000000001,307,303,302,304,188,6696,14752,10,-52,7
1728.218,306,302,302,304,188,6696,14752,10,-52,7
1732.353,304,303,302,304,188,6696,14752,10,-52,7
1739.818,304,302,303,304,188,6696,14752,10,-52,7
1743.42,304,302,302,304,188,6696,14752,10,-52,7
1748.41,305,302,302,304,188,6696,14752,10,-52,7
1754.359,305,303,302,304,188,6696,14752,10,-52,7
1759.63,305,302,303,304,204,6656,14664,-52,-35,-6
1765.106,304,302,303,304,204,6656,14664,-52,-35,-6
1771.505,304,302,303,304,204,6656,14664,-52,-35,-6
1777.931,303,302,303,304,204,6656,14664,-52,-35,-6
1777.931,303,302,303,305,204,6656,14664,-52,-35,-6
1787.938,303,302,303,304,204,6656,14664,-52,-35,-6
1796.056,302,302,303,304,204,6656,14664,-52,-35,-6
1799.058,301,302,303,304,252,6668,14660,-2,-31,6
1799.058,300,302,303,304,252,6668,14660,-2,-31,6
1810.0449999999998,300,302,303,304,252,6668,14660,-2,-31,6
1812.786,298,302,302,304,252,6668,14660,-2,-31,6
1812.786,298,303,303,304,252,6668,14660,-2,-31,6
1822.215,298,303,302,304,252,6668,14660,-2,-31,6
1830.2240000000002,297,303,302,303,252,6668,14660,-2,-31,6
1832.463,298,303,301,303,252,6668,14660,-2,-31,6
1838.5210000000002,298,303,301,303,204,6656,14728,-21,-2,-18
1843.393,299,303,301,303,204,6656,14728,-21,-2,-18
1849.656,299,304,300,303,204,6656,14728,-21,-2,-18
1854.738,300,304,300,302,204,6656,14728,-21,-2,-18
1857.796,301,304,300,302,204,6656,14728,-21,-2,-18
1865.754,301,304,299,301,204,6656,14728,-21,-2,-18
1871.754,301,304,299,301,204,6656,14728,-21,-2,-18
1876.125,302,304,299,301,204,6656,14728,-21,-2,-18
1878.7169999999999,301,304,299,301,248,6740,14768,-24,-4,-9
1888.223,301,304,299,300,248,6740,14768,-24,-4,-9
1888.223,301,304,298,300,248,6740,14768,-24,-4,-9
1899.041,300,304,299,300,248,6740,14768,-24,-4,-9
1899.041,301,304,298,300,248,6740,14768,-24,-4,-9
1910.183,301,304,298,299,248,6740,14768,-24,-4,-9
1910.183,303,304,298,299,248,6740,14768,-24,-4,-9
1921.116,304,304,298,299,224,6596,14552,-39,-24,3
1924.03,306,303,298,299,224,6596,14552,-39,-24,3
1924.03,307,303,298,298,224,6596,14552,-39,-24,3
1933.515,307,303,298,298,224,6596,14552,-39,-24,3
1940.487,308,303,299,298,224,6596,14552,-39,-24,3
1943.35,309,303,299,298,224,6596,14552,-39,-24,3
1954.5,309,303,299,298,224,6596,14552,-39,-24,3
1956.291,309,303,299,298,224,6596,14552,-39,-24,3
1956.291,309,303,299,298,232,6752,14648,3,0,-10
1966.9399999999998,310,303,299,298,232,6752,14648,3,0,-10
1966.9399999999998,309,302,299,297,232,6752,14648,3,0,-10
1976.894,309,303,299,298,232,6752,14648,3,0,-10
1976.894,308,302,299,298,232,6752,14648,3,0,-10
1987.632,309,303,299,298,232,6752,14648,3,0,-10
1987.632,309,303,299,298,232,6752,14648,3,0,-10
1998.652,309,303,299,298,232,6752,14648,3,0,-10
2001.0789999999997,310,302,299,298,252,6672,14720,-54,-51,8
2009.0919999999999,310,303,299,298,252,6672,14720,-54,-51,8
2010.637,310,303,299,298,252,6672,14720,-54,-51,8
2014.0889999999997,311,303,299,298,252,6672,14720,-54,-51,8
2021.132,309,303,299,298,252,6672,14720,-54,-51,8
2026.586,309,303,299,298,252,6672,14720,-54,-51,8
2031.8239999999998,308,303,299,298,252,6672,14720,-54,-51,8
2038.0919999999999,308,304,300,298,216,6752,14692,6,4,-17
2043.274,308,304,299,298,216,6752,14692,6,4,-17
2046.302,308,304,299,298,216,6752,14692,6,4,-17
2046.302,307,304,299,298,216,6752,14692,6,4,-17
2055.0510000000004,307,304,300,298,216,6752,14692,6,4,-17
2065.5800000000004,308,305,300,298,216,6752,14692,6,4,-17
2065.5800000000004,308,305,300,298,216,6752,14692,6,4,-17
2071.867,308,305,299,298,216,6752,14692,6,4,-17
2076.428,308,305,300,298,252,6644,14596,-21,-34,-9
2083.596,308,305,301,298,252,6644,14596,-21,-34,-9
2087.72,308,304,300,298,252,6644,14596,-21,-34,-9
2092.045,309,304,301,298,252,6644,14596,-21,-34,-9
2099.518,308,305,301,299,252,6644,14596,-21,-34,-9
2099.518,307,305,302,298,252,6644,14596,-21,-34,-9
2110.201,307,305,301,298,252,6644,14596,-21,-34,-9
2116.418,307,305,301,298,252,6644,14596,-21,-34,-9
2121.197,307,305,301,299,176,6664,14676,9,8,-18
2121.197,307,304,301,299,176,6664,14676,9,8,-18
2132.075,307,305,301,299,176,6664,14676,9,8,-18
2136.839,307,305,301,299,176,6664,14676,9,8,-18
2143.2760000000003,307,305,302,299,176,6664,14676,9,8,-18
2144.476,307,304,301,299,176,6664,14676,9,8,-18
2144.476,307,305,301,299,176,6664,14676,9,8,-18
2154.803,308,304,301,299,176,6664,14676,9,8,-18
2162.3109999999997,307,304,302,299,252,6800,14680,-54,-7,-15
2165.395,308,304,301,299,252,6800,14680,-54,-7,-15
2173.022,308,304,301,299,252,6800,14680,-54,-7,-15
2177.0040000000004,308,303,301,299,252,6800,14680,-54,-7,-15
2183.08,307,304,301,299,252,6800,14680,-54,-7,-15
2189.047,308,304,300,299,252,6800,14680,-54,-7,-15
2194.022,307,304,300,299,252,6800,14680,-54,-7,-15
2198.8050000000003,307,304,301,299,208,6688,14660,-50,-21,-17
2202.5570000000002,307,304,300,299,208,6688,14660,-50,-21,-17
2210.359,306,304,300,299,208,6688,14660,-50,-21,-17
2210.359,307,303,301,299,208,6688,14660,-50,-21,-17
2220.882,307,303,301,299,208,6688,14660,-50,-21,-17
2227.08,307,304,301,299,208,6688,14660,-50,-21,-17
2231.763,306,304,300,298,208,6688,14660,-50,-21,-17
2241.71,306,304,300,299,208,6688,14660,-50,-21,-17
2243.7960000000003,306,304,300,299,192,6688,14672,-67,-16,-15
2243.7960000000003,306,304,300,299,192,6688,14672,-67,-16,-15
2254.2270000000003,306,304,300,298,192,6688,14672,-67,-16,-15
2259.672,306,304,300,299,192,6688,14672,-67,-16,-15
2265.156,306,304,300,299,192,6688,14672,-67,-16,-15
2275.0240000000003,306,304,299,299,192,6688,14672,-67,-16,-15
2277.831,305,304,300,300,192,6688,14672,-67,-16,-15
2277.831,305,305,300,299,248,6712,14636,-67,32,-25
2287.8959999999997,304,305,299,299,248,6712,14636,-67,32,-25
2287.8959999999997,304,305,299,299,248,6712,14636,-67,32,-25
2298.356,305,305,300,299,248,6712,14636,-67,32,-25
2306.4320000000002,305,304,300,299,248,6712,14636,-67,32,-25
2310.035,305,304,299,299,248,6712,14636,-67,32,-25
2312.815,305,304,300,299,248,6712,14636,-67,32,-25
2320.8340000000003,305,305,300,300,220,6696,14708,-77,-4,-19
2325.0989999999997,305,304,299,300,220,6696,14708,-77,-4,-19
2331.7610000000004,305,305,299,300,220,6696,14708,-77,-4,-19
2331.7610000000004,305,304,300,300,220,6696,14708,-77,-4,-19
2343.2149999999997,305,305,300,300,220,6696,14708,-77,-4,-19
2343.2149999999997,306,304,300,300,220,6696,14708,-77,-4,-19
2352.598,305,304,300,300,220,6696,14708,-77,-4,-19
2354.702,306,304,301,300,220,6696,14708,-77,-4,-19
2363.36,305,304,301,300,276,6688,14624,-62,-18,0
2365.841,305,304,301,300,276,6688,14624,-62,-18,0
2374.5989999999997,305,304,301,300,276,6688,14624,-62,-18,0
2377.144,306,304,301,301,276,6688,14624,-62,-18,0
2377.144,306,304,301,301,276,6688,14624,-62,-18,0
2387.8529999999996,307,304,301,301,276,6688,14624,-62,-18,0
2396.839,306,304,301,301,276,6688,14624,-62,-18,0
2396.839,307,304,301,301,252,6660,14648,-48,21,-14
2404.841,306,304,301,301,252,6660,14648,-48,21,-14
2408.654,306,304,301,300,252,6660,14648,-48,21,-14
2417.553,306,304,301,300,252,6660,14648,-48,21,-14
2420.648,306,304,302,301,252,6660,14648,-48,21,-14
2423.228,306,304,301,301,252,6660,14648,-48,21,-14
2433.072,306,304,301,300,252,6660,14648,-48,21,-14
2433.072,306,304,301,300,252,6660,14648,-48,21,-14
2443.699,306,304,301,300,212,6672,14648,-82,25,-38
2443.699,305,304,301,301,212,6672,14648,-82,25,-38
2454.022,305,305,301,300,212,6672,14648,-82,25,-38
2462.705,305,304,301,301,212,6672,14648,-82,25,-38
2465.351,304,304,301,300,212,6672,14648,-82,25,-38
2468.276,304,305,300,300,212,6672,14648,-82,25,-38
2476.496,305,304,300,300,212,6672,14648,-82,25,-38
2480.413,305,305,301,300,280,6712,14724,-88,-21,-25
2480.413,305,304,300,300,280,6712,14724,-88,-21,-25
2488.388,304,305,300,299,280,6712,14724,-88,-21,-25
2499.002,303,305,300,300,280,6712,14724,-88,-21,-25
2499.002,303,304,300,300,280,6712,14724,-88,-21,-25
2510.021,303,304,299,300,280,6712,14724,-88,-21,-25
2510.021,303,305,300,299,280,6712,14724,-88,-21,-25
2518.982,303,304,300,300,280,6712,14724,-88,-21,-25
2520.975,303,304,300,301,260,6740,14668,-84,-3,-24
2532.1169999999997,302,304,300,300,260,6740,14668,-84,-3,-24
2532.1169999999997,302,304,300,301,260,6740,14668,-84,-3,-24
2543.306,303,304,300,301,260,6740,14668,-84,-3,-24
2546.411,303,304,301,301,260,6740,14668,-84,-3,-24
2546.411,303,304,301,301,260,6740,14668,-84,-3,-24
2555.566,304,304,301,301,260,6740,14668,-84,-3,-24
2563.897,304,304,302,302,208,6728,14648,-49,12,-24
2566.358,305,303,301,302,208,6728,14648,-49,12,-24
2572.403,304,303,302,302,208,6728,14648,-49,12,-24
2576.493,304,303,303,302,208,6728,14648,-49,12,-24
2582.915,304,304,303,302,208,6728,14648,-49,12,-24
2588.2450000000003,305,303,302,302,208,6728,14648,-49,12,-24
2591.056,304,304,302,302,208,6728,14648,-49,12,-24
2599.624,305,305,302,302,212,6680,14684,-125,12,-21
2599.624,305,303,302,302,212,6680,14684,-125,12,-21
2610.238,304,304,302,302,212,6680,14684,-125,12,-21
2618.9269999999997,304,304,302,303,212,6680,14684,-125,12,-21
2620.881,304,304,302,303,212,6680,14684,-125,12,-21
2624.0969999999998,303,304,302,302,212,6680,14684,-125,12,-21
2632.045,303,305,302,302,212,6680,14684,-125,12,-21
2632.045,303,305,302,303,212,6680,14684,-125,12,-21
2643.173,303,304,302,302,200,6804,14676,-49,29,-27
2649.011,302,305,301,302,200,6804,14676,-49,29,-27
2653.939,302,305,301,301,200,6804,14676,-49,29,-27
2663.514,302,305,301,302,200,6804,14676,-49,29,-27
2665.419,301,305,300,301,200,6804,14676,-49,29,-27
2665.419,301,305,300,301,200,6804,14676,-49,29,-27
2676.5469999999996,301,305,300,301,200,6804,14676,-49,29,-27
2682.0789999999997,300,305,301,301,232,6720,14696,-103,21,-23
2687.338,301,304,300,301,232,6720,14696,-103,21,-23
2689.718,302,305,300,301,232,6720,14696,-103,21,-23
2699.639,301,304,300,301,232,6720,14696,-103,21,-23
2704.838,301,304,300,301,232,6720,14696,-103,21,-23
2710.313,301,305,299,301,232,6720,14696,-103,21,-23
2710.313,301,304,300,301,232,6720,14696,-103,21,-23
2721.111,302,304,300,301,216,6684,14644,-73,8,-38
2729.192,302,304,300,301,216,6684,14644,-73,8,-38
2732.1349999999998,302,303,300,300,216,6684,14644,-73,8,-38
2734.407,303,304,300,301,216,6684,14644,-73,8,-38
2734.407,304,304,300,302,216,6684,14644,-73,8,-38
2743.243,303,303,300,301,216,6684,14644,-73,8,-38
2751.0319999999997,303,304,300,301,216,6684,14644,-73,8,-38
2754.4840000000004,304,304,300,301,216,6684,14644,-73,8,-38
2765.415,304,304,300,301,220,6656,14648,-67,17,-31
2765.415,303,304,300,301,220,6656,14648,-67,17,-31
2772.305,304,303,300,301,220,6656,14648,-67,17,-31
2776.71,304,303,301,302,220,6656,14648,-67,17,-31
2784.089,304,304,300,302,220,6656,14648,-67,17,-31
2787.954,303,304,301,301,220,6656,14648,-67,17,-31
2792.384,304,303,301,302,220,6656,14648,-67,17,-31
2799.0080000000003,304,304,302,302,168,6676,14668,-57,-6,-26
2799.0080000000003,304,304,301,302,168,6676,14668,-57,-6,-26
2810.176,304,304,301,302,168,6676,14668,-57,-6,-26
2817.659,305,303,302,303,168,6676,14668,-57,-6,-26
2821.449,305,303,302,303,168,6676,14668,-57,-6,-26
2824.995,305,303,302,303,168,6676,14668,-57,-6,-26
2832.2039999999997,305,303,302,303,168,6676,14668,-57,-6,-26
2837.511,306,303,302,303,168,6676,14668,-57,-6,-26
2843.076,306,304,303,304,200,6672,14608,-59,3,-31
2845.4959999999996,305,304,303,304,200,6672,14608,-59,3,-31
2854.722,305,304,303,305,200,6672,14608,-59,3,-31
2854.722,306,304,304,305,200,6672,14608,-59,3,-31
2865.493,306,304,304,305,200,6672,14608,-59,3,-31
2865.493,306,304,304,305,200,6672,14608,-59,3,-31
2876.458,306,304,304,305,200,6672,14608,-59,3,-31
2876.458,306,304,304,305,216,6692,14688,-102,-3,-6
2887.787,306,304,304,305,216,6692,14688,-102,-3,-6
2890.597,306,304,304,305,216,6692,14688,-102,-3,-6
2890.597,306,304,305,306,216,6692,14688,-102,-3,-6
2900.042,306,304,305,307,216,6692,14688,-102,-3,-6
2906.9210000000003,306,304,305,306,216,6692,14688,-102,-3,-6
2909.828,306,304,305,306,216,6692,14688,-102,-3,-6
2920.8889999999997,305,305,305,306,216,6692,14688,-102,-3,-6
2920.8889999999997,305,304,305,307,188,6716,14692,-52,6,-18
2927.431,305,304,304,306,188,6716,14692,-52,6,-18
2932.355,305,304,304,306,188,6716,14692,-52,6,-18
2942.024,305,304,305,307,188,6716,14692,-52,6,-18
2944.245,305,304,304,307,188,6716,14692,-52,6,-18
2944.245,306,304,304,306,188,6716,14692,-52,6,-18
2954.409,306,304,304,307,188,6716,14692,-52,6,-18
2963.467,306,304,304,307,188,6716,14692,-52,6,-18
2964.8500000000004,306,304,304,307,240,6664,14684,-76,27,-35
2972.562,306,304,304,306,240,6664,14684,-76,27,-35
2977.293,306,304,304,307,240,6664,14684,-76,27,-35
2977.293,307,304,304,307,240,6664,14684,-76,27,-35
2987.54,307,304,303,307,240,6664,14684,-76,27,-35
2987.54,307,304,304,306,240,6664,14684,-76,27,-35
2998.702,307,304,304,307,240,6664,14684,-76,27,-35
2998.702,306,304,304,307,216,6660,14680,-62,27,-28
3010.497,305,304,303,307,216,6660,14680,-62,27,-28
3010.497,305,304,303,306,216,6660,14680,-62,27,-28
3017.589,305,304,303,307,216,6660,14680,-62,27,-28
3021.343,305,304,303,307,216,6660,14680,-62,27,-28
3032.33,306,304,303,307,216,6660,14680,-62,27,-28
3032.33,306,304,303,307,216,6660,14680,-62,27,-28
3043.009,307,304,303,307,204,6700,14644,-69,16,-12
3045.604,307,304,302,307,204,6700,14644,-69,16,-12
3053.6349999999998,306,304,302,307,204,6700,14644,-69,16,-12
3055.223,306,304,302,307,204,6700,14644,-69,16,-12
3061.9770000000003,306,304,303,307,204,6700,14644,-69,16,-12
3065.538,306,304,302,306,204,6700,14644,-69,16,-12
3075.964,306,304,302,306,204,6700,14644,-69,16,-12
3078.192,305,304,302,307,204,6700,14644,-69,16,-12
3078.192,306,304,302,307,212,6764,14712,-73,21,-18
3088.025,304,304,302,306,212,6764,14712,-73,21,-18
3090.92,304,304,302,306,212,6764,14712,-73,21,-18
3098.864,304,304,303,307,212,6764,14712,-73,21,-18
3103.514,304,304,302,307,212,6764,14712,-73,21,-18
3109.562,304,304,302,306,212,6764,14712,-73,21,-18
3115.5750000000003,305,304,302,306,212,6764,14712,-73,21,-18
3120.64,306,304,303,307,236,6684,14616,-55,7,1
3123.7439999999997,306,304,302,306,236,6684,14616,-55,7,1
3133.3959999999997,305,304,302,306,236,6684,14616,-55,7,1
3133.3959999999997,304,304,302,306,236,6684,14616,-55,7,1
3141.4080000000004,304,304,303,306,236,6684,14616,-55,7,1
3143.8109999999997,304,305,302,306,236,6684,14616,-55,7,1
3154.019,304,305,302,306,236,6684,14616,-55,7,1
3154.019,304,305,302,306,236,6684,14616,-55,7,1
3161.318,303,305,303,307,128,6736,14780,-37,30,-19
3165.4049999999997,304,305,303,306,128,6736,14780,-37,30,-19
3172.8999999999996,303,305,302,306,128,6736,14780,-37,30,-19
3178.219,304,305,302,306,128,6736,14780,-37,30,-19
3178.219,304,305,302,307,128,6736,14780,-37,30,-19
3187.8940000000002,304,305,302,306,128,6736,14780,-37,30,-19
3193.808,305,305,302,306,128,6736,14780,-37,30,-19
3198.7070000000003,306,305,302,306,128,6736,14780,-37,30,-19
3201.362,306,305,302,306,232,6688,14672,-75,5,-34
3211.79,306,304,302,305,232,6688,14672,-75,5,-34
3216.526,305,304,302,305,232,6688,14672,-75,5,-34
3220.885,304,304,303,306,232,6688,14672,-75,5,-34
3229.265,304,304,302,306,232,6688,14672,-75,5,-34
3232.144,304,304,302,305,232,6688,14672,-75,5,-34
3232.144,303,304,302,305,232,6688,14672,-75,5,-34
3243.2569999999996,304,304,302,306,248,6616,14624,-82,-61,-4
3243.2569999999996,303,304,301,304,248,6616,14624,-82,-61,-4
3253.706,303,304,302,304,248,6616,14624,-82,-61,-4
3254.174,304,304,302,305,248,6616,14624,-82,-61,-4
3265.512,302,304,302,304,248,6616,14624,-82,-61,-4
3265.512,302,304,302,304,248,6616,14624,-82,-61,-4
3276.491,302,304,302,304,248,6616,14624,-82,-61,-4
3279.6479999999997,303,304,302,303,248,6616,14624,-82,-61,-4
3279.6479999999997,303,304,303,303,144,6668,14736,-108,17,-17
3288.712,303,303,302,303,144,6668,14736,-108,17,-17
3296.195,303,303,303,303,144,6668,14736,-108,17,-17
3298.8469999999998,303,303,303,304,144,6668,14736,-108,17,-17
3309.8770000000004,302,304,303,304,144,6668,14736,-108,17,-17
3312.561,302,303,302,304,144,6668,14736,-108,17,-17
3319.572,301,303,302,304,144,6668,14736,-108,17,-17
3322.255,302,304,303,305,212,6676,14720,-68,2,-2
3328.7599999999998,303,304,303,305,212,6676,14720,-68,2,-2
3332.002,303,303,304,305,212,6676,14720,-68,2,-2
3337.4190000000003,303,304,304,306,212,6676,14720,-68,2,-2
3342.899,304,304,304,307,212,6676,14720,-68,2,-2
3349.555,303,305,304,306,212,6676,14720,-68,2,-2
3354.416,303,304,304,306,212,6676,14720,-68,2,-2
3357.582,304,304,305,307,212,6676,14720,-68,2,-2
3366.569,303,304,305,307,228,6640,14672,-99,-26,-17
3366.569,303,304,304,306,228,6640,14672,-99,-26,-17
3376.6310000000003,303,304,304,306,228,6640,14672,-99,-26,-17
3384.651,303,304,304,307,228,6640,14672,-99,-26,-17
3388.297,303,304,303,307,228,6640,14672,-99,-26,-17
3388.297,302,305,304,306,228,6640,14672,-99,-26,-17
3399.092,301,305,304,307,228,6640,14672,-99,-26,-17
3399.092,302,305,304,306,224,6712,14724,-27,7,-23
3407.801,301,305,302,306,224,6712,14724,-27,7,-23
3409.777,301,305,302,305,224,6712,14724,-27,7,-23
3420.899,301,305,302,306,224,6712,14724,-27,7,-23
3420.899,302,305,302,305,224,6712,14724,-27,7,-23
3432.057,302,305,302,305,224,6712,14724,-27,7,-23
3435.1310000000003,302,305,301,305,224,6712,14724,-27,7,-23
3435.1310000000003,302,305,302,305,224,6712,14724,-27,7,-23
3444.2509999999997,302,305,302,304,244,6736,14684,-112,-34,-16
3452.676,302,304,301,304,244,6736,14684,-112,-34,-16
3455.1020000000003,303,304,302,304,244,6736,14684,-112,-34,-16
3465.566,303,304,302,304,244,6736,14684,-112,-34,-16
3465.566,303,304,301,303,244,6736,14684,-112,-34,-16
3474.982,303,304,300,303,244,6736,14684,-112,-34,-16
3477.277,302,304,301,303,244,6736,14684,-112,-34,-16
3484.5769999999998,302,304,300,303,188,6672,14724,-22,3,-34
3487.7729999999997,303,304,300,303,188,6672,14724,-22,3,-34
3498.368,303,304,300,303,188,6672,14724,-22,3,-34
3500.4719999999998,304,304,300,303,188,6672,14724,-22,3,-34
3500.4719999999998,304,304,300,303,188,6672,14724,-22,3,-34
3510.901,305,304,300,302,188,6672,14724,-22,3,-34
3519.21,305,304,300,303,188,6672,14724,-22,3,-34
3521.6349999999998,305,304,301,302,188,6672,14724,-22,3,-34
3525.078,305,304,300,302,184,6688,14704,-87,-23,-5
3531.46,305,304,300,302,184,6688,14704,-87,-23,-5
3537.9700000000003,305,304,300,303,184,6688,14704,-87,-23,-5
3543.141,305,304,300,302,184,6688,14704,-87,-23,-5
3545.62,305,304,299,303,184,6688,14704,-87,-23,-5
3555.278,304,304,300,302,184,6688,14704,-87,-23,-5
3555.278,303,304,300,303,184,6688,14704,-87,-23,-5
3561.912,303,304,301,303,180,6624,14712,-49,-4,-2
3565.962,303,304,300,303,180,6624,14712,-49,-4,-2
3576.5769999999998,303,305,301,303,180,6624,14712,-49,-4,-2
3576.5769999999998,302,305,301,304,180,6624,14712,-49,-4,-2
3587.918,303,304,301,304,180,6624,14712,-49,-4,-2
3590.916,303,304,301,304,180,6624,14712,-49,-4,-2
3590.916,303,304,302,305,180,6624,14712,-49,-4,-2
3599.7729999999997,303,304,302,305,180,6624,14712,-49,-4,-2
3607.776,303,305,301,305,248,6712,14664,-47,-8,-34
3613.321,303,305,302,305,248,6712,14664,-47,-8,-34
3615.696,303,305,303,306,248,6712,14664,-47,-8,-34
3620.4230000000002,303,304,303,306,248,6712,14664,-47,-8,-34
3627.363,303,304,303,306,248,6712,14664,-47,-8,-34
3632.4869999999996,303,304,303,306,248,6712,14664,-47,-8,-34
3641.479,304,304,304,307,248,6712,14664,-47,-8,-34
3643.577,304,304,304,308,236,6728,14736,-46,23,-15
3649.143,304,304,304,308,236,6728,14736,-46,23,-15
3654.072,304,304,304,308,236,6728,14736,-46,23,-15
3659.91,305,304,304,309,236,6728,14736,-46,23,-15
3665.112,306,304,304,309,236,6728,14736,-46,23,-15
3675.138,306,304,304,309,236,6728,14736,-46,23,-15
3677.112,307,304,304,309,236,6728,14736,-46,23,-15
3680.444,307,304,305,309,236,6728,14736,-46,23,-15
3687.303,307,304,304,310,224,6672,14708,-73,10,-21
3693.4770000000003,307,304,304,309,224,6672,14708,-73,10,-21
3698.403,307,304,304,309,224,6672,14708,-73,10,-21
3701.205,307,304,304,310,224,6672,14708,-73,10,-21
3710.9,307,304,304,309,224,6672,14708,-73,10,-21
3710.9,307,304,303,309,224,6672,14708,-73,10,-21
3717.942,307,304,303,310,224,6672,14708,-73,10,-21
3720.957,307,304,303,309,196,6648,14676,-79,22,-48
3732.874,306,304,302,309,196,6648,14676,-79,22,-48
3736.112,305,304,303,309,196,6648,14676,-79,22,-48
3743.258,306,304,303,309,196,6648,14676,-79,22,-48
3745.9210000000003,306,304,302,309,196,6648,14676,-79,22,-48
3753.922,306,305,302,308,196,6648,14676,-79,22,-48
3754.808,306,304,302,308,196,6648,14676,-79,22,-48
3765.548,306,304,302,308,184,6624,14676,-101,18,-13
3765.548,305,304,302,307,184,6624,14676,-101,18,-13
3776.232,304,304,302,307,184,6624,14676,-101,18,-13
3776.232,304,304,301,307,184,6624,14676,-101,18,-13
3784.0600000000004,304,304,301,307,184,6624,14676,-101,18,-13
3787.598,303,304,301,307,184,6624,14676,-101,18,-13
3795.803,303,305,301,307,184,6624,14676,-101,18,-13
3798.8810000000003,303,305,301,307,184,6624,14676,-101,18,-13
3809.576,304,304,301,307,200,6664,14700,-52,-5,-23
3811.839,303,304,300,306,200,6664,14700,-52,-5,-23
3811.839,303,305,300,306,200,6664,14700,-52,-5,-23
3822.303,303,305,301,306,200,6664,14700,-52,-5,-23
3828.6690000000003,304,304,300,306,200,6664,14700,-52,-5,-23
3832.145,304,305,300,306,200,6664,14700,-52,-5,-23
3841.462,304,304,301,306,200,6664,14700,-52,-5,-23
3843.309,305,304,300,306,196,6612,14704,-61,-1,-15
3848.911,305,304,300,306,196,6612,14704,-61,-1,-15
3853.985,305,304,300,306,196,6612,14704,-61,-1,-15
3860.721,305,304,301,306,196,6612,14704,-61,-1,-15
3865.89,304,304,300,306,196,6612,14704,-61,-1,-15
3875.787,304,304,300,306,196,6612,14704,-61,-1,-15
3876.883,305,304,300,306,196,6612,14704,-61,-1,-15
3882.3059999999996,305,304,301,307,196,6612,14704,-61,-1,-15
3887.1929999999998,305,304,300,306,224,6656,14736,-72,-25,-26
3887.1929999999998,305,304,300,306,224,6656,14736,-72,-25,-26
3898.864,306,304,301,306,224,6656,14736,-72,-25,-26
3907.892,306,304,300,306,224,6656,14736,-72,-25,-26
3910.047,306,304,299,305,224,6656,14736,-72,-25,-26
3914.054,306,303,299,305,224,6656,14736,-72,-25,-26
3920.7450000000003,306,304,300,305,224,6656,14736,-72,-25,-26
3927.029,306,303,300,305,208,6640,14656,-99,8,-26
3932.1130000000003,306,304,299,304,208,6640,14656,-99,8,-26
3934.677,305,304,299,305,208,6640,14656,-99,8,-26
3944.2400000000002,304,304,299,305,208,6640,14656,-99,8,-26
3944.2400000000002,304,304,298,304,208,6640,14656,-99,8,-26
3952.554,303,304,298,304,208,6640,14656,-99,8,-26
3955.024,303,304,298,304,208,6640,14656,-99,8,-26
3965.1139999999996,303,304,298,304,240,6664,14696,1,29,-23
3965.1139999999996,304,304,297,304,240,6664,14696,1,29,-23
3971.593,304,304,297,304,240,6664,14696,1,29,-23
3976.851,305,304,297,304,240,6664,14696,1,29,-23
3984.3039999999996,305,304,297,305,240,6664,14696,1,29,-23
3987.5409999999997,305,304,296,304,240,6664,14696,1,29,-23
3992.2810000000004,305,304,296,304,240,6664,14696,1,29,-23
3998.862,304,304,297,304,240,6664,14696,1,29,-23
4004.8060000000005,304,304,297,304,224,6652,14740,-75,38,-43
4009.7670000000003,304,305,295,304,224,6652,14740,-75,38,-43
4012.4760000000006,304,304,295,303,224,6652,14740,-75,38,-43
4020.497,304,304,295,304,224,6652,14740,-75,38,-43
4023.6349999999998,303,304,295,304,224,6652,14740,-75,38,-43
4032.09,302,304,294,303,224,6652,14740,-75,38,-43
4040.11,302,304,294,304,224,6652,14740,-75,38,-43
4043.5109999999995,302,304,295,304,224,6652,14740,-75,38,-43
4043.5109999999995,303,303,294,304,276,6792,14896,-74,-17,-21
4054.8390000000004,304,303,294,303,276,6792,14896,-74,-17,-21
4054.8390000000004,303,303,294,304,276,6792,14896,-74,-17,-21
4062.7690000000002,304,303,295,303,276,6792,14896,-74,-17,-21
4065.3709999999996,304,303,294,303,276,6792,14896,-74,-17,-21
4076.6289999999995,304,303,294,302,276,6792,14896,-74,-17,-21
4076.6289999999995,305,303,295,302,276,6792,14896,-74,-17,-21
4087.6159999999995,305,303,294,301,216,6652,14652,-91,26,-19
4090.083,304,303,293,300,216,6652,14652,-91,26,-19
4090.083,304,302,293,300,216,6652,14652,-91,26,-19
4099.797,304,302,293,300,216,6652,14652,-91,26,-19
4107.181,303,303,293,299,216,6652,14652,-91,26,-19
4109.860000000001,303,302,293,298,216,6652,14652,-91,26,-19
4120.639999999999,303,303,293,298,216,6652,14652,-91,26,-19
4123.128000000001,304,303,292,297,180,6672,14556,92,73,-44
4123.128000000001,304,303,292,296,180,6672,14556,92,73,-44
4132.869000000001,305,303,292,296,180,6672,14556,92,73,-44
4139.8099999999995,307,303,293,296,180,6672,14556,92,73,-44
4143.241,308,303,293,296,180,6672,14556,92,73,-44
4149.018,308,303,293,295,180,6672,14556,92,73,-44
4154.146,308,303,293,296,180,6672,14556,92,73,-44
4159.8369999999995,308,303,294,296,180,6672,14556,92,73,-44
4165.213,308,302,294,296,208,6708,14888,-183,12,-28
4168.331,308,302,294,296,208,6708,14888,-183,12,-28
4177.275,308,301,295,296,208,6708,14888,-183,12,-28
4177.275,309,301,295,296,208,6708,14888,-183,12,-28
4187.813,308,301,295,296,208,6708,14888,-183,12,-28
4187.813,309,300,296,296,208,6708,14888,-183,12,-28
4198.92,308,301,296,296,208,6708,14888,-183,12,-28
4207.951,308,301,296,296,276,6620,14556,-42,-29,-24
4211.74,308,300,296,295,276,6620,14556,-42,-29,-24
4215.891,308,300,297,295,276,6620,14556,-42,-29,-24
4223.733,308,300,297,295,276,6620,14556,-42,-29,-24
4227.88,308,299,296,295,276,6620,14556,-42,-29,-24
4232.428,307,299,297,294,276,6620,14556,-42,-29,-24
4235.519,307,299,297,294,276,6620,14556,-42,-29,-24
4243.03,307,299,298,294,276,6620,14556,-42,-29,-24
4248.787,305,300,298,294,192,6756,14644,-47,35,-18
4255.071,304,300,298,294,192,6756,14644,-47,35,-18
4255.071,304,300,299,294,192,6756,14644,-47,35,-18
4262.919,304,300,299,294,192,6756,14644,-47,35,-18
4273.676,304,299,299,294,192,6756,14644,-47,35,-18
4276.568,303,300,299,295,192,6756,14644,-47,35,-18
4276.568,304,300,300,296,192,6756,14644,-47,35,-18
4288.309,303,300,300,296,208,6672,14696,-93,-20,-14
4290.587,302,301,300,296,208,6672,14696,-93,-20,-14
4298.597,302,301,301,297,208,6672,14696,-93,-20,-14
4299.826,302,302,302,298,208,6672,14696,-93,-20,-14
4309.948,302,302,301,299,208,6672,14696,-93,-20,-14
4309.948,302,302,302,299,208,6672,14696,-93,-20,-14
4321.179,302,302,302,300,208,6672,14696,-93,-20,-14
4321.179,302,303,302,301,252,6672,14824,-76,13,-42
4328.881,300,303,303,301,252,6672,14824,-76,13,-42
4331.982,300,303,303,302,252,6672,14824,-76,13,-42
4343.18,301,303,304,303,252,6672,14824,-76,13,-42
4343.18,300,304,304,303,252,6672,14824,-76,13,-42
4354.198,300,304,304,303,252,6672,14824,-76,13,-42
4354.198,302,304,304,303,252,6672,14824,-76,13,-42
4363.516,301,304,304,303,252,6672,14824,-76,13,-42
4365.726000000001,300,304,304,303,220,6648,14592,-68,-6,6
4374.58,301,305,304,303,220,6648,14592,-68,-6,6
4376.896000000001,301,304,304,304,220,6648,14592,-68,-6,6
4376.896000000001,301,304,304,304,220,6648,14592,-68,-6,6
4387.811,301,305,304,304,220,6648,14592,-68,-6,6
4387.811,301,305,304,304,220,6648,14592,-68,-6,6
4397.032,302,305,305,304,220,6648,14592,-68,-6,6
4402.012,302,305,305,305,176,6700,14712,0,10,-47
4410.045,301,305,305,305,176,6700,14712,0,10,-47
4414.030000000001,301,305,306,305,176,6700,14712,0,10,-47
4414.030000000001,301,306,306,306,176,6700,14712,0,10,-47
4421.085,301,306,306,306,176,6700,14712,0,10,-47
4432.047,301,306,306,306,176,6700,14712,0,10,-47
4434.273,301,306,306,307,176,6700,14712,0,10,-47
4442.277,301,306,307,308,176,6700,14712,0,10,-47
4444.211,301,306,307,309,248,6816,14732,-50,-6,-30
4451.146,301,306,307,309,248,6816,14732,-50,-6,-30
4454.285,301,307,308,310,248,6816,14732,-50,-6,-30
4460.159,301,307,308,311,248,6816,14732,-50,-6,-30
4465.035999999999,301,307,308,311,248,6816,14732,-50,-6,-30
4470.99,301,307,308,312,248,6816,14732,-50,-6,-30
4476.813,302,308,309,312,248,6816,14732,-50,-6,-30
4479.1410000000005,302,307,309,313,248,6816,14732,-50,-6,-30
4488.161,302,307,309,313,240,6640,14636,-143,-43,1
4491.438999999999,302,307,309,314,240,6640,14636,-143,-43,1
4498.138,302,307,309,315,240,6640,14636,-143,-43,1
4504.572999999999,301,307,309,315,240,6640,14636,-143,-43,1
4509.533,301,307,309,315,240,6640,14636,-143,-43,1
4512.232,301,307,309,316,240,6640,14636,-143,-43,1
4521.633,302,307,309,316,240,6640,14636,-143,-43,1
4521.633,302,307,309,316,176,6708,14684,18,63,-35
4532.067,303,307,308,316,176,6708,14684,18,63,-35
4532.067,303,306,308,316,176,6708,14684,18,63,-35
4543.158,303,305,308,316,176,6708,14684,18,63,-35
4543.158,303,306,307,316,176,6708,14684,18,63,-35
4554.394,303,305,307,315,176,6708,14684,18,63,-35
4557.4890000000005,304,305,307,315,176,6708,14684,18,63,-35
4557.4890000000005,304,305,307,315,176,6708,14684,18,63,-35
4566.582,304,304,306,314,232,6680,14672,-121,-11,-12
4574.191,305,304,306,313,232,6680,14672,-121,-11,-12
4576.682,305,304,307,313,232,6680,14672,-121,-11,-12
4588.292,304,304,307,312,232,6680,14672,-121,-11,-12
4588.292,304,304,306,311,232,6680,14672,-121,-11,-12
4597.134999999999,304,304,306,311,232,6680,14672,-121,-11,-12
4599.424,304,305,306,311,232,6680,14672,-121,-11,-12
4606.936,303,306,305,310,228,6676,14652,-33,-15,-28
4610.216,304,305,305,309,228,6676,14652,-33,-15,-28
4620.921,303,306,305,308,228,6676,14652,-33,-15,-28
4620.921,303,306,305,308,228,6676,14652,-33,-15,-28
4632.152,303,307,305,307,228,6676,14652,-33,-15,-28
4635.372,302,307,305,307,228,6676,14652,-33,-15,-28
4635.372,302,307,305,307,228,6676,14652,-33,-15,-28
4644.045,302,307,304,307,172,6696,14708,-107,-8,-23
4654.347,301,307,304,306,172,6696,14708,-107,-8,-23
4654.383,301,307,304,306,172,6696,14708,-107,-8,-23
4665.936000000001,301,307,304,306,172,6696,14708,-107,-8,-23
4665.936000000001,301,307,303,305,172,6696,14708,-107,-8,-23
4674.782999999999,300,307,304,305,172,6696,14708,-107,-8,-23
4677.3369999999995,300,307,304,306,172,6696,14708,-107,-8,-23
4684.665,300,307,303,306,200,6664,14692,-56,10,2
4687.738,300,307,303,305,200,6664,14692,-56,10,2
4693.699,300,307,304,306,200,6664,14692,-56,10,2
4698.719,301,307,304,306,200,6664,14692,-56,10,2
4704.5019999999995,301,306,303,306,200,6664,14692,-56,10,2
4710.227,300,306,303,305,200,6664,14692,-56,10,2
4712.575,300,306,303,306,200,6664,14692,-56,10,2
4721.313999999999,301,305,304,307,200,6664,14692,-56,10,2
4725.111,301,305,303,306,196,6684,14644,-73,20,-13
4731.541,301,304,303,306,196,6684,14644,-73,20,-13
4731.541,301,304,303,306,196,6684,14644,-73,20,-13
4743.648,302,304,303,307,196,6684,14644,-73,20,-13
4743.648,303,303,303,306,196,6684,14644,-73,20,-13
4754.677,303,303,303,307,196,6684,14644,-73,20,-13
4754.677,303,303,303,307,196,6684,14644,-73,20,-13
4763.3679999999995,304,303,303,307,196,6684,14644,-73,20,-13
4768.822,304,303,302,307,232,6684,14652,-72,-12,-26
4776.633000000001,304,303,302,308,232,6684,14652,-72,-12,-26
4776.633000000001,305,302,303,308,232,6684,14652,-72,-12,-26
4787.909,305,303,303,308,232,6684,14652,-72,-12,-26
4790.405,305,303,302,308,232,6684,14652,-72,-12,-26
4790.405,305,303,302,309,232,6684,14652,-72,-12,-26
4799.2080000000005,305,304,303,310,232,6684,14652,-72,-12,-26
4809.985000000001,305,304,302,309,172,6672,14644,-63,6,-8
4809.985000000001,305,304,302,309,172,6672,14644,-63,6,-8
4816.3099999999995,305,305,302,310,172,6672,14644,-63,6,-8
4821.165,305,305,302,311,172,6672,14644,-63,6,-8
4827.851,304,305,302,311,172,6672,14644,-63,6,-8
4832.362,304,305,302,311,172,6672,14644,-63,6,-8
4836.188,304,305,303,311,172,6672,14644,-63,6,-8
4846.78,303,306,303,312,172,6672,14644,-63,6,-8
4846.78,302,306,303,311,164,6636,14656,-68,-20,-14
4854.636,302,306,303,311,164,6636,14656,-68,-20,-14
4862.724,302,307,303,312,164,6636,14656,-68,-20,-14
4865.446000000001,302,307,302,311,164,6636,14656,-68,-20,-14
4865.446000000001,303,307,302,311,164,6636,14656,-68,-20,-14
4876.473,302,306,303,311,164,6636,14656,-68,-20,-14
4881.173000000001,302,307,303,311,164,6636,14656,-68,-20,-14
4887.715,300,307,303,311,252,6720,14728,-64,-3,-20
4888.979,301,306,302,310,252,6720,14728,-64,-3,-20
4898.84,300,306,303,310,252,6720,14728,-64,-3,-20
4898.84,301,306,303,309,252,6720,14728,-64,-3,-20
4909.765,300,306,303,309,252,6720,14728,-64,-3,-20
4913.849,301,305,302,308,252,6720,14728,-64,-3,-20
4913.849,302,305,303,309,252,6720,14728,-64,-3,-20
4922.505,302,304,302,309,252,6720,14728,-64,-3,-20
4931.9800000000005,302,304,302,308,212,6712,14712,-108,1,-24
4931.9800000000005,302,304,302,308,212,6712,14712,-108,1,-24
4943.252,303,303,302,308,212,6712,14712,-108,1,-24
4943.252,303,303,301,307,212,6712,14712,-108,1,-24
4952.009999999999,304,303,301,307,212,6712,14712,-108,1,-24
4954.339,304,303,301,307,212,6712,14712,-108,1,-24
4965.537,305,303,302,308,212,6712,14712,-108,1,-24
4965.537,305,303,301,307,196,6696,14580,-39,3,-32
4971.41,304,303,300,307,196,6696,14580,-39,3,-32
4976.331,305,302,301,307,196,6696,14580,-39,3,-32
4983.862,305,302,301,308,196,6696,14580,-39,3,-32
4987.62,305,303,300,307,196,6696,14580,-39,3,-32
4992.056,305,303,300,307,196,6696,14580,-39,3,-32
4998.888,305,303,301,308,196,6696,14580,-39,3,-32
5004.066,305,303,300,307,196,6696,14580,-39,3,-32
5009.523,305,303,300,307,168,6748,14656,-26,21,-21
5012.072,304,304,300,307,168,6748,14656,-26,21,-21
5021.87,304,304,300,307,168,6748,14656,-26,21,-21
5021.87,304,304,299,307,168,6748,14656,-26,21,-21
5032.709,303,303,299,307,168,6748,14656,-26,21,-21
5032.709,303,303,299,307,168,6748,14656,-26,21,-21
5042.987,304,303,299,307,168,6748,14656,-26,21,-21
5051.037,302,303,298,307,184,6688,14716,-62,1,-23
5054.402999999999,302,303,298,306,184,6688,14716,-62,1,-23
5056.388,302,304,298,307,184,6688,14716,-62,1,-23
5063.8589999999995,301,304,298,307,184,6688,14716,-62,1,-23
5066.595,301,304,297,306,184,6688,14716,-62,1,-23
5074.767,300,304,297,306,184,6688,14716,-62,1,-23
5076.754,301,303,297,306,184,6688,14716,-62,1,-23
5087.17,302,303,297,306,184,6688,14716,-62,1,-23
5087.17,301,303,297,306,172,6696,14700,-63,-11,-26
5094.223999999999,300,303,297,306,172,6696,14700,-63,-11,-26
5099.089,301,303,297,306,172,6696,14700,-63,-11,-26
5106.506,301,303,296,305,172,6696,14700,-63,-11,-26
5110.398,301,303,296,304,172,6696,14700,-63,-11,-26
5120.776,301,303,296,305,172,6696,14700,-63,-11,-26
5122.521,302,303,296,305,172,6696,14700,-63,-11,-26
5122.521,302,303,296,304,200,6680,14664,-67,-1,-14
5133.021000000001,302,303,296,304,200,6680,14664,-67,-1,-14
5139.211,302,303,297,304,200,6680,14664,-67,-1,-14
5143.335999999999,302,303,297,304,200,6680,14664,-67,-1,-14
5153.831,302,303,297,303,200,6680,14664,-67,-1,-14
5154.214,303,304,297,303,200,6680,14664,-67,-1,-14
5159.835,302,303,298,304,200,6680,14664,-67,-1,-14
5165.188,303,303,297,303,192,6712,14716,-59,-4,-21
5172.159,303,303,297,302,192,6712,14716,-59,-4,-21
5176.759,303,303,298,303,192,6712,14716,-59,-4,-21
5180.393,304,303,299,303,192,6712,14716,-59,-4,-21
5188.568,303,304,299,302,192,6712,14716,-59,-4,-21
5188.568,302,303,299,302,192,6712,14716,-59,-4,-21
5198.646,302,303,299,302,192,6712,14716,-59,-4,-21
5200.4619999999995,302,303,299,302,192,6712,14716,-59,-4,-21
5210.388,302,302,299,302,168,6664,14748,-66,-20,-28
5210.388,302,302,300,302,168,6664,14748,-66,-20,-28
5221.262000000001,302,302,300,303,168,6664,14748,-66,-20,-28
5221.262000000001,302,301,300,303,168,6664,14748,-66,-20,-28
5229.586,301,301,301,302,168,6664,14748,-66,-20,-28
5240.236000000001,302,301,301,303,168,6664,14748,-66,-20,-28
5243.268,301,301,302,304,168,6664,14748,-66,-20,-28
5251.652,301,301,302,304,188,6744,14652,-8,-2,-32
5254.4529999999995,301,301,303,305,188,6744,14652,-8,-2,-32
5254.4529999999995,301,300,303,306,188,6744,14652,-8,-2,-32
5263.275000000001,302,301,303,307,188,6744,14652,-8,-2,-32
5265.437999999999,301,300,304,308,188,6744,14652,-8,-2,-32
5276.417,301,300,304,308,188,6744,14652,-8,-2,-32
5276.417,301,301,305,309,188,6744,14652,-8,-2,-32
5283.673000000001,301,301,305,309,188,6744,14652,-8,-2,-32
5289.866,301,301,304,309,176,6640,14756,-77,-9,-22
5294.9710000000005,302,302,305,310,176,6640,14756,-77,-9,-22
5299.383,301,302,305,310,176,6640,14756,-77,-9,-22
5303.256,301,302,305,310,176,6640,14756,-77,-9,-22
5310.3910000000005,301,303,306,310,176,6640,14756,-77,-9,-22
5310.3910000000005,300,303,305,310,176,6640,14756,-77,-9,-22
5320.857,300,304,306,309,176,6640,14756,-77,-9,-22
5330.353999999999,299,304,305,309,200,6764,14676,-14,19,-28
5332.620000000001,299,304,305,308,200,6764,14676,-14,19,-28
5341.685,300,305,305,308,200,6764,14676,-14,19,-28
5343.767,300,305,305,307,200,6764,14676,-14,19,-28
5347.4490000000005,300,305,304,306,200,6764,14676,-14,19,-28
5353.992,300,305,305,305,200,6764,14676,-14,19,-28
5360.6230000000005,300,305,305,305,200,6764,14676,-14,19,-28
5365.476000000001,299,305,305,304,200,6764,14676,-14,19,-28
5368.6720000000005,300,305,305,303,220,6704,14716,-97,-9,-13
5377.483,300,305,305,303,220,6704,14716,-97,-9,-13
5377.483,301,304,305,303,220,6704,14716,-97,-9,-13
5387.6900000000005,301,304,304,303,220,6704,14716,-97,-9,-13
5395.711,302,304,305,302,220,6704,14716,-97,-9,-13
5399.353999999999,303,303,304,303,220,6704,14716,-97,-9,-13
5399.353999999999,302,304,304,303,220,6704,14716,-97,-9,-13
5410.469,303,304,304,303,112,6652,14648,-23,-8,-40
5412.847,303,304,304,302,112,6652,14648,-23,-8,-40
5420.852,304,303,305,303,112,6652,14648,-23,-8,-40
5422.125,304,303,304,302,112,6652,14648,-23,-8,-40
5432.006,304,303,305,302,112,6652,14648,-23,-8,-40
5432.006,305,303,304,303,112,6652,14648,-23,-8,-40
5443.081,306,303,305,303,112,6652,14648,-23,-8,-40
5446.256,306,304,305,302,112,6652,14648,-23,-8,-40
5446.256,306,304,305,303,184,6696,14652,-85,2,-27
5455.57,305,304,306,303,184,6696,14652,-85,2,-27
5462.736,306,304,306,303,184,6696,14652,-85,2,-27
5465.349,306,304,305,303,184,6696,14652,-85,2,-27
5471.54,306,305,305,302,184,6696,14652,-85,2,-27
5476.166,306,306,306,303,184,6696,14652,-85,2,-27
5482.706,306,306,307,303,184,6696,14652,-85,2,-27
5487.841,305,306,306,303,208,6712,14628,-14,-36,17
5491.075000000001,305,306,306,303,208,6712,14628,-14,-36,17
5499.489,304,307,307,303,208,6712,14628,-14,-36,17
5499.489,304,307,307,304,208,6712,14628,-14,-36,17
5509.937,304,307,307,304,208,6712,14628,-14,-36,17
5518.076,305,307,307,304,208,6712,14628,-14,-36,17
5520.8279999999995,304,308,307,304,208,6712,14628,-14,-36,17
5520.8279999999995,304,308,307,304,208,6712,14628,-14,-36,17
5532.0,303,308,306,304,172,6732,14748,-94,-17,-21
5536.686000000001,303,308,307,305,172,6732,14748,-94,-17,-21
5542.868,303,307,307,305,172,6732,14748,-94,-17,-21
5548.896,302,307,306,305,172,6732,14748,-94,-17,-21
5553.880999999999,303,307,306,305,172,6732,14748,-94,-17,-21
5556.557,303,307,306,306,172,6732,14748,-94,-17,-21
5567.272,303,307,305,306,172,6732,14748,-94,-17,-21
5571.411,303,306,304,306,216,6708,14648,-51,-6,-43
5579.628,303,306,304,307,216,6708,14648,-51,-6,-43
5583.8060000000005,304,306,304,307,216,6708,14648,-51,-6,-43
5587.518,304,306,303,307,216,6708,14648,-51,-6,-43
5592.055,304,306,303,307,216,6708,14648,-51,-6,-43
5599.084000000001,306,305,303,307,216,6708,14648,-51,-6,-43
5599.084000000001,306,305,302,307,216,6708,14648,-51,-6,-43
5605.995,307,305,301,307,236,6716,14668,-81,-19,1
5610.383,307,305,300,307,236,6716,14668,-81,-19,1
5621.006,308,305,300,307,236,6716,14668,-81,-19,1
5621.006,308,305,299,307,236,6716,14668,-81,-19,1
5631.66,308,305,299,306,236,6716,14668,-81,-19,1
5631.66,308,305,298,306,236,6716,14668,-81,-19,1
5639.369000000001,308,304,298,307,236,6716,14668,-81,-19,1
5643.159,309,304,297,307,236,6716,14668,-81,-19,1
5647.285,309,304,297,306,212,6692,14660,-24,-13,-13
5655.339,308,304,296,307,212,6692,14660,-24,-13,-13
5655.339,308,304,296,307,212,6692,14660,-24,-13,-13
5665.523999999999,308,304,295,307,212,6692,14660,-24,-13,-13
5672.735000000001,308,304,295,306,212,6692,14660,-24,-13,-13
5677.205,307,304,295,306,212,6692,14660,-24,-13,-13
5686.137000000001,308,304,295,307,212,6692,14660,-24,-13,-13
5688.275,308,304,295,306,204,6648,14692,-29,-47,13
5691.67,307,304,295,306,204,6648,14692,-29,-47,13
5698.5,307,304,295,307,204,6648,14692,-29,-47,13
5704.415,306,304,295,307,204,6648,14692,-29,-47,13
5709.512,306,304,295,307,204,6648,14692,-29,-47,13
5713.295999999999,305,304,296,307,204,6648,14692,-29,-47,13
5722.901,305,304,296,307,204,6648,14692,-29,-47,13
5722.901,304,304,296,307,204,6648,14692,-29,-47,13
5732.766,304,304,296,307,224,6676,14672,-61,2,-5
5732.766,304,304,297,307,224,6676,14672,-61,2,-5
5742.7919999999995,303,305,297,307,224,6676,14672,-61,2,-5
5742.7919999999995,303,305,296,306,224,6676,14672,-61,2,-5
5754.736,302,305,296,306,224,6676,14672,-61,2,-5
5756.813,302,305,297,306,224,6676,14672,-61,2,-5
5756.813,302,305,298,306,224,6676,14672,-61,2,-5
5765.416,302,305,298,306,164,6716,14680,-43,7,-26
5769.741,302,305,298,305,164,6716,14680,-43,7,-26
5776.951,301,305,298,305,164,6716,14680,-43,7,-26
5776.951,301,305,299,305,164,6716,14680,-43,7,-26
5787.740000000001,301,305,299,305,164,6716,14680,-43,7,-26
5795.3060000000005,301,304,300,305,164,6716,14680,-43,7,-26
5800.9839999999995,302,305,300,305,164,6716,14680,-43,7,-26
5802.847,302,305,300,304,164,6716,14680,-43,7,-26
5810.570000000001,302,305,300,304,248,6684,14640,-38,-15,-33
5814.768,302,304,301,305,248,6684,14640,-38,-15,-33
5820.750999999999,302,304,301,305,248,6684,14640,-38,-15,-33
5820.750999999999,303,303,301,304,248,6684,14640,-38,-15,-33
5832.465,303,303,302,304,248,6684,14640,-38,-15,-33
5832.465,303,303,302,305,248,6684,14640,-38,-15,-33
5843.197,304,302,302,305,248,6684,14640,-38,-15,-33
5843.197,304,302,303,305,176,6664,14680,-66,3,-29
5853.403,305,302,303,305,176,6664,14680,-66,3,-29
5855.658,304,301,303,305,176,6664,14680,-66,3,-29
5865.6449999999995,305,301,303,305,176,6664,14680,-66,3,-29
5865.6449999999995,304,302,303,305,176,6664,14680,-66,3,-29
5876.926,304,302,304,305,176,6664,14680,-66,3,-29
5876.926,304,302,304,306,176,6664,14680,-66,3,-29
5884.036,304,302,304,306,176,6664,14680,-66,3,-29
5887.705000000001,304,302,304,305,248,6704,14688,-47,-6,-25
5898.818,304,303,304,305,248,6704,14688,-47,-6,-25
5898.818,304,303,305,306,248,6704,14688,-47,-6,-25
5904.5560000000005,305,304,305,305,248,6704,14688,-47,-6,-25
5909.991,303,304,305,305,248,6704,14688,-47,-6,-25
5917.454000000001,303,304,305,305,248,6704,14688,-47,-6,-25
5921.8820000000005,303,304,305,306,248,6704,14688,-47,-6,-25
5931.879999999999,303,304,305,305,180,6736,14700,-79,35,-44
5933.268,303,304,305,305,180,6736,14700,-79,35,-44
5933.268,303,305,306,306,180,6736,14700,-79,35,-44
5943.1849999999995,302,305,306,305,180,6736,14700,-79,35,-44
5949.679,302,305,306,305,180,6736,14700,-79,35,-44
5954.631,302,306,306,305,180,6736,14700,-79,35,-44
5963.668000000001,301,306,307,305,180,6736,14700,-79,35,-44
5965.695000000001,301,306,306,305,180,6736,14700,-79,35,-44
5971.269,300,307,306,304,164,6756,14792,-62,42,-21
5977.169,301,306,306,305,164,6756,14792,-62,42,-21
5977.169,301,307,307,305,164,6756,14792,-62,42,-21
5987.585,300,307,306,304,164,6756,14792,-62,42,-21
5987.585,301,306,306,304,164,6756,14792,-62,42,-21
5998.820000000001,300,307,306,305,164,6756,14792,-62,42,-21
6003.405,301,306,306,304,164,6756,14792,-62,42,-21
6009.835,300,306,306,304,264,6748,14700,-119,16,-100
6009.835,301,306,306,304,264,6748,14700,-119,16,-100
6021.253,300,306,307,304,264,6748,14700,-119,16,-100
6030.0419999999995,301,306,306,304,264,6748,14700,-119,16,-100
6032.018,301,306,306,303,264,6748,14700,-119,16,-100
6032.018,302,306,306,304,264,6748,14700,-119,16,-100
6043.103999999999,302,306,307,304,264,6748,14700,-119,16,-100
6047.943,302,306,306,303,224,6708,14624,-14,-5,-43
6053.898,303,306,306,303,224,6708,14624,-14,-5,-43
6053.898,303,306,307,304,224,6708,14624,-14,-5,-43
6065.815,303,305,307,303,224,6708,14624,-14,-5,-43
6065.815,304,305,306,303,224,6708,14624,-14,-5,-43
6077.476,304,305,307,303,224,6708,14624,-14,-5,-43
6081.1900000000005,304,305,307,304,224,6708,14624,-14,-5,-43
6087.669,304,305,307,303,224,6708,14624,-14,-5,-43
6087.669,304,305,307,303,256,6672,14660,-70,25,-18
6098.679,304,305,307,303,256,6672,14660,-70,25,-18
6101.669,304,304,307,303,256,6672,14660,-70,25,-18
6101.669,304,304,307,303,256,6672,14660,-70,25,-18
6110.782,305,304,306,303,256,6672,14660,-70,25,-18
6118.294,303,303,306,303,256,6672,14660,-70,25,-18
6121.07,304,303,306,303,256,6672,14660,-70,25,-18
6131.6050000000005,304,304,306,303,216,6708,14656,-40,-24,-14
6131.6050000000005,303,304,306,303,216,6708,14656,-40,-24,-14
6139.282999999999,303,304,306,304,216,6708,14656,-40,-24,-14
6143.224,303,304,306,304,216,6708,14656,-40,-24,-14
6151.0199999999995,304,304,306,303,216,6708,14656,-40,-24,-14
6154.415,303,304,306,304,216,6708,14656,-40,-24,-14
6165.762,303,305,306,304,216,6708,14656,-40,-24,-14
6169.894,302,305,306,303,216,6708,14656,-40,-24,-14
6173.446,301,305,306,303,236,6688,14700,-120,5,-27
6181.908,301,305,305,304,236,6688,14700,-120,5,-27
6186.111999999999,301,305,305,304,236,6688,14700,-120,5,-27
6189.548000000001,300,305,305,303,236,6688,14700,-120,5,-27
6192.580000000001,301,306,305,304,236,6688,14700,-120,5,-27
6199.571,301,306,305,304,236,6688,14700,-120,5,-27
6199.571,301,306,304,304,236,6688,14700,-120,5,-27
6210.367,301,306,303,303,200,6708,14664,-99,9,-49
6216.487,300,306,303,303,200,6708,14664,-99,9,-49
6221.214,300,306,303,304,200,6708,14664,-99,9,-49
6230.482,300,306,302,304,200,6708,14664,-99,9,-49
6232.751,299,306,302,303,200,6708,14664,-99,9,-49
6232.751,300,306,301,303,200,6708,14664,-99,9,-49
6243.226,299,306,301,304,200,6708,14664,-99,9,-49
6251.303,299,306,300,303,200,6708,14664,-99,9,-49
6254.087,300,306,299,303,168,6728,14640,-144,-26,-16
6254.087,299,306,300,303,168,6728,14640,-144,-26,-16
6266.585,299,306,299,303,168,6728,14640,-144,-26,-16
6266.585,299,306,298,303,168,6728,14640,-144,-26,-16
6277.906,299,306,298,303,168,6728,14640,-144,-26,-16
6277.906,300,305,297,303,168,6728,14640,-144,-26,-16
6287.448,301,305,296,303,168,6728,14640,-144,-26,-16
6287.448,299,304,296,303,160,6704,14660,-113,24,-23
6299.499,299,305,296,303,160,6704,14660,-113,24,-23
6299.499,299,304,295,303,160,6704,14660,-113,24,-23
6312.963,299,304,295,302,160,6704,14660,-113,24,-23
6315.548,299,303,295,302,160,6704,14660,-113,24,-23
6319.089,299,303,295,302,160,6704,14660,-113,24,-23
6328.37,300,303,295,302,160,6704,14660,-113,24,-23
6333.415,300,302,295,302,220,6700,14668,-172,-11,-30
6333.415,300,303,295,302,220,6700,14668,-172,-11,-30
6343.466,300,303,296,303,220,6700,14668,-172,-11,-30
6347.5599999999995,300,303,296,303,220,6700,14668,-172,-11,-30
6354.423,300,303,298,303,220,6700,14668,-172,-11,-30
6359.061,300,303,299,303,220,6700,14668,-172,-11,-30
6365.185,301,303,299,303,220,6700,14668,-172,-11,-30
6367.576,301,302,300,303,152,6688,14700,-272,49,-59
6377.871,301,302,301,303,152,6688,14700,-272,49,-59
6377.871,301,302,302,303,152,6688,14700,-272,49,-59
6387.7,300,302,302,302,152,6688,14700,-272,49,-59
6387.7,300,302,304,302,152,6688,14700,-272,49,-59
6398.91,299,303,305,303,152,6688,14700,-272,49,-59
6407.016,300,303,306,303,152,6688,14700,-272,49,-59
6410.074,300,302,307,302,244,7028,14748,-572,305,-313
6419.366,300,303,309,302,244,7028,14748,-572,305,-313
6421.616,300,303,310,302,244,7028,14748,-572,305,-313
6424.817,301,303,311,302,244,7028,14748,-572,305,-313
6431.892000000001,301,303,312,302,244,7028,14748,-572,305,-313
6437.67,301,303,314,303,244,7028,14748,-572,305,-313
6443.304999999999,302,304,315,303,244,7028,14748,-572,305,-313
6449.476,303,303,315,303,232,6696,14924,-1612,691,-554
6455.563,302,303,316,304,232,6696,14924,-1612,691,-554
6463.692,304,303,317,304,232,6696,14924,-1612,691,-554
6466.061,304,303,317,305,232,6696,14924,-1612,691,-554
6476.402,304,304,318,305,232,6696,14924,-1612,691,-554
6477.915999999999,305,304,319,305,232,6696,14924,-1612,691,-554
6487.575,305,304,318,305,232,6696,14924,-1612,691,-554
6490.744000000001,306,304,318,306,92,6956,15572,-2912,1688,-1116
6499.932000000001,308,305,319,306,92,6956,15572,-2912,1688,-1116
6499.932000000001,308,305,318,307,92,6956,15572,-2912,1688,-1116
6510.012,309,305,317,306,92,6956,15572,-2912,1688,-1116
6515.916,310,306,317,307,92,6956,15572,-2912,1688,-1116
6520.621,310,307,316,308,92,6956,15572,-2912,1688,-1116
6530.593,312,307,314,308,92,6956,15572,-2912,1688,-1116
6532.577,312,308,314,308,-108,7580,15752,-5854,3033,-2104
6539.892,313,308,313,308,-108,7580,15752,-5854,3033,-2104
6543.4169999999995,314,309,311,309,-108,7580,15752,-5854,3033,-2104
6554.853999999999,315,308,310,308,-108,7580,15752,-5854,3033,-2104
6563.119000000001,314,309,309,308,-108,7580,15752,-5854,3033,-2104
6565.277,314,309,307,309,-108,7580,15752,-5854,3033,-2104
6574.246999999999,313,309,305,309,-248,6520,14924,-6355,2694,-1983
6578.075,314,309,303,309,-248,6520,14924,-6355,2694,-1983
6580.968000000001,315,309,301,309,-248,6520,14924,-6355,2694,-1983
6588.542,314,309,297,309,-248,6520,14924,-6355,2694,-1983
6598.757,313,310,295,309,-248,6520,14924,-6355,2694,-1983
6598.757,314,311,293,309,-248,6520,14924,-6355,2694,-1983
6610.131,314,311,290,308,-248,6520,14924,-6355,2694,-1983
6613.923,314,311,287,308,-708,5596,16164,-5222,2561,-2130
6620.952,314,310,283,312,-708,5596,16164,-5222,2561,-2130
6625.408,314,311,281,314,-708,5596,16164,-5222,2561,-2130
6631.85,315,310,279,316,-708,5596,16164,-5222,2561,-2130
6643.286,315,310,277,320,-708,5596,16164,-5222,2561,-2130
6645.887,316,310,274,322,-708,5596,16164,-5222,2561,-2130
6655.4039999999995,316,310,273,323,-728,6020,18056,-3333,2878,-2647
6655.4039999999995,319,310,271,324,-728,6020,18056,-3333,2878,-2647
6665.48,321,310,269,323,-728,6020,18056,-3333,2878,-2647
6673.982,320,310,266,322,-728,6020,18056,-3333,2878,-2647
6678.2880000000005,319,310,261,323,-728,6020,18056,-3333,2878,-2647
6683.055,318,310,256,324,-728,6020,18056,-3333,2878,-2647
6688.309,314,305,249,324,-156,4756,21456,-1832,5401,-3695
6695.969,311,303,242,324,-156,4756,21456,-1832,5401,-3695
6698.812,307,299,234,324,-156,4756,21456,-1832,5401,-3695
6709.884,303,298,222,322,-156,4756,21456,-1832,5401,-3695
6719.037,299,296,206,320,-156,4756,21456,-1832,5401,-3695
6720.9349999999995,295,296,192,318,-156,4756,21456,-1832,5401,-3695
6724.186000000001,293,296,175,316,-156,4756,21456,-1832,5401,-3695
6732.124,288,294,158,319,-1448,6968,21020,1822,9546,-4771
6743.253000000001,281,292,137,327,-1448,6968,21020,1822,9546,-4771
6743.610000000001,276,294,111,333,-1448,6968,21020,1822,9546,-4771
6754.47,274,310,87,337,-1448,6968,21020,1822,9546,-4771
6754.47,274,325,62,337,-1448,6968,21020,1822,9546,-4771
6765.393999999999,276,331,31,337,-1448,6968,21020,1822,9546,-4771
6769.446,279,317,0,338,-1804,5304,20692,1794,13039,-6181
6778.518,284,301,0,342,-1804,5304,20692,1794,13039,-6181
6787.526,289,277,0,346,-1804,5304,20692,1794,13039,-6181
6788.333,289,251,0,349,-1804,5304,20692,1794,13039,-6181
6798.7390000000005,282,219,0,353,-1804,5304,20692,1794,13039,-6181
6798.7390000000005,271,184,0,359,-1804,5304,20692,1794,13039,-6181
6806.312,258,146,0,367,-1804,5304,20692,1794,13039,-6181
6810.1320000000005,246,100,0,375,-2316,7404,19072,3032,16673,-8047
6820.979,234,52,0,383,-2316,7404,19072,3032,16673,-8047
6825.046,224,23,0,384,-2316,7404,19072,3032,16673,-8047
6832.156,216,6,0,380,-2316,7404,19072,3032,16673,-8047
6841.268,214,0,0,375,-2316,7404,19072,3032,16673,-8047
6843.464,210,0,0,368,-2316,7404,19072,3032,16673,-8047
6852.615,210,0,0,359,-2316,7404,19072,3032,16673,-8047
6854.433,208,0,0,356,-3196,6916,16256,3366,19362,-10538
6865.121,201,8,0,355,-3196,6916,16256,3366,19362,-10538
6865.121,197,17,3,354,-3196,6916,16256,3366,19362,-10538
6876.785,192,30,15,353,-3196,6916,16256,3366,19362,-10538
6879.362,188,45,33,355,-3196,6916,16256,3366,19362,-10538
6888.662,184,69,56,358,-3196,6916,16256,3366,19362,-10538
6891.639999999999,182,96,81,360,-4068,5220,14596,1439,21919,-11010
6898.606,183,125,116,365,-4068,5220,14596,1439,21919,-11010
6904.723,183,144,147,369,-4068,5220,14596,1439,21919,-11010
6909.927,182,162,180,373,-4068,5220,14596,1439,21919,-11010
6921.15,183,181,220,379,-4068,5220,14596,1439,21919,-11010
6927.164000000001,181,198,255,382,-4068,5220,14596,1439,21919,-11010
6934.851,172,212,296,381,-6524,3496,10904,1359,22201,-11322
6939.4980000000005,166,221,337,374,-6524,3496,10904,1359,22201,-11322
6948.063999999999,164,226,373,369,-6524,3496,10904,1359,22201,-11322
6954.259,162,228,407,367,-6524,3496,10904,1359,22201,-11322
6957.197,162,227,445,373,-6524,3496,10904,1359,22201,-11322
6966.742,164,219,477,385,-6524,3496,10904,1359,22201,-11322
6966.742,163,202,513,404,-8256,740,7636,688,21988,-11186
6978.723,164,192,544,426,-8256,740,7636,688,21988,-11186
6978.723,162,185,572,452,-8256,740,7636,688,21988,-11186
6987.842,158,178,597,477,-8256,740,7636,688,21988,-11186
6994.841,155,171,623,502,-8256,740,7636,688,21988,-11186
6998.981,151,168,647,522,-8256,740,7636,688,21988,-11186
7007.609,147,166,666,538,-8256,740,7636,688,21988,-11186
7009.682,140,167,690,551,-9676,-936,5116,-810,20031,-10123
7021.456999999999,135,165,706,551,-9676,-936,5116,-810,20031,-10123
7030.163,130,168,720,545,-9676,-936,5116,-810,20031,-10123
7032.7390000000005,124,179,734,533,-9676,-936,5116,-810,20031,-10123
7041.157,119,188,743,518,-9676,-936,5116,-810,20031,-10123
7043.245,115,191,751,499,-9676,-936,5116,-810,20031,-10123
7054.111,112,193,757,471,-11704,-1676,3304,-2887,15524,-8428
7062.163,113,212,770,448,-11704,-1676,3304,-2887,15524,-8428
7065.566,114,228,778,425,-11704,-1676,3304,-2887,15524,-8428
7074.509,118,237,786,400,-11704,-1676,3304,-2887,15524,-8428
7079.408,124,248,795,381,-11704,-1676,3304,-2887,15524,-8428
7084.467,135,263,802,361,-11704,-1676,3304,-2887,15524,-8428
7095.642,145,275,808,342,-13512,-1164,5336,-4229,10722,-6155
7098.75,158,290,815,326,-13512,-1164,5336,-4229,10722,-6155
7105.2429999999995,168,301,818,313,-13512,-1164,5336,-4229,10722,-6155
7110.247,180,313,823,305,-13512,-1164,5336,-4229,10722,-6155
7118.075,194,320,825,295,-13512,-1164,5336,-4229,10722,-6155
7120.786,210,333,830,290,-13512,-1164,5336,-4229,10722,-6155
7132.111,227,343,832,288,-14776,68,4160,2353,8678,-7127
7138.320000000001,249,357,833,288,-14776,68,4160,2353,8678,-7127
7143.205,265,365,833,287,-14776,68,4160,2353,8678,-7127
7145.887,284,372,832,283,-14776,68,4160,2353,8678,-7127
7155.127,303,380,831,276,-14776,68,4160,2353,8678,-7127
7165.1720000000005,323,391,830,274,-14776,68,4160,2353,8678,-7127
7165.594999999999,339,400,826,269,-14776,68,4160,2353,8678,-7127
7176.517,352,403,823,261,-16052,784,5872,1848,4903,-5680
7179.533,364,405,818,249,-16052,784,5872,1848,4903,-5680
7188.183999999999,374,417,815,241,-16052,784,5872,1848,4903,-5680
7188.183999999999,381,423,810,233,-16052,784,5872,1848,4903,-5680
7198.7480000000005,393,436,806,232,-16052,784,5872,1848,4903,-5680
7204.195000000001,405,449,799,239,-16052,784,5872,1848,4903,-5680
7209.798,414,459,795,247,-16052,784,5872,1848,4903,-5680
7215.408,426,469,790,258,-15360,-3532,3884,956,5834,-2334
7220.684,442,480,781,269,-15360,-3532,3884,956,5834,-2334
7227.838000000001,452,490,775,282,-15360,-3532,3884,956,5834,-2334
7232.31,464,498,768,292,-15360,-3532,3884,956,5834,-2334
7240.446999999999,473,504,760,300,-15360,-3532,3884,956,5834,-2334
7243.334,480,507,753,303,-15360,-3532,3884,956,5834,-2334
7254.527999999999,486,509,745,308,-15684,-1404,4196,-4746,4871,-796
7263.3369999999995,490,509,738,312,-15684,-1404,4196,-4746,4871,-796
7264.974999999999,495,508,731,313,-15684,-1404,4196,-4746,4871,-796
7272.729,501,507,723,311,-15684,-1404,4196,-4746,4871,-796
7279.759999999999,507,503,715,305,-15684,-1404,4196,-4746,4871,-796
7287.754,516,498,707,294,-15684,-1404,4196,-4746,4871,-796
7296.13,522,491,699,287,-15704,-444,3712,-4209,4081,-910
7298.863,527,486,691,275,-15704,-444,3712,-4209,4081,-910
7301.501,530,482,685,267,-15704,-444,3712,-4209,4081,-910
7310.438,532,476,676,259,-15704,-444,3712,-4209,4081,-910
7318.0019999999995,533,470,670,251,-15704,-444,3712,-4209,4081,-910
7321.146,533,466,663,243,-15704,-444,3712,-4209,4081,-910
7332.151,531,459,656,233,-15704,-444,3712,-4209,4081,-910
7340.656,528,452,650,222,-16132,76,4040,-1815,3168,-1761
7345.030000000001,525,444,646,212,-16132,76,4040,-1815,3168,-1761
7347.599,522,438,639,202,-16132,76,4040,-1815,3168,-1761
7354.835999999999,519,437,633,196,-16132,76,4040,-1815,3168,-1761
7365.2210000000005,514,439,628,193,-16132,76,4040,-1815,3168,-1761
7366.97,510,443,623,192,-16132,76,4040,-1815,3168,-1761
7376.95,506,446,618,194,-15644,-2388,2860,-359,1940,-2023
7379.779,502,453,611,202,-15644,-2388,2860,-359,1940,-2023
7388.4400000000005,497,457,605,212,-15644,-2388,2860,-359,1940,-2023
7388.4400000000005,490,453,597,223,-15644,-2388,2860,-359,1940,-2023
7399.067999999999,481,455,591,233,-15644,-2388,2860,-359,1940,-2023
7405.066,476,456,585,242,-15644,-2388,2860,-359,1940,-2023
7409.892,465,449,577,247,-15924,-1132,3632,-216,1429,-1749
7420.8730000000005,457,443,571,253,-15924,-1132,3632,-216,1429,-1749
7424.621,451,438,564,256,-15924,-1132,3632,-216,1429,-1749
7433.048000000001,443,432,557,264,-15924,-1132,3632,-216,1429,-1749
7433.048000000001,435,424,551,270,-15924,-1132,3632,-216,1429,-1749
7443.448,426,418,545,273,-15924,-1132,3632,-216,1429,-1749
7450.291,417,411,539,276,-15924,-1132,3632,-216,1429,-1749
7454.371,408,405,534,278,-16052,128,3816,-332,1244,-854
7461.764999999999,397,397,528,279,-16052,128,3816,-332,1244,-854
7465.893999999999,389,392,524,276,-16052,128,3816,-332,1244,-854
7476.457,377,385,519,272,-16052,128,3816,-332,1244,-854
7479.973,367,381,515,267,-16052,128,3816,-332,1244,-854
7487.924,356,376,509,263,-16052,128,3816,-332,1244,-854
7496.705999999999,347,372,504,258,-16160,-1104,2660,-387,2139,-1292
7498.585,341,371,498,252,-16160,-1104,2660,-387,2139,-1292
7507.576,337,369,493,245,-16160,-1104,2660,-387,2139,-1292
7509.829,333,366,487,236,-16160,-1104,2660,-387,2139,-1292
7521.454000000001,330,365,481,227,-16160,-1104,2660,-387,2139,-1292
7521.454000000001,328,363,475,219,-16160,-1104,2660,-387,2139,-1292
7532.631,323,361,468,208,-16160,-1104,2660,-387,2139,-1292
7541.2480000000005,319,361,463,198,-16112,-868,3084,845,1777,-930
7543.5869999999995,318,361,458,190,-16112,-868,3084,845,1777,-930
7552.8,315,360,453,180,-16112,-868,3084,845,1777,-930
7554.991,314,362,448,173,-16112,-868,3084,845,1777,-930
7559.34,314,361,444,166,-16112,-868,3084,845,1777,-930
7565.065,314,361,440,158,-16112,-868,3084,845,1777,-930
7572.143999999999,312,360,435,152,-16032,-1248,2832,301,1236,-1246
7580.395,311,361,429,146,-16032,-1248,2832,301,1236,-1246
7588.198,310,359,425,140,-16032,-1248,2832,301,1236,-1246
7588.198,310,360,421,133,-16032,-1248,2832,301,1236,-1246
7598.929,312,361,418,128,-16032,-1248,2832,301,1236,-1246
7605.695,313,360,413,124,-16032,-1248,2832,301,1236,-1246
7610.141,312,359,409,120,-16032,-1248,2832,301,1236,-1246
7617.261,312,357,405,115,-16116,-1824,2940,-283,1070,-213
7621.918,312,357,402,113,-16116,-1824,2940,-283,1070,-213
7632.079,313,355,398,110,-16116,-1824,2940,-283,1070,-213
7632.079,313,355,394,108,-16116,-1824,2940,-283,1070,-213
7643.294,313,354,391,106,-16116,-1824,2940,-283,1070,-213
7645.450000000001,315,353,387,104,-16116,-1824,2940,-283,1070,-213
7654.937,314,352,384,102,-16116,-1820,2992,679,353,410
7663.649,315,353,381,103,-16116,-1820,2992,679,353,410
7665.664,314,350,378,102,-16116,-1820,2992,679,353,410
7676.631,312,350,375,102,-16116,-1820,2992,679,353,410
7680.647,312,348,374,100,-16116,-1820,2992,679,353,410
7682.181,312,347,370,102,-16116,-1820,2992,679,353,410
7687.695,313,346,368,103,-16116,-1820,2992,679,353,410
7694.748,313,346,367,103,-16172,-1752,3084,474,439,143
7699.264999999999,313,344,364,105,-16172,-1752,3084,474,439,143
7707.504,314,342,362,106,-16172,-1752,3084,474,439,143
7710.075,314,341,361,108,-16172,-1752,3084,474,439,143
7721.317,314,340,360,110,-16172,-1752,3084,474,439,143
7721.317,314,339,358,112,-16172,-1752,3084,474,439,143
7732.161999999999,314,338,356,115,-16172,-1752,3084,474,439,143
7732.161999999999,315,336,354,118,-16120,-1284,3164,1053,137,214
7743.313999999999,316,335,353,121,-16120,-1284,3164,1053,137,214
7748.445000000001,315,335,352,124,-16120,-1284,3164,1053,137,214
7754.041,315,333,350,128,-16120,-1284,3164,1053,137,214
7761.053000000001,315,332,348,131,-16120,-1284,3164,1053,137,214
7765.565,314,331,347,136,-16120,-1284,3164,1053,137,214
7772.901,314,330,346,139,-16100,-1232,2968,702,362,229
7780.6810000000005,315,327,345,143,-16100,-1232,2968,702,362,229
7787.49,315,325,344,147,-16100,-1232,2968,702,362,229
7795.834,315,326,344,151,-16100,-1232,2968,702,362,229
7799.116,315,324,342,155,-16100,-1232,2968,702,362,229
7799.116,315,323,341,159,-16100,-1232,2968,702,362,229
7810.038,315,322,340,162,-16100,-1232,2968,702,362,229
7813.781,315,321,339,167,-16292,-1304,3328,-457,554,604
7820.7029999999995,316,318,338,170,-16292,-1304,3328,-457,554,604
7825.581999999999,316,318,337,174,-16292,-1304,3328,-457,554,604
7831.921,316,317,336,177,-16292,-1304,3328,-457,554,604
7837.858,316,315,335,180,-16292,-1304,3328,-457,554,604
7843.054999999999,315,314,333,184,-16292,-1304,3328,-457,554,604
7851.567,315,313,332,188,-16292,-1304,3328,-457,554,604
7857.154,316,313,332,191,-16208,-1204,3672,-1178,185,508
7865.354,316,310,331,195,-16208,-1204,3672,-1178,185,508
7873.4400000000005,315,309,329,199,-16208,-1204,3672,-1178,185,508
7876.45,316,308,329,202,-16208,-1204,3672,-1178,185,508
7886.085999999999,316,308,329,206,-16208,-1204,3672,-1178,185,508
7888.293,316,309,328,209,-16208,-1204,3672,-1178,185,508
7888.293,317,308,327,213,-16300,-888,3120,-662,49,618
7898.716,317,306,326,217,-16300,-888,3120,-662,49,618
7904.106,315,305,325,220,-16300,-888,3120,-662,49,618
7910.021000000001,316,306,324,223,-16300,-888,3120,-662,49,618
7916.5830000000005,317,306,323,226,-16300,-888,3120,-662,49,618
7921.299999999999,316,305,322,229,-16300,-888,3120,-662,49,618
7928.6089999999995,316,305,321,231,-16300,-888,3120,-662,49,618
7932.14,316,304,320,235,-16348,-944,3168,457,-123,645
7936.817,314,305,320,239,-16348,-944,3168,457,-123,645
7943.511,313,304,319,242,-16348,-944,3168,457,-123,645
7954.119000000001,312,304,317,247,-16348,-944,3168,457,-123,645
7954.119000000001,311,304,316,251,-16348,-944,3168,457,-123,645
7965.782,312,304,316,253,-16348,-944,3168,457,-123,645
7965.782,310,303,315,256,-16348,-944,3168,457,-123,645
7973.603,310,303,314,258,-16296,-644,3216,887,-37,241
7981.195,309,303,314,261,-16296,-644,3216,887,-37,241
7987.021000000001,309,305,313,262,-16296,-644,3216,887,-37,241
7996.234,308,304,312,264,-16296,-644,3216,887,-37,241
7998.667,307,304,311,266,-16296,-644,3216,887,-37,241
8002.145,308,304,311,268,-16296,-644,3216,887,-37,241
8011.013999999999,306,304,309,269,-16296,-644,3216,887,-37,241
8011.013999999999,305,304,308,271,-16240,-304,3356,855,-22,-98
8021.141,305,304,309,272,-16240,-304,3356,855,-22,-98
8027.540999999999,304,303,308,273,-16240,-304,3356,855,-22,-98
8031.915,303,304,307,274,-16240,-304,3356,855,-22,-98
8035.1990000000005,303,304,306,276,-16240,-304,3356,855,-22,-98
8044.017999999999,303,304,305,275,-16240,-304,3356,855,-22,-98
8052.2480000000005,303,305,304,277,-16240,-304,3356,855,-22,-98
8054.332,302,305,303,277,-16176,-828,3336,202,-14,-234
8065.101000000001,301,304,302,279,-16176,-828,3336,202,-14,-234
8065.101000000001,300,304,301,280,-16176,-828,3336,202,-14,-234
8071.450000000001,300,305,300,280,-16176,-828,3336,202,-14,-234
8081.407,299,305,299,280,-16176,-828,3336,202,-14,-234
8083.586,299,305,299,281,-16176,-828,3336,202,-14,-234
8088.075999999999,299,305,298,281,-16176,-828,3336,202,-14,-234
8098.877999999999,298,305,298,282,-16164,-1196,3080,-29,137,-107
8107.006,298,305,297,283,-16164,-1196,3080,-29,137,-107
8109.790999999999,297,305,296,284,-16164,-1196,3080,-29,137,-107
8118.978,297,305,296,282,-16164,-1196,3080,-29,137,-107
8121.236,298,304,296,284,-16164,-1196,3080,-29,137,-107
8125.540000000001,297,304,294,285,-16164,-1196,3080,-29,137,-107
8133.069,297,304,294,286,-16164,-1196,3080,-29,137,-107
8133.069,296,304,294,287,-16280,-1096,3100,201,-244,97
8143.527000000001,295,303,294,287,-16280,-1096,3100,201,-244,97
8150.75,294,303,293,288,-16280,-1096,3100,201,-244,97
8154.486000000001,293,303,294,289,-16280,-1096,3100,201,-244,97
8162.972,293,303,294,289,-16280,-1096,3100,201,-244,97
8165.397000000001,293,303,293,290,-16280,-1096,3100,201,-244,97
8176.581,292,302,293,291,-16256,-1016,3372,448,-152,97
8182.005999999999,291,301,294,291,-16256,-1016,3372,448,-152,97
8187.911,291,301,292,292,-16256,-1016,3372,448,-152,97
8187.911,291,301,292,294,-16256,-1016,3372,448,-152,97
8198.741,290,300,292,295,-16256,-1016,3372,448,-152,97
8203.123,291,300,293,295,-16256,-1016,3372,448,-152,97
8209.622,291,301,292,296,-16256,-1016,3372,448,-152,97
8215.833999999999,291,300,292,298,-16232,-904,3196,580,-51,89
8220.943,290,300,292,298,-16232,-904,3196,580,-51,89
8227.107,290,300,292,299,-16232,-904,3196,580,-51,89
8232.544,290,300,292,300,-16232,-904,3196,580,-51,89
8235.105000000001,289,300,292,301,-16232,-904,3196,580,-51,89
8243.4,289,299,292,302,-16232,-904,3196,580,-51,89
8247.614,289,299,292,303,-16232,-904,3196,580,-51,89
8254.014,288,299,292,303,-16168,-1100,3176,51,-28,58
8260.69,288,298,292,304,-16168,-1100,3176,51,-28,58
8265.33,287,299,292,304,-16168,-1100,3176,51,-28,58
8272.713,287,299,292,305,-16168,-1100,3176,51,-28,58
8277.074,286,297,291,307,-16168,-1100,3176,51,-28,58
8282.130000000001,286,298,292,306,-16168,-1100,3176,51,-28,58
8290.75,286,298,291,307,-16168,-1100,3176,51,-28,58
8294.907000000001,286,298,292,307,-16316,-1044,3560,-327,39,149
8303.748000000001,285,298,293,308,-16316,-1044,3560,-327,39,149
8308.454,285,298,292,309,-16316,-1044,3560,-327,39,149
8315.763,284,297,292,308,-16316,-1044,3560,-327,39,149
8316.890000000001,285,297,292,309,-16316,-1044,3560,-327,39,149
8321.498,285,297,292,310,-16316,-1044,3560,-327,39,149
8332.288,285,297,293,311,-16316,-1044,3560,-327,39,149
8340.791,286,297,293,310,-16332,-1092,3408,-476,-33,314
8343.432999999999,286,296,292,312,-16332,-1092,3408,-476,-33,314
8343.432999999999,286,294,293,312,-16332,-1092,3408,-476,-33,314
8354.105000000001,286,295,293,313,-16332,-1092,3408,-476,-33,314
8358.67,286,295,294,314,-16332,-1092,3408,-476,-33,314
8367.153999999999,286,295,294,315,-16332,-1092,3408,-476,-33,314
8373.383,286,294,294,316,-16332,-1092,3408,-476,-33,314
8376.838,287,293,294,317,-16280,-1052,3424,-239,-49,673
8385.571,288,292,294,318,-16280,-1052,3424,-239,-49,673
8386.899,288,292,294,319,-16280,-1052,3424,-239,-49,673
8395.249,288,292,295,321,-16280,-1052,3424,-239,-49,673
8398.845,287,292,295,323,-16280,-1052,3424,-239,-49,673
8409.99,287,292,294,324,-16280,-1052,3424,-239,-49,673
8418.047,287,291,295,326,-16316,-380,3496,451,-175,502
8420.844000000001,289,291,296,327,-16316,-380,3496,451,-175,502
8420.844000000001,288,291,295,329,-16316,-380,3496,451,-175,502
8431.944,287,290,295,329,-16316,-380,3496,451,-175,502
8436.445000000002,288,291,296,331,-16316,-380,3496,451,-175,502
8443.251999999999,289,290,296,332,-16316,-380,3496,451,-175,502
8448.714,286,290,295,336,-16316,-380,3496,451,-175,502
8453.932999999999,282,291,295,342,-16272,-436,3224,257,-147,296
8460.418000000001,276,291,296,350,-16272,-436,3224,257,-147,296
8465.661,270,290,296,355,-16272,-436,3224,257,-147,296
8472.766,263,292,297,362,-16272,-436,3224,257,-147,296
8476.643,256,291,298,370,-16272,-436,3224,257,-147,296
8487.949999999999,250,292,298,376,-16272,-436,3224,257,-147,296
8487.949999999999,247,291,298,379,-16272,-436,3224,257,-147,296
8498.756,246,291,298,381,-16284,-428,3428,-106,-145,211
8498.756,245,292,297,383,-16284,-428,3428,-106,-145,211
8510.182,246,292,297,382,-16284,-428,3428,-106,-145,211
8510.182,248,292,296,382,-16284,-428,3428,-106,-145,211
8521.333,249,292,296,381,-16284,-428,3428,-106,-145,211
8521.333,251,292,295,379,-16284,-428,3428,-106,-145,211
8530.174,252,292,293,378,-16284,-428,3428,-106,-145,211
8542.006000000001,256,293,293,376,-16184,-580,3372,-32,-86,197
8542.998000000001,260,293,292,373,-16184,-580,3372,-32,-86,197
8553.86,262,293,292,371,-16184,-580,3372,-32,-86,197
8554.61,265,294,291,369,-16184,-580,3372,-32,-86,197
8564.019,268,294,291,366,-16184,-580,3372,-32,-86,197
8564.019,270,295,291,362,-16184,-580,3372,-32,-86,197
8572.187,273,295,290,361,-16184,-580,3372,-32,-86,197
8575.654999999999,275,294,290,357,-16300,-428,3488,200,-198,107
8587.111,278,294,290,354,-16300,-428,3488,200,-198,107
8587.792,280,294,289,352,-16300,-428,3488,200,-198,107
8598.618,283,294,289,349,-16300,-428,3488,200,-198,107
8606.668000000001,286,294,288,346,-16300,-428,3488,200,-198,107
8609.26,288,294,289,344,-16300,-428,3488,200,-198,107
8609.26,290,294,288,341,-16300,-428,3488,200,-198,107
8620.846,293,295,288,340,-16232,-612,3548,140,25,-38
8624.791,294,294,288,336,-16232,-612,3548,140,25,-38
8631.880000000001,296,294,288,335,-16232,-612,3548,140,25,-38
8636.990000000002,297,293,287,333,-16232,-612,3548,140,25,-38
8641.762999999999,299,293,288,332,-16232,-612,3548,140,25,-38
8644.907,300,293,287,330,-16232,-612,3548,140,25,-38
8653.816,301,294,286,329,-16232,-612,3548,140,25,-38
8663.646999999999,303,295,286,327,-16156,-688,3352,-44,214,18
8664.902,304,295,287,325,-16156,-688,3352,-44,214,18
8672.922,305,295,287,325,-16156,-688,3352,-44,214,18
8675.725999999999,306,294,286,323,-16156,-688,3352,-44,214,18
8683.034,308,294,286,322,-16156,-688,3352,-44,214,18
8686.189,308,295,286,320,-16156,-688,3352,-44,214,18
8697.181999999999,309,295,286,319,-16156,-688,3352,-44,214,18
8699.177000000001,309,296,286,318,-16328,-520,3388,-35,162,99
8708.387999999999,310,295,286,318,-16328,-520,3388,-35,162,99
8709.149,310,295,285,317,-16328,-520,3388,-35,162,99
8715.917,311,295,286,316,-16328,-520,3388,-35,162,99
8720.301,312,295,286,316,-16328,-520,3388,-35,162,99
8727.255,312,295,285,316,-16328,-520,3388,-35,162,99
8731.358999999999,312,295,286,315,-16328,-520,3388,-35,162,99
8735.702,311,295,286,315,-16260,-608,3372,145,291,-64
8742.654,311,294,286,315,-16260,-608,3372,145,291,-64
8753.966,311,294,286,313,-16260,-608,3372,145,291,-64
8753.966,312,295,287,314,-16260,-608,3372,145,291,-64
8761.042,313,295,287,313,-16260,-608,3372,145,291,-64
8764.592999999999,312,294,287,314,-16260,-608,3372,145,291,-64
8772.371,312,295,286,313,-16260,-608,3372,145,291,-64
8776.69,313,295,287,313,-16256,-632,3200,419,242,-132
8786.735999999999,312,295,287,313,-16256,-632,3200,419,242,-132
8795.109999999999,312,295,287,313,-16256,-632,3200,419,242,-132
8797.996,312,295,287,313,-16256,-632,3200,419,242,-132
8797.996,312,295,287,313,-16256,-632,3200,419,242,-132
8809.437000000002,312,294,288,313,-16256,-632,3200,419,242,-132
8813.261,311,295,288,313,-16256,-632,3200,419,242,-132
8820.334,310,296,288,312,-16104,-752,3244,265,251,-113
8825.417,311,295,288,312,-16104,-752,3244,265,251,-113
8830.653,311,295,288,312,-16104,-752,3244,265,251,-113
8837.374,311,296,289,312,-16104,-752,3244,265,251,-113
8842.287,310,295,289,312,-16104,-752,3244,265,251,-113
8850.196,311,295,289,312,-16104,-752,3244,265,251,-113
8852.737,311,295,289,312,-16216,-636,3196,80,81,-87
8864.378999999999,310,295,289,313,-16216,-636,3196,80,81,-87
8865.415,309,294,289,312,-16216,-636,3196,80,81,-87
8869.988,308,294,289,311,-16216,-636,3196,80,81,-87
8881.047,309,295,290,313,-16216,-636,3196,80,81,-87
8884.126999999999,308,295,291,312,-16216,-636,3196,80,81,-87
8886.901,309,295,290,312,-16216,-636,3196,80,81,-87
8891.449,308,296,291,311,-16216,-636,3196,80,81,-87
8897.653,309,296,291,313,-16236,-724,3248,160,83,48
8903.577000000001,307,296,292,312,-16236,-724,3248,160,83,48
8908.465,307,297,291,313,-16236,-724,3248,160,83,48
8915.03,307,296,292,313,-16236,-724,3248,160,83,48
8919.595,306,296,292,313,-16236,-724,3248,160,83,48
8923.403,306,296,292,313,-16236,-724,3248,160,83,48
8931.577000000001,306,294,291,313,-16236,-724,3248,160,83,48
8942.074,306,295,292,314,-16272,-616,3540,203,18,-63
8942.655,306,295,292,314,-16272,-616,3540,203,18,-63
8949.32,306,295,291,315,-16272,-616,3540,203,18,-63
8953.718,304,295,291,315,-16272,-616,3540,203,18,-63
8961.434000000001,304,295,292,316,-16272,-616,3540,203,18,-63
8964.948,305,296,291,316,-16272,-616,3540,203,18,-63
8975.664999999999,304,296,292,316,-16272,-616,3540,203,18,-63
8975.664999999999,304,295,291,317,-16324,-600,3332,342,181,-14
8986.762,305,295,292,317,-16324,-600,3332,342,181,-14
8989.226999999999,305,295,291,318,-16324,-600,3332,342,181,-14
8989.226999999999,304,294,291,318,-16324,-600,3332,342,181,-14
8999.054,304,294,292,318,-16324,-600,3332,342,181,-14
9005.841,304,295,291,319,-16324,-600,3332,342,181,-14
9009.608,304,294,291,319,-16324,-600,3332,342,181,-14
9020.126,304,294,291,319,-16252,-660,3244,-57,284,-155
9028.484,304,294,291,320,-16252,-660,3244,-57,284,-155
9031.788,303,294,291,320,-16252,-660,3244,-57,284,-155
9031.788,302,294,291,320,-16252,-660,3244,-57,284,-155
9042.687000000002,303,294,292,320,-16252,-660,3244,-57,284,-155
9046.652,303,294,291,320,-16252,-660,3244,-57,284,-155
9053.417,303,295,292,320,-16252,-660,3244,-57,284,-155
9058.944,302,295,292,321,-16264,-664,3244,-17,263,17
9063.995,302,295,292,322,-16264,-664,3244,-17,263,17
9066.983,302,296,292,322,-16264,-664,3244,-17,263,17
9075.753,302,296,291,322,-16264,-664,3244,-17,263,17
9085.643,301,296,292,323,-16264,-664,3244,-17,263,17
9086.966999999999,301,297,292,323,-16264,-664,3244,-17,263,17
9091.847,301,297,291,322,-16264,-664,3244,-17,263,17
9097.215,301,297,291,322,-16300,-744,3196,-68,227,0
9103.94,301,297,291,322,-16300,-744,3196,-68,227,0
9108.435,301,298,291,322,-16300,-744,3196,-68,227,0
9111.936,302,298,291,323,-16300,-744,3196,-68,227,0
9120.541,300,297,291,323,-16300,-744,3196,-68,227,0
9120.541,300,297,290,323,-16300,-744,3196,-68,227,0
9131.865,300,297,291,323,-16300,-744,3196,-68,227,0
9137.936,300,297,291,324,-16252,-776,3280,-67,385,-73
9142.621000000001,301,297,290,323,-16252,-776,3280,-67,385,-73
9149.247000000001,302,297,290,323,-16252,-776,3280,-67,385,-73
9153.648000000001,302,297,290,324,-16252,-776,3280,-67,385,-73
9157.455,301,297,290,324,-16252,-776,3280,-67,385,-73
9164.581999999999,301,297,290,324,-16252,-776,3280,-67,385,-73
9176.076000000001,301,297,291,325,-16252,-776,3280,-67,385,-73
9176.076000000001,301,298,291,325,-16296,-680,3076,-56,310,-10
9182.885,302,296,291,325,-16296,-680,3076,-56,310,-10
9186.636,302,297,290,324,-16296,-680,3076,-56,310,-10
9195.169,302,296,291,325,-16296,-680,3076,-56,310,-10
9197.943000000001,301,297,291,325,-16296,-680,3076,-56,310,-10
9209.085,299,296,291,324,-16296,-680,3076,-56,310,-10
9209.15,299,297,291,324,-16296,-680,3076,-56,310,-10
9220.652,300,297,292,325,-16320,-532,3116,26,241,22
9222.537,300,298,292,326,-16320,-532,3116,26,241,22
9232.262,300,298,292,325,-16320,-532,3116,26,241,22
9232.262,301,297,291,326,-16320,-532,3116,26,241,22
9241.69,300,297,292,326,-16320,-532,3116,26,241,22
9249.258,301,297,292,326,-16320,-532,3116,26,241,22
9253.821,301,299,292,326,-16320,-532,3116,26,241,22
9257.988,300,298,292,326,-16308,-592,3232,-7,145,-27
9265.684000000001,301,298,292,326,-16308,-592,3232,-7,145,-27
9267.139000000001,300,298,292,324,-16308,-592,3232,-7,145,-27
9275.159,299,297,292,321,-16308,-592,3232,-7,145,-27
9275.686,300,297,293,318,-16308,-592,3232,-7,145,-27
9286.952,300,297,293,314,-16308,-592,3232,-7,145,-27
9286.996000000001,299,297,292,310,-16308,-592,3232,-7,145,-27
9298.314,299,297,293,307,-16308,-592,3232,-7,145,-27
9298.314,299,297,293,305,-16284,-656,3056,51,265,-36
9309.44,300,296,293,304,-16284,-656,3056,51,265,-36
9312.671,300,297,293,304,-16284,-656,3056,51,265,-36
9320.411999999998,301,297,294,303,-16284,-656,3056,51,265,-36
9320.411999999998,301,296,294,302,-16284,-656,3056,51,265,-36
9331.412999999999,301,296,294,303,-16284,-656,3056,51,265,-36
9339.499,300,297,294,304,-16284,-656,3056,51,265,-36
9342.309000000001,301,298,294,305,-16336,-772,2948,94,298,-20
9342.309000000001,301,297,294,305,-16336,-772,2948,94,298,-20
9354.281,301,298,294,306,-16336,-772,2948,94,298,-20
9359.18,302,298,294,307,-16336,-772,2948,94,298,-20
9364.546,302,297,294,308,-16336,-772,2948,94,298,-20
9365.964,302,297,294,309,-16336,-772,2948,94,298,-20
9375.732,302,297,294,310,-16336,-772,2948,94,298,-20
9375.732,301,298,295,311,-16320,-664,2992,273,267,5
9389.025,301,299,294,311,-16320,-664,2992,273,267,5
9392.228,300,298,294,311,-16320,-664,2992,273,267,5
9397.844,300,299,294,312,-16320,-664,2992,273,267,5
9403.028,301,300,295,312,-16320,-664,2992,273,267,5
9408.696000000002,300,300,295,311,-16320,-664,2992,273,267,5
9408.696000000002,300,301,295,311,-16320,-664,2992,273,267,5
9420.130000000001,299,301,295,311,-16316,-684,2936,144,257,-43
9420.130000000001,298,302,295,311,-16316,-684,2936,144,257,-43
9431.62,297,302,295,311,-16316,-684,2936,144,257,-43
9431.62,297,302,295,312,-16316,-684,2936,144,257,-43
9442.195,297,302,296,312,-16316,-684,2936,144,257,-43
9448.096,297,302,296,313,-16316,-684,2936,144,257,-43
9453.187,296,301,295,314,-16316,-684,2936,144,257,-43
9453.187,297,302,296,315,-16244,-672,2968,18,224,27
9464.93,297,302,296,316,-16244,-672,2968,18,224,27
9473.884999999998,296,302,295,317,-16244,-672,2968,18,224,27
9475.776,296,302,295,319,-16244,-672,2968,18,224,27
9480.527,297,302,295,320,-16244,-672,2968,18,224,27
9486.152,299,301,295,320,-16244,-672,2968,18,224,27
9493.979,299,301,296,321,-16244,-672,2968,18,224,27
9498.101,299,302,296,321,-16400,-468,2948,183,168,64
9508.371000000001,299,301,295,323,-16400,-468,2948,183,168,64
9509.094,299,301,295,323,-16400,-468,2948,183,168,64
9509.094,299,301,295,323,-16400,-468,2948,183,168,64
9520.735999999999,299,301,295,324,-16400,-468,2948,183,168,64
9526.345,300,300,295,324,-16400,-468,2948,183,168,64
9530.73,300,300,295,324,-16400,-468,2948,183,168,64
9535.044,300,300,295,324,-16300,-576,2916,161,92,-57
9543.030999999999,300,299,295,325,-16300,-576,2916,161,92,-57
9552.802,300,299,295,326,-16300,-576,2916,161,92,-57
9553.498,300,299,294,326,-16300,-576,2916,161,92,-57
9558.709,300,299,295,326,-16300,-576,2916,161,92,-57
9564.326,301,299,295,326,-16300,-576,2916,161,92,-57
9570.96,301,299,295,326,-16300,-576,2916,161,92,-57
9575.789999999999,301,299,295,327,-16328,-648,2844,95,167,-14
9586.166000000001,301,299,295,326,-16328,-648,2844,95,167,-14
9587.712,301,299,294,327,-16328,-648,2844,95,167,-14
9597.384999999998,301,300,295,327,-16328,-648,2844,95,167,-14
9599.302,301,299,295,327,-16328,-648,2844,95,167,-14
9599.302,301,299,295,328,-16328,-648,2844,95,167,-14
9609.5,301,298,295,327,-16328,-648,2844,95,167,-14
9616.12,302,298,295,327,-16328,-648,2844,95,167,-14
9620.366,302,298,296,328,-16340,-564,3008,52,82,-67
9630.553000000002,303,298,295,328,-16340,-564,3008,52,82,-67
9631.225,302,298,295,329,-16340,-564,3008,52,82,-67
9642.714,302,298,296,328,-16340,-564,3008,52,82,-67
9642.714,302,298,296,327,-16340,-564,3008,52,82,-67
9648.219,302,298,296,327,-16340,-564,3008,52,82,-67
9659.378,302,298,296,327,-16340,-564,3008,52,82,-67
9662.938,302,297,296,328,-16340,-648,3016,18,199,-58
9667.41,303,298,296,327,-16340,-648,3016,18,199,-58
9676.008,303,298,296,328,-16340,-648,3016,18,199,-58
9679.241,302,297,295,327,-16340,-648,3016,18,199,-58
9681.766,302,299,295,328,-16340,-648,3016,18,199,-58
9686.24,302,299,295,327,-16340,-648,3016,18,199,-58
9693.469000000001,301,298,295,326,-16340,-648,3016,18,199,-58
9697.979,302,298,295,326,-16380,-712,2996,99,223,-44
9708.333,302,298,295,327,-16380,-712,2996,99,223,-44
9709.847,303,298,294,327,-16380,-712,2996,99,223,-44
9719.963,303,297,294,327,-16380,-712,2996,99,223,-44
9719.963,302,298,295,327,-16380,-712,2996,99,223,-44
9727.261,302,298,295,327,-16380,-712,2996,99,223,-44
9731.342,303,299,295,328,-16380,-712,2996,99,223,-44
9739.131000000001,302,298,295,328,-16368,-784,2940,40,274,65
9744.332999999999,303,299,295,328,-16368,-784,2940,40,274,65
9753.152,302,299,295,328,-16368,-784,2940,40,274,65
9753.152,302,300,295,328,-16368,-784,2940,40,274,65
9764.302000000001,302,299,295,328,-16368,-784,2940,40,274,65
9764.302000000001,302,299,295,327,-16368,-784,2940,40,274,65
9772.804,303,299,294,327,-16368,-784,2940,40,274,65
9776.128999999999,302,299,295,327,-16304,-600,2776,34,204,73
9786.552,303,299,295,325,-16304,-600,2776,34,204,73
9786.806,304,299,295,325,-16304,-600,2776,34,204,73
9797.955999999998,304,298,295,325,-16304,-600,2776,34,204,73
9797.955999999998,304,299,295,325,-16304,-600,2776,34,204,73
9804.477,304,299,295,325,-16304,-600,2776,34,204,73
9809.170999999998,304,299,295,325,-16304,-600,2776,34,204,73
9816.983,304,299,295,324,-16304,-600,2776,34,204,73
9820.199,303,299,296,325,-16448,-576,2960,-53,158,-8
9831.261,304,299,296,325,-16448,-576,2960,-53,158,-8
9831.261,303,300,296,325,-16448,-576,2960,-53,158,-8
9841.806999999999,303,299,296,325,-16448,-576,2960,-53,158,-8
9844.899,303,299,296,325,-16448,-576,2960,-53,158,-8
9844.899,302,299,296,325,-16448,-576,2960,-53,158,-8
9854.552,303,299,296,325,-16448,-576,2960,-53,158,-8
9861.849,304,300,296,325,-16368,-536,2888,-75,203,60
9865.18,304,300,296,324,-16368,-536,2888,-75,203,60
9875.512999999999,305,299,295,325,-16368,-536,2888,-75,203,60
9877.921,304,299,296,324,-16368,-536,2888,-75,203,60
9887.655,305,299,295,324,-16368,-536,2888,-75,203,60
9887.655,303,299,295,324,-16368,-536,2888,-75,203,60
9896.44,304,300,295,324,-16368,-536,2888,-75,203,60
9901.814,304,300,296,323,-16332,-528,2820,-118,186,-27
9909.024000000001,305,301,296,322,-16332,-528,2820,-118,186,-27
9917.163999999999,304,301,296,322,-16332,-528,2820,-118,186,-27
9920.266,305,301,296,321,-16332,-528,2820,-118,186,-27
9928.316,303,300,296,321,-16332,-528,2820,-118,186,-27
9931.234,303,299,295,321,-16332,-528,2820,-118,186,-27
9935.548999999999,303,300,296,320,-16332,-528,2820,-118,186,-27
9942.355,303,301,296,321,-16336,-728,2740,-229,243,-7
9947.660000000002,303,301,296,320,-16336,-728,2740,-229,243,-7
9952.896,304,301,295,320,-16336,-728,2740,-229,243,-7
9959.65,303,300,296,320,-16336,-728,2740,-229,243,-7
9964.044,304,300,295,319,-16336,-728,2740,-229,243,-7
9967.866,304,300,295,320,-16336,-728,2740,-229,243,-7
9976.539,303,301,295,320,-16336,-728,2740,-229,243,-7
9986.796999999999,303,300,295,320,-16324,-688,2564,-11,126,28
9987.777,303,301,295,321,-16324,-688,2564,-11,126,28
9992.521,304,301,295,321,-16324,-688,2564,-11,126,28
9997.585000000001,304,300,296,321,-16324,-688,2564,-11,126,28
10005.534000000001,304,300,296,322,-16324,-688,2564,-11,126,28
10008.951,304,298,295,321,-16324,-688,2564,-11,126,28
10013.615,304,295,296,322,-16324,-688,2564,-11,126,28
10020.615,304,290,297,321,-16408,-640,2696,-89,22,4
10031.679,304,286,297,321,-16408,-640,2696,-89,22,4
10031.679,304,283,297,322,-16408,-640,2696,-89,22,4
10037.82,304,281,298,322,-16408,-640,2696,-89,22,4
10042.490000000002,305,279,299,321,-16408,-640,2696,-89,22,4
10052.861,304,279,299,321,-16408,-640,2696,-89,22,4
10054.37,303,278,300,321,-16408,-640,2696,-89,22,4
10054.37,305,278,300,320,-16296,-468,2796,27,0,73
10064.681999999999,304,278,299,320,-16296,-468,2796,27,0,73
10072.749,304,279,300,319,-16296,-468,2796,27,0,73
10075.035,304,280,299,319,-16296,-468,2796,27,0,73
10078.47,304,282,300,319,-16296,-468,2796,27,0,73
10086.746,305,283,299,319,-16296,-468,2796,27,0,73
10090.880000000001,306,284,299,319,-16296,-468,2796,27,0,73
10097.841,305,285,300,319,-16296,-468,2796,27,0,73
10097.841,306,286,299,320,-16360,-456,2820,92,13,-43
10109.032,306,288,299,319,-16360,-456,2820,92,13,-43
10109.032,306,289,300,319,-16360,-456,2820,92,13,-43
10120.350999999999,306,289,299,319,-16360,-456,2820,92,13,-43
10120.350999999999,306,291,299,320,-16360,-456,2820,92,13,-43
10130.899,307,292,299,320,-16360,-456,2820,92,13,-43
10131.587,307,292,299,320,-16360,-456,2820,92,13,-43
10142.36,307,293,299,321,-16400,-624,2796,-19,36,-32
10150.452,307,295,299,320,-16400,-624,2796,-19,36,-32
10153.455,306,295,299,320,-16400,-624,2796,-19,36,-32
10153.455,306,297,299,320,-16400,-624,2796,-19,36,-32
10164.883,306,297,298,319,-16400,-624,2796,-19,36,-32
10168.666,306,298,299,318,-16400,-624,2796,-19,36,-32
10176.081,307,300,298,318,-16400,-624,2796,-19,36,-32
10176.081,307,300,299,317,-16312,-532,2804,-47,118,55
10186.93,306,301,298,316,-16312,-532,2804,-47,118,55
10194.991999999998,305,301,298,314,-16312,-532,2804,-47,118,55
10197.934,304,301,299,313,-16312,-532,2804,-47,118,55
10197.934,305,302,299,313,-16312,-532,2804,-47,118,55
10209.217,305,304,299,312,-16312,-532,2804,-47,118,55
10214.354,305,304,299,311,-16312,-532,2804,-47,118,55
10219.573,305,304,299,311,-16424,-600,2652,-172,98,17
10222.333,305,304,299,311,-16424,-600,2652,-172,98,17
10231.173,304,305,299,310,-16424,-600,2652,-172,98,17
10231.173,304,306,299,311,-16424,-600,2652,-172,98,17
10242.496,304,306,299,312,-16424,-600,2652,-172,98,17
10246.742,304,306,299,312,-16424,-600,2652,-172,98,17
10254.101,303,306,299,312,-16424,-600,2652,-172,98,17
10259.02,304,305,299,312,-16364,-568,2808,-119,24,136
10264.023,305,306,299,313,-16364,-568,2808,-119,24,136
10270.693,305,306,298,313,-16364,-568,2808,-119,24,136
10275.145,304,306,299,313,-16364,-568,2808,-119,24,136
10285.794,304,305,298,314,-16364,-568,2808,-119,24,136
10286.654,304,305,298,314,-16364,-568,2808,-119,24,136
10298.269,304,306,298,314,-16364,-568,2808,-119,24,136
10298.269,305,305,298,315,-16400,-436,2824,196,75,53
10304.627999999999,306,306,298,314,-16400,-436,2824,196,75,53
10309.071,305,306,298,314,-16400,-436,2824,196,75,53
10316.327,306,306,298,315,-16400,-436,2824,196,75,53
10320.615,304,305,297,315,-16400,-436,2824,196,75,53
10331.0,304,306,297,315,-16400,-436,2824,196,75,53
10332.213,304,305,297,315,-16400,-436,2824,196,75,53
10332.213,305,306,297,316,-16400,-436,2824,196,75,53
10342.689,305,306,297,316,-16372,-564,2880,104,166,25
10349.256000000001,306,306,297,315,-16372,-564,2880,104,166,25
10353.613,305,305,297,316,-16372,-564,2880,104,166,25
10363.916,305,306,298,315,-16372,-564,2880,104,166,25
10364.521999999999,305,306,298,315,-16372,-564,2880,104,166,25
10376.217,304,305,298,314,-16372,-564,2880,104,166,25
10376.217,305,305,298,314,-16372,-564,2880,104,166,25
10382.671,304,306,298,313,-16412,-684,2792,19,175,161
10386.977,306,306,297,313,-16412,-684,2792,19,175,161
10394.36,306,306,297,314,-16412,-684,2792,19,175,161
10398.617,305,307,298,314,-16412,-684,2792,19,175,161
10408.783,305,306,298,314,-16412,-684,2792,19,175,161
10408.783,305,307,298,314,-16412,-684,2792,19,175,161
10420.242999999999,305,306,298,314,-16412,-684,2792,19,175,161
10422.883,304,305,299,314,-16368,-412,2748,-57,146,85
10422.883,304,304,299,313,-16368,-412,2748,-57,146,85
10432.738000000001,303,304,299,312,-16368,-412,2748,-57,146,85
10441.739,303,304,300,313,-16368,-412,2748,-57,146,85
10442.387,303,304,300,313,-16368,-412,2748,-57,146,85
10453.298999999999,303,304,300,313,-16368,-412,2748,-57,146,85
10453.298999999999,303,303,300,313,-16368,-412,2748,-57,146,85
10464.228000000001,301,302,301,313,-16408,-592,2552,-130,149,135
10464.228000000001,302,302,300,313,-16408,-592,2552,-130,149,135
10475.321,301,302,301,314,-16408,-592,2552,-130,149,135
10475.321,301,301,301,314,-16408,-592,2552,-130,149,135
10487.203,301,301,301,313,-16408,-592,2552,-130,149,135
10487.203,300,301,301,314,-16408,-592,2552,-130,149,135
10497.635,300,301,303,313,-16408,-592,2552,-130,149,135
10497.635,300,301,302,314,-16344,-588,2552,107,-54,196
10509.956,300,301,302,314,-16344,-588,2552,107,-54,196
10518.770999999999,300,301,303,314,-16344,-588,2552,107,-54,196
10520.255000000001,299,301,303,316,-16344,-588,2552,107,-54,196
10525.976,298,302,302,317,-16344,-588,2552,107,-54,196
10530.541,297,301,303,317,-16344,-588,2552,107,-54,196
10537.894,297,300,303,319,-16344,-588,2552,107,-54,196
10542.502,295,300,302,321,-16356,-484,2696,285,-5,201
10549.896999999999,296,301,301,324,-16356,-484,2696,285,-5,201
10553.667000000001,296,301,301,325,-16356,-484,2696,285,-5,201
10564.332,299,301,301,329,-16356,-484,2696,285,-5,201
10565.782000000001,301,300,299,332,-16356,-484,2696,285,-5,201
10565.782000000001,303,300,299,334,-16356,-484,2696,285,-5,201
10576.016,302,299,299,337,-16356,-484,2696,285,-5,201
10582.746000000001,302,299,299,338,-16376,-308,2684,772,-140,165
10586.815,301,297,298,340,-16376,-308,2684,772,-140,165
10597.457,301,297,299,341,-16376,-308,2684,772,-140,165
10598.395,300,298,298,343,-16376,-308,2684,772,-140,165
10609.269,300,299,298,344,-16376,-308,2684,772,-140,165
10609.269,298,300,298,344,-16376,-308,2684,772,-140,165
10620.146999999999,298,301,298,344,-16376,-308,2684,772,-140,165
10623.097,297,301,298,344,-16416,-208,2776,630,-66,-44
10632.323,297,301,297,341,-16416,-208,2776,630,-66,-44
10632.323,296,300,298,340,-16416,-208,2776,630,-66,-44
10642.307999999999,296,300,298,339,-16416,-208,2776,630,-66,-44
10650.382,297,301,298,338,-16416,-208,2776,630,-66,-44
10653.39,298,302,297,337,-16416,-208,2776,630,-66,-44
10661.425,298,302,298,336,-16416,-208,2776,630,-66,-44
10664.498,298,301,297,335,-16364,-392,2712,308,166,62
10664.498,297,302,297,333,-16364,-392,2712,308,166,62
10675.034,298,302,297,332,-16364,-392,2712,308,166,62
10681.017,300,302,297,331,-16364,-392,2712,308,166,62
10686.529999999999,301,302,297,331,-16364,-392,2712,308,166,62
10692.99,304,304,296,329,-16364,-392,2712,308,166,62
10697.908,303,303,296,328,-16364,-392,2712,308,166,62
10701.117999999999,304,304,296,327,-16420,-408,2620,100,131,52
10709.538,304,305,296,325,-16420,-408,2620,100,131,52
10709.538,304,305,295,324,-16420,-408,2620,100,131,52
10720.286,305,305,296,322,-16420,-408,2620,100,131,52
10726.889,305,305,295,319,-16420,-408,2620,100,131,52
10731.412,305,304,294,318,-16420,-408,2620,100,131,52
10738.179,305,303,295,315,-16420,-408,2620,100,131,52
10742.456,307,303,295,314,-16384,-452,2720,-91,115,-64
10752.576,306,304,294,313,-16384,-452,2720,-91,115,-64
10753.875,307,304,294,311,-16384,-452,2720,-91,115,-64
10764.247,307,305,294,309,-16384,-452,2720,-91,115,-64
10764.247,306,304,294,307,-16384,-452,2720,-91,115,-64
10771.488,307,305,294,306,-16384,-452,2720,-91,115,-64
10775.796,307,306,294,306,-16384,-452,2720,-91,115,-64
10783.348,309,306,294,305,-16392,-440,2524,186,100,17
10787.427,308,307,293,304,-16392,-440,2524,186,100,17
10797.841,308,307,293,304,-16392,-440,2524,186,100,17
10797.841,307,306,294,304,-16392,-440,2524,186,100,17
10808.488000000001,307,306,294,304,-16392,-440,2524,186,100,17
10808.488000000001,307,305,293,304,-16392,-440,2524,186,100,17
10816.824999999999,309,304,294,303,-16392,-440,2524,186,100,17
10821.277,308,304,294,304,-16392,-268,2632,-31,9,-145
10830.634999999998,307,304,294,304,-16392,-268,2632,-31,9,-145
10831.382,306,304,294,303,-16392,-268,2632,-31,9,-145
10842.542,306,304,294,304,-16392,-268,2632,-31,9,-145
10842.542,306,304,294,303,-16392,-268,2632,-31,9,-145
10853.826,306,303,294,303,-16392,-268,2632,-31,9,-145
10857.777,307,304,295,303,-16392,-268,2632,-31,9,-145
10864.458,308,304,295,303,-16568,-572,2792,-252,374,-30
10868.591,307,303,294,302,-16568,-572,2792,-252,374,-30
10875.394999999999,307,303,295,302,-16568,-572,2792,-252,374,-30
10877.601,307,303,295,301,-16568,-572,2792,-252,374,-30
10887.126,307,304,295,302,-16568,-572,2792,-252,374,-30
10895.194,308,304,295,302,-16568,-572,2792,-252,374,-30
10898.16,308,304,296,302,-16568,-572,2792,-252,374,-30
10908.421,308,303,295,301,-16312,-484,2504,-386,46,-3
10908.421,308,302,295,301,-16312,-484,2504,-386,46,-3
10908.421,308,304,296,299,-16312,-484,2504,-386,46,-3
10920.258,308,304,296,300,-16312,-484,2504,-386,46,-3
10926.765,308,305,296,301,-16312,-484,2504,-386,46,-3
10932.636999999999,308,305,297,301,-16312,-484,2504,-386,46,-3
10934.411,308,304,297,301,-16312,-484,2504,-386,46,-3
10943.506,308,303,297,301,-16448,-316,2652,-277,51,-59
10952.811,308,303,298,301,-16448,-316,2652,-277,51,-59
10954.796999999999,308,303,298,301,-16448,-316,2652,-277,51,-59
10954.796999999999,308,304,299,301,-16448,-316,2652,-277,51,-59
10963.793000000001,308,304,299,301,-16448,-316,2652,-277,51,-59
10971.396999999999,308,304,298,301,-16448,-316,2652,-277,51,-59
10976.292000000001,308,304,299,302,-16448,-316,2652,-277,51,-59
10986.571,308,302,299,302,-16400,-452,2612,95,81,-94
10987.215,309,302,299,302,-16400,-452,2612,95,81,-94
10997.627,308,303,299,301,-16400,-452,2612,95,81,-94
11000.092999999999,308,302,299,301,-16400,-452,2612,95,81,-94
11000.092999999999,309,302,299,301,-16400,-452,2612,95,81,-94
11009.650000000001,309,302,299,301,-16400,-452,2612,95,81,-94
11016.756000000001,309,302,299,302,-16400,-452,2612,95,81,-94
11020.608,309,303,299,302,-16396,-448,2460,218,49,3
11031.246,309,303,299,302,-16396,-448,2460,218,49,3
11035.587,308,303,299,302,-16396,-448,2460,218,49,3
11040.115,308,304,300,303,-16396,-448,2460,218,49,3
11047.867999999999,308,304,300,303,-16396,-448,2460,218,49,3
11051.619,307,304,300,302,-16396,-448,2460,218,49,3
11054.025,307,304,300,303,-16396,-448,2460,218,49,3
11058.045999999998,307,304,300,303,-16396,-448,2460,218,49,3
11065.533,307,305,301,303,-16456,-528,2456,3,4,-83
11070.282000000001,307,303,300,303,-16456,-528,2456,3,4,-83
11075.144,307,303,301,303,-16456,-528,2456,3,4,-83
11078.049,308,304,301,303,-16456,-528,2456,3,4,-83
11086.483,307,304,301,303,-16456,-528,2456,3,4,-83
11086.483,307,304,301,304,-16456,-528,2456,3,4,-83
11098.537,307,304,300,304,-16456,-528,2456,3,4,-83
11098.537,307,304,301,304,-16472,-456,2636,-10,56,-19
11109.012999999999,307,304,301,304,-16472,-456,2636,-10,56,-19
11117.056,307,303,300,304,-16472,-456,2636,-10,56,-19
11120.774000000001,307,303,301,304,-16472,-456,2636,-10,56,-19
11123.785,309,304,300,305,-16472,-456,2636,-10,56,-19
11131.539,307,305,300,304,-16472,-456,2636,-10,56,-19
11131.539,307,304,300,305,-16472,-456,2636,-10,56,-19
11142.386999999999,307,304,300,306,-16344,-512,2464,-66,93,-102
11147.921,307,303,300,306,-16344,-512,2464,-66,93,-102
11153.006,306,304,300,306,-16344,-512,2464,-66,93,-102
11153.006,307,304,300,306,-16344,-512,2464,-66,93,-102
11164.748,307,303,300,306,-16344,-512,2464,-66,93,-102
11168.571,307,303,300,306,-16344,-512,2464,-66,93,-102
11175.98,306,303,300,306,-16344,-512,2464,-66,93,-102
11187.105000000001,306,302,300,307,-16416,-544,2572,-35,241,-126
11187.466,306,302,300,305,-16416,-544,2572,-35,241,-126
11192.954,306,302,300,306,-16416,-544,2572,-35,241,-126
11197.397,308,302,300,307,-16416,-544,2572,-35,241,-126
11205.678,307,302,300,307,-16416,-544,2572,-35,241,-126
11209.03,307,302,300,307,-16416,-544,2572,-35,241,-126
11217.548,307,302,301,307,-16416,-544,2572,-35,241,-126
11221.187,307,302,300,308,-16320,-544,2484,233,196,-132
11231.38,306,303,300,308,-16320,-544,2484,233,196,-132
11239.464,306,302,299,307,-16320,-544,2484,233,196,-132
11242.331999999999,307,303,300,308,-16320,-544,2484,233,196,-132
11245.519,307,303,300,308,-16320,-544,2484,233,196,-132
11253.131,306,303,300,308,-16320,-544,2484,233,196,-132
11258.587,306,303,300,307,-16320,-544,2484,233,196,-132
11264.256,306,303,301,308,-16508,-452,2608,161,131,-87
11270.323,305,303,300,308,-16508,-452,2608,161,131,-87
11275.232,305,303,300,308,-16508,-452,2608,161,131,-87
11275.232,306,303,301,308,-16508,-452,2608,161,131,-87
11287.419999999998,305,302,300,308,-16508,-452,2608,161,131,-87
11290.657,304,302,300,308,-16508,-452,2608,161,131,-87
11298.266,304,303,301,308,-16508,-452,2608,161,131,-87
11303.845000000001,304,303,301,308,-16396,-724,2420,-83,80,41
11308.493,304,303,300,308,-16396,-724,2420,-83,80,41
11315.479,303,303,301,308,-16396,-724,2420,-83,80,41
11321.707999999999,303,303,301,309,-16396,-724,2420,-83,80,41
11330.379,303,303,300,309,-16396,-724,2420,-83,80,41
11331.497000000001,303,302,300,308,-16396,-724,2420,-83,80,41
11342.212,303,303,301,309,-16396,-724,2420,-83,80,41
11342.212,303,302,300,310,-16468,-396,2560,-234,94,-34
11348.856,302,302,300,309,-16468,-396,2560,-234,94,-34
11353.67,302,302,300,309,-16468,-396,2560,-234,94,-34
11360.92,302,302,300,309,-16468,-396,2560,-234,94,-34
11364.929,302,301,300,309,-16468,-396,2560,-234,94,-34
11375.837000000001,302,301,300,309,-16468,-396,2560,-234,94,-34
11375.837000000001,303,301,300,309,-16468,-396,2560,-234,94,-34
11386.65,304,301,300,309,-16464,-476,2452,-179,114,56
11386.65,303,300,300,309,-16464,-476,2452,-179,114,56
11398.079,303,300,300,310,-16464,-476,2452,-179,114,56
11401.856,303,299,301,311,-16464,-476,2452,-179,114,56
11409.458,303,299,300,310,-16464,-476,2452,-179,114,56
11410.444,304,298,300,310,-16464,-476,2452,-179,114,56
11420.347,304,299,301,311,-16464,-476,2452,-179,114,56
11428.437,304,298,301,311,-16444,-404,2480,144,69,21
11431.331,302,299,301,309,-16444,-404,2480,144,69,21
11431.331,302,300,302,309,-16444,-404,2480,144,69,21
11444.985,302,300,302,310,-16444,-404,2480,144,69,21
11446.926,303,300,302,310,-16444,-404,2480,144,69,21
11453.363,303,301,302,309,-16444,-404,2480,144,69,21
11454.829,303,301,302,310,-16444,-404,2480,144,69,21
11464.756,304,300,302,310,-16368,-496,2440,218,27,51
11464.756,305,301,302,309,-16368,-496,2440,218,27,51
11475.847,304,302,302,308,-16368,-496,2440,218,27,51
11479.47,304,300,302,308,-16368,-496,2440,218,27,51
11486.99,304,301,302,309,-16368,-496,2440,218,27,51
11488.092999999999,305,302,302,308,-16368,-496,2440,218,27,51
11497.907,305,302,303,308,-16368,-496,2440,218,27,51
11497.907,305,302,303,308,-16416,-548,2356,-36,69,46
11509.453000000001,304,302,302,308,-16416,-548,2356,-36,69,46
11512.402,305,302,302,308,-16416,-548,2356,-36,69,46
11512.402,304,303,303,309,-16416,-548,2356,-36,69,46
11521.304,304,303,303,308,-16416,-548,2356,-36,69,46
11531.366,304,303,303,308,-16416,-548,2356,-36,69,46
11531.366,304,303,303,309,-16416,-548,2356,-36,69,46
11542.574999999999,305,302,303,309,-16416,-548,2356,-36,69,46
11545.24,305,302,303,309,-16376,-412,2444,-136,137,-3
11554.675,306,301,303,309,-16376,-412,2444,-136,137,-3
11554.675,306,301,303,310,-16376,-412,2444,-136,137,-3
11563.984,306,302,304,309,-16376,-412,2444,-136,137,-3
11564.619,306,301,303,309,-16376,-412,2444,-136,137,-3
11575.618999999999,306,301,303,309,-16376,-412,2444,-136,137,-3
11583.658,306,301,304,309,-16376,-412,2444,-136,137,-3
11586.919,306,301,303,309,-16424,-400,2524,125,7,138
11589.511999999999,306,301,303,309,-16424,-400,2524,125,7,138
11598.426,307,301,303,309,-16424,-400,2524,125,7,138
11601.686000000002,305,301,302,309,-16424,-400,2524,125,7,138
11608.835,304,301,303,309,-16424,-400,2524,125,7,138
11608.835,304,300,302,308,-16424,-400,2524,125,7,138
11620.256,304,301,302,308,-16424,-400,2524,125,7,138
11620.256,304,302,302,308,-16344,-356,2460,419,-18,75
11631.661,305,303,302,308,-16344,-356,2460,419,-18,75
11635.822,305,304,302,308,-16344,-356,2460,419,-18,75
11642.529,306,304,302,308,-16344,-356,2460,419,-18,75
11646.81,306,306,302,308,-16344,-356,2460,419,-18,75
11652.813,305,305,301,307,-16344,-356,2460,419,-18,75
11652.813,306,306,302,308,-16344,-356,2460,419,-18,75
11664.586,306,306,301,308,-16416,-388,2548,363,67,-72
11673.246000000001,308,306,301,308,-16416,-388,2548,363,67,-72
11675.839,307,305,302,308,-16416,-388,2548,363,67,-72
11680.918,307,304,302,309,-16416,-388,2548,363,67,-72
11687.152,306,304,302,308,-16416,-388,2548,363,67,-72
11692.769999999999,306,304,302,309,-16416,-388,2548,363,67,-72
11697.371000000001,306,304,302,309,-16416,-388,2548,363,67,-72
11700.568000000001,306,304,302,309,-16340,-388,2316,268,114,27
11709.015000000001,307,304,302,310,-16340,-388,2316,268,114,27
11719.407000000001,306,303,302,310,-16340,-388,2316,268,114,27
11720.684000000001,306,302,302,310,-16340,-388,2316,268,114,27
11725.486,306,302,303,310,-16340,-388,2316,268,114,27
11730.530999999999,306,303,302,310,-16340,-388,2316,268,114,27
11737.898,305,304,303,310,-16340,-388,2316,268,114,27
11742.404,305,303,303,310,-16468,-380,2380,-62,-22,-66
11752.819000000001,304,303,302,310,-16468,-380,2380,-62,-22,-66
11753.472,304,303,302,310,-16468,-380,2380,-62,-22,-66
11764.628999999999,305,302,302,309,-16468,-380,2380,-62,-22,-66
11765.389000000001,304,302,302,309,-16468,-380,2380,-62,-22,-66
11769.898,303,303,302,309,-16468,-380,2380,-62,-22,-66
11775.251,303,303,302,309,-16468,-380,2380,-62,-22,-66
11783.286,304,303,302,309,-16364,-408,2384,-109,20,-30
11787.483,304,303,302,309,-16364,-408,2384,-109,20,-30
11797.596,304,303,302,308,-16364,-408,2384,-109,20,-30
11798.373,304,303,302,310,-16364,-408,2384,-109,20,-30
11809.215999999999,305,304,302,311,-16364,-408,2384,-109,20,-30
11809.215999999999,304,304,301,310,-16364,-408,2384,-109,20,-30
11820.286,304,305,301,311,-16364,-408,2384,-109,20,-30
11820.286,303,304,301,311,-16444,-324,2596,228,-94,-25
11831.392,304,305,301,311,-16444,-324,2596,228,-94,-25
11835.829,304,305,301,311,-16444,-324,2596,228,-94,-25
11842.184,304,304,301,311,-16444,-324,2596,228,-94,-25
11842.184,304,304,300,310,-16444,-324,2596,228,-94,-25
11853.231,304,304,300,311,-16444,-324,2596,228,-94,-25
11861.269,304,303,301,311,-16444,-324,2596,228,-94,-25
11864.577000000001,305,302,301,311,-16396,-444,2500,86,37,-86
11864.577000000001,305,302,300,311,-16396,-444,2500,86,37,-86
11874.961000000001,305,302,300,311,-16396,-444,2500,86,37,-86
11880.974999999999,305,303,300,311,-16396,-444,2500,86,37,-86
11887.665,305,302,300,311,-16396,-444,2500,86,37,-86
11888.849,305,302,300,310,-16396,-444,2500,86,37,-86
11897.278999999999,305,302,301,311,-16396,-444,2500,86,37,-86
11897.278999999999,305,302,301,311,-16448,-424,2492,92,61,-37
11909.528,305,301,301,311,-16448,-424,2492,92,61,-37
11909.528,305,302,301,312,-16448,-424,2492,92,61,-37
11920.027,304,302,301,312,-16448,-424,2492,92,61,-37
11928.081,306,301,301,311,-16448,-424,2492,92,61,-37
11931.888,305,302,301,311,-16448,-424,2492,92,61,-37
11933.574,306,302,302,312,-16448,-424,2492,92,61,-37
11942.211000000001,305,302,302,312,-16448,-424,2492,92,61,-37
11945.968,305,302,302,312,-16340,-448,2416,-87,89,66
11952.880000000001,305,302,301,310,-16340,-448,2416,-87,89,66
11952.880000000001,305,302,302,311,-16340,-448,2416,-87,89,66
11964.419,305,302,302,311,-16340,-448,2416,-87,89,66
11969.429999999998,306,303,302,311,-16340,-448,2416,-87,89,66
11975.525,305,302,302,311,-16340,-448,2416,-87,89,66
11975.525,306,302,302,311,-16340,-448,2416,-87,89,66
11987.713,305,302,302,311,-16560,-316,2524,-26,42,63
11991.466,304,302,302,311,-16560,-316,2524,-26,42,63
11998.433,304,302,302,311,-16560,-316,2524,-26,42,63
11999.541000000001,304,302,303,310,-16560,-316,2524,-26,42,63
12009.259,303,303,303,310,-16560,-316,2524,-26,42,63
12009.259,304,302,302,310,-16560,-316,2524,-26,42,63
12020.339,303,303,303,310,-16560,-316,2524,-26,42,63
12020.339,304,303,302,310,-16348,-428,2336,125,81,29
12031.344000000001,302,302,302,310,-16348,-428,2336,125,81,29
12031.344000000001,302,302,302,310,-16348,-428,2336,125,81,29
12042.716,303,303,303,309,-16348,-428,2336,125,81,29
12044.713,302,303,302,308,-16348,-428,2336,125,81,29
12054.704,303,302,302,309,-16348,-428,2336,125,81,29
12054.704,304,302,302,310,-16348,-428,2336,125,81,29
12063.993999999999,303,302,303,309,-16348,-428,2336,125,81,29
12064.970000000001,304,302,302,309,-16468,-456,2428,541,-44,206
12075.11,303,302,302,308,-16468,-456,2428,541,-44,206
12075.11,302,301,302,309,-16468,-456,2428,541,-44,206
12087.961,302,302,303,309,-16468,-456,2428,541,-44,206
12087.961,302,302,302,310,-16468,-456,2428,541,-44,206
12098.302,303,303,303,310,-16468,-456,2428,541,-44,206
12102.668,303,303,302,310,-16468,-456,2428,541,-44,206
12109.538,301,303,302,310,-16420,-284,2456,769,-183,-134
12113.810000000001,300,304,303,310,-16420,-284,2456,769,-183,-134
12119.613,301,303,302,311,-16420,-284,2456,769,-183,-134
12127.006,300,303,302,310,-16420,-284,2456,769,-183,-134
12137.407,300,303,302,310,-16420,-284,2456,769,-183,-134
12138.567000000001,301,303,302,310,-16420,-284,2456,769,-183,-134
12142.742,301,303,302,309,-16428,-460,2440,228,142,-57
12153.75,301,303,301,309,-16428,-460,2440,228,142,-57
12154.600999999999,300,303,302,309,-16428,-460,2440,228,142,-57
12163.893,301,303,302,309,-16428,-460,2440,228,142,-57
12170.275,301,303,301,309,-16428,-460,2440,228,142,-57
12170.275,302,303,301,309,-16428,-460,2440,228,142,-57
12174.998,303,303,301,309,-16428,-460,2440,228,142,-57
12186.921999999999,303,303,302,309,-16336,-760,1892,-77,-76,325
12187.929,304,303,301,309,-16336,-760,1892,-77,-76,325
12198.068,304,303,302,309,-16336,-760,1892,-77,-76,325
12206.137999999999,303,303,302,309,-16336,-760,1892,-77,-76,325
12208.921,304,303,302,309,-16336,-760,1892,-77,-76,325
12208.921,303,303,302,309,-16336,-760,1892,-77,-76,325
12221.317000000001,303,303,304,309,-16336,-760,1892,-77,-76,325
12224.696,304,302,304,309,-16364,-1284,1704,-465,-304,758
12230.734,302,302,304,309,-16364,-1284,1704,-465,-304,758
12237.793,301,302,305,309,-16364,-1284,1704,-465,-304,758
12242.388,301,302,305,309,-16364,-1284,1704,-465,-304,758
12249.980000000001,301,302,305,310,-16364,-1284,1704,-465,-304,758
12253.577,300,302,305,313,-16364,-1284,1704,-465,-304,758
12264.729000000001,300,302,306,319,-16364,-1284,1704,-465,-304,758
12264.729000000001,300,302,306,327,-16072,-2508,804,-1197,-729,2039
12275.829,299,302,307,336,-16072,-2508,804,-1197,-729,2039
12283.877999999999,299,302,308,342,-16072,-2508,804,-1197,-729,2039
12288.163,296,302,309,350,-16072,-2508,804,-1197,-729,2039
12297.09,287,301,310,363,-16072,-2508,804,-1197,-729,2039
12298.374000000002,274,300,312,378,-16072,-2508,804,-1197,-729,2039
12309.016,261,299,314,393,-16212,-2856,1052,-2175,-1786,4081
12309.016,245,298,316,410,-16212,-2856,1052,-2175,-1786,4081
12319.988000000001,230,297,317,425,-16212,-2856,1052,-2175,-1786,4081
12328.515,217,294,320,439,-16212,-2856,1052,-2175,-1786,4081
12331.253,204,284,324,450,-16212,-2856,1052,-2175,-1786,4081
12342.337000000001,197,275,327,459,-16212,-2856,1052,-2175,-1786,4081
12342.337000000001,193,269,330,469,-15208,-3792,-1588,-3194,-3572,6927
12353.608,190,264,333,479,-15208,-3792,-1588,-3194,-3572,6927
12361.685,188,261,337,487,-15208,-3792,-1588,-3194,-3572,6927
12364.452,187,260,341,492,-15208,-3792,-1588,-3194,-3572,6927
12368.576,187,261,345,495,-15208,-3792,-1588,-3194,-3572,6927
12375.436,188,265,349,497,-15208,-3792,-1588,-3194,-3572,6927
12387.307,191,273,353,495,-14704,-2148,52,-3683,-8643,10509
12394.598,194,278,356,491,-14704,-2148,52,-3683,-8643,10509
12399.086000000001,196,281,360,486,-14704,-2148,52,-3683,-8643,10509
12407.455,199,287,365,479,-14704,-2148,52,-3683,-8643,10509
12411.998000000001,199,290,366,472,-14704,-2148,52,-3683,-8643,10509
12420.172,201,293,369,467,-14704,-2148,52,-3683,-8643,10509
12421.614,202,295,370,464,-14704,-2148,52,-3683,-8643,10509
12431.4,204,295,368,459,-13892,-1660,-216,-295,-12907,13244
12440.764,207,296,371,453,-13892,-1660,-216,-295,-12907,13244
12442.341,214,295,374,447,-13892,-1660,-216,-295,-12907,13244
12452.908000000001,218,294,375,441,-13892,-1660,-216,-295,-12907,13244
12452.908000000001,222,292,375,432,-13892,-1660,-216,-295,-12907,13244
12464.667000000001,225,291,377,426,-13892,-1660,-216,-295,-12907,13244
12473.064,228,291,379,419,-10428,2380,-784,1594,-19995,14570
12479.533,232,291,382,413,-10428,2380,-784,1594,-19995,14570
12485.818,236,290,384,409,-10428,2380,-784,1594,-19995,14570
12488.182999999999,240,292,384,402,-10428,2380,-784,1594,-19995,14570
12497.487,244,294,382,398,-10428,2380,-784,1594,-19995,14570
12497.487,250,297,377,391,-10428,2380,-784,1594,-19995,14570
12508.731,253,297,376,385,-9340,4920,4848,7359,-25520,20143
12508.731,254,295,371,380,-9340,4920,4848,7359,-25520,20143
12520.452000000001,251,292,367,381,-9340,4920,4848,7359,-25520,20143
12530.341,246,290,350,381,-9340,4920,4848,7359,-25520,20143
12534.511,238,288,335,386,-9340,4920,4848,7359,-25520,20143
12540.544,232,286,324,390,-9340,4920,4848,7359,-25520,20143
12543.427,225,285,313,394,-7312,7340,7152,7430,-29766,19105
12554.303000000002,218,283,301,397,-7312,7340,7152,7430,-29766,19105
12563.269,212,282,291,398,-7312,7340,7152,7430,-29766,19105
12565.597,208,282,286,397,-7312,7340,7152,7430,-29766,19105
12573.831,205,286,284,393,-7312,7340,7152,7430,-29766,19105
12576.498000000001,209,293,290,389,-7312,7340,7152,7430,-29766,19105
12588.127,224,307,305,382,-4832,9276,7716,247,-22028,14342
12596.181,251,318,321,381,-4832,9276,7716,247,-22028,14342
12598.599,285,330,335,383,-4832,9276,7716,247,-22028,14342
12607.774,320,340,342,387,-4832,9276,7716,247,-22028,14342
12610.144999999999,366,347,342,392,-4832,9276,7716,247,-22028,14342
12614.08,402,350,336,394,-4832,9276,7716,247,-22028,14342
12620.823,435,350,331,392,-4832,9276,7716,247,-22028,14342
12631.797,468,350,326,390,-4668,12528,12788,-11944,-18002,12854
12634.473,508,347,325,388,-4668,12528,12788,-11944,-18002,12854
12643.734999999999,528,344,326,389,-4668,12528,12788,-11944,-18002,12854
12652.573999999999,551,341,324,393,-4668,12528,12788,-11944,-18002,12854
12654.517,562,336,322,395,-4668,12528,12788,-11944,-18002,12854
12665.378,575,329,321,399,-4668,12528,12788,-11944,-18002,12854
12673.424,590,319,322,406,-4724,9808,14312,-17860,-19118,11706
12676.508,606,293,326,416,-4724,9808,14312,-17860,-19118,11706
12684.481,614,266,329,425,-4724,9808,14312,-17860,-19118,11706
12688.141,612,240,333,435,-4724,9808,14312,-17860,-19118,11706
12698.726,608,217,336,442,-4724,9808,14312,-17860,-19118,11706
12704.445,604,201,339,449,-4724,9808,14312,-17860,-19118,11706
12709.457,593,184,338,450,-1820,4036,13440,-21861,-16688,7985
12721.384,578,168,342,450,-1820,4036,13440,-21861,-16688,7985
12724.556,564,158,341,448,-1820,4036,13440,-21861,-16688,7985
12732.881000000001,547,153,345,444,-1820,4036,13440,-21861,-16688,7985
12736.4,533,156,347,440,-1820,4036,13440,-21861,-16688,7985
12743.054,520,163,349,434,-1820,4036,13440,-21861,-16688,7985
12754.277999999998,506,173,347,427,-1456,7476,21772,-16367,-13609,2451
12757.536999999998,490,192,344,420,-1456,7476,21772,-16367,-13609,2451
12766.386,472,210,344,415,-1456,7476,21772,-16367,-13609,2451
12774.547999999999,445,229,349,409,-1456,7476,21772,-16367,-13609,2451
12777.028,418,245,350,404,-1456,7476,21772,-16367,-13609,2451
12788.291,389,256,351,401,-1456,7476,21772,-16367,-13609,2451
12788.291,361,289,352,399,-3024,5332,20856,-3465,-8475,663
12798.89,340,313,350,398,-3024,5332,20856,-3465,-8475,663
12802.845,321,335,349,397,-3024,5332,20856,-3465,-8475,663
12809.792,304,355,349,395,-3024,5332,20856,-3465,-8475,663
12814.914,280,376,357,389,-3024,5332,20856,-3465,-8475,663
12820.732,260,389,365,381,-3024,5332,20856,-3465,-8475,663
12826.764000000001,241,400,375,370,-2928,4236,18456,-772,-8405,643
12831.978,216,411,390,354,-2928,4236,18456,-772,-8405,643
12839.147,200,416,399,341,-2928,4236,18456,-772,-8405,643
12843.927000000001,185,419,409,326,-2928,4236,18456,-772,-8405,643
12854.398,174,417,419,307,-2928,4236,18456,-772,-8405,643
12862.783,173,416,427,294,-2928,4236,18456,-772,-8405,643
12867.823,180,410,434,284,-1088,4520,16316,-3159,-7414,1335
12871.878,196,396,445,273,-1088,4520,16316,-3159,-7414,1335
12876.658000000001,215,386,455,266,-1088,4520,16316,-3159,-7414,1335
12884.841,227,382,462,260,-1088,4520,16316,-3159,-7414,1335
12888.242,236,376,464,254,-1088,4520,16316,-3159,-7414,1335
12898.947,246,372,468,250,-1088,4520,16316,-3159,-7414,1335
12907.816,253,371,466,247,-1088,4520,16316,-3159,-7414,1335
12909.854,258,370,462,244,-652,11024,26868,-8846,-2893,-972
12919.096,265,371,455,242,-652,11024,26868,-8846,-2893,-972
12921.321,273,374,448,240,-652,11024,26868,-8846,-2893,-972
12932.098,287,376,434,237,-652,11024,26868,-8846,-2893,-972
12940.364000000001,300,382,420,235,-652,11024,26868,-8846,-2893,-972
12943.749,313,386,404,232,-652,11024,26868,-8846,-2893,-972
12952.309,331,393,382,226,-300,-2280,10944,1837,-327,1426
12954.229,349,397,357,221,-300,-2280,10944,1837,-327,1426
12959.64,368,401,333,214,-300,-2280,10944,1837,-327,1426
12966.098,387,403,310,208,-300,-2280,10944,1837,-327,1426
12976.312,404,405,288,199,-300,-2280,10944,1837,-327,1426
12976.312,421,404,269,188,-300,-2280,10944,1837,-327,1426
12988.419,436,403,249,178,-300,-2280,10944,1837,-327,1426
12988.419,447,401,230,164,-208,5608,17780,3584,-2198,1770
13001.435000000001,458,398,216,155,-208,5608,17780,3584,-2198,1770
13003.284000000001,468,395,202,148,-208,5608,17780,3584,-2198,1770
13010.054,480,392,191,142,-208,5608,17780,3584,-2198,1770
13014.991,488,385,179,138,-208,5608,17780,3584,-2198,1770
13020.802,495,378,164,135,-208,5608,17780,3584,-2198,1770
13027.528999999999,499,373,149,133,-616,4768,15424,3992,-933,-204
13032.597000000002,503,366,133,130,-616,4768,15424,3992,-933,-204
13039.722,507,362,123,130,-616,4768,15424,3992,-933,-204
13043.499,510,360,114,128,-616,4768,15424,3992,-933,-204
13054.587,509,357,106,127,-616,4768,15424,3992,-933,-204
13062.699,501,353,103,127,-616,4768,15424,3992,-933,-204
13065.285,487,350,100,126,-616,4768,15424,3992,-933,-204
13065.285,468,345,100,126,-312,3212,15472,1947,-1451,192
13076.565,444,339,102,127,-312,3212,15472,1947,-1451,192
13081.538999999999,428,335,107,129,-312,3212,15472,1947,-1451,192
13088.501,407,330,112,130,-312,3212,15472,1947,-1451,192
13092.976,383,323,120,132,-312,3212,15472,1947,-1451,192
13098.539999999999,353,316,128,135,-312,3212,15472,1947,-1451,192
13105.151,320,311,136,137,-260,3916,15668,-98,286,-30
13110.326000000001,279,304,147,140,-260,3916,15668,-98,286,-30
13117.756,252,299,156,142,-260,3916,15668,-98,286,-30
13121.093,229,295,164,145,-260,3916,15668,-98,286,-30
13132.251,204,289,172,149,-260,3916,15668,-98,286,-30
13132.251,188,285,180,151,-260,3916,15668,-98,286,-30
13138.936,170,281,191,154,-260,3916,15668,-98,286,-30
13143.346,156,278,200,156,-780,3500,15708,-1771,861,-20
13150.949,144,275,210,158,-780,3500,15708,-1771,861,-20
13154.255,137,273,219,160,-780,3500,15708,-1771,861,-20
13165.26,130,272,228,161,-780,3500,15708,-1771,861,-20
13173.691,125,270,236,163,-780,3500,15708,-1771,861,-20
13176.529999999999,120,270,244,165,-780,3500,15708,-1771,861,-20
13185.816,117,269,250,167,-780,3500,15708,-1771,861,-20
13188.44,114,269,259,168,-448,3896,15356,554,-200,-221
13191.738000000001,114,270,266,170,-448,3896,15356,554,-200,-221
13198.471,115,270,272,172,-448,3896,15356,554,-200,-221
13203.804999999998,117,271,278,173,-448,3896,15356,554,-200,-221
13209.759,119,271,284,174,-448,3896,15356,554,-200,-221
13215.662999999999,122,272,290,176,-448,3896,15356,554,-200,-221
13221.081999999999,127,274,295,179,-448,3896,15356,554,-200,-221
13228.108,129,275,296,182,-364,4112,15816,1673,-266,-478
13232.468,133,275,298,185,-364,4112,15816,1673,-266,-478
13243.413999999999,139,275,301,188,-364,4112,15816,1673,-266,-478
13243.413999999999,144,275,302,191,-364,4112,15816,1673,-266,-478
13253.927,150,276,305,192,-364,4112,15816,1673,-266,-478
13253.927,157,277,306,194,-364,4112,15816,1673,-266,-478
13265.347,162,277,308,195,-364,4112,15816,1673,-266,-478
13269.563,166,277,308,194,-436,4300,15748,607,-274,46
13276.628999999999,171,278,309,196,-436,4300,15748,607,-274,46
13281.751,175,278,309,196,-436,4300,15748,607,-274,46
13288.719000000001,180,280,308,197,-436,4300,15748,607,-274,46
13289.809,186,280,304,197,-436,4300,15748,607,-274,46
13299.060000000001,192,280,303,199,-436,4300,15748,607,-274,46
13308.408,198,281,300,200,-436,4300,15748,607,-274,46
13310.280999999999,203,282,297,201,-264,4424,15280,210,-210,38
13314.458999999999,207,283,292,203,-264,4424,15280,210,-210,38
13320.479000000001,211,284,290,205,-264,4424,15280,210,-210,38
13326.951,214,284,287,207,-264,4424,15280,210,-210,38
13332.026000000002,218,285,283,209,-264,4424,15280,210,-210,38
13334.847,221,285,280,212,-264,4424,15280,210,-210,38
13343.906,223,285,275,217,-264,4424,15280,210,-210,38
13343.906,225,287,270,220,-180,4192,15660,-242,65,32
13354.4,225,287,267,223,-180,4192,15660,-242,65,32
13354.4,226,288,265,226,-180,4192,15660,-242,65,32
13365.558,225,290,262,228,-180,4192,15660,-242,65,32
13372.639,223,291,258,231,-180,4192,15660,-242,65,32
13376.815,221,293,256,233,-180,4192,15660,-242,65,32
13380.26,221,294,253,236,-180,4192,15660,-242,65,32
13389.043,220,295,247,237,-276,4556,15596,697,-360,-289
13389.043,220,295,244,240,-276,4556,15596,697,-360,-289
13398.949,219,297,242,242,-276,4556,15596,697,-360,-289
13405.528,220,298,240,243,-276,4556,15596,697,-360,-289
13410.100999999999,220,299,235,244,-276,4556,15596,697,-360,-289
13417.8,221,300,235,246,-276,4556,15596,697,-360,-289
13421.019,222,300,234,248,-276,4556,15596,697,-360,-289
13429.312,223,300,232,249,-416,4784,15640,449,-217,-99
13432.028,225,300,231,250,-416,4784,15640,449,-217,-99
13442.802,226,299,230,252,-416,4784,15640,449,-217,-99
13445.357,228,299,228,253,-416,4784,15640,449,-217,-99
13455.213,231,299,227,254,-416,4784,15640,449,-217,-99
13455.213,234,299,225,255,-416,4784,15640,449,-217,-99
13462.04,237,299,226,256,-416,4784,15640,449,-217,-99
13465.848,241,298,228,257,-188,4196,15392,-91,-248,-245
13476.69,244,299,230,257,-188,4196,15392,-91,-248,-245
13485.082,247,299,234,258,-188,4196,15392,-91,-248,-245
13487.831,251,300,237,259,-188,4196,15392,-91,-248,-245
13497.35,254,301,243,258,-188,4196,15392,-91,-248,-245
13499.556,257,301,248,258,-188,4196,15392,-91,-248,-245
13502.429,260,302,256,258,-188,4196,15392,-91,-248,-245
13509.914,265,303,260,258,-540,4080,15468,88,102,-150
13516.569000000001,268,303,265,258,-540,4080,15468,88,102,-150
13521.882,273,303,266,260,-540,4080,15468,88,102,-150
13527.1,277,304,265,260,-540,4080,15468,88,102,-150
13532.259,282,305,264,258,-540,4080,15468,88,102,-150
13535.412,288,306,262,258,-540,4080,15468,88,102,-150
13543.873,295,306,259,257,-540,4080,15468,88,102,-150
13553.826000000001,304,307,254,255,-364,4700,15632,766,-193,-223
13554.567000000001,315,308,249,253,-364,4700,15632,766,-193,-223
13565.349,324,310,248,251,-364,4700,15632,766,-193,-223
13565.349,333,313,247,248,-364,4700,15632,766,-193,-223
13574.628999999999,342,316,247,245,-364,4700,15632,766,-193,-223
13576.577000000001,350,319,248,244,-364,4700,15632,766,-193,-223
13587.285,357,323,252,242,-364,4700,15632,766,-193,-223
13589.244,362,326,259,242,-320,4644,15208,1211,-327,-368
13599.491,367,329,268,244,-320,4644,15208,1211,-327,-368
13608.246,370,331,271,243,-320,4644,15208,1211,-327,-368
13610.785,375,333,274,242,-320,4644,15208,1211,-327,-368
13619.505000000001,380,334,276,242,-320,4644,15208,1211,-327,-368
13621.82,385,335,274,243,-320,4644,15208,1211,-327,-368
13625.465999999999,386,334,271,242,-348,4836,15596,555,-13,-244
13631.894,386,334,267,244,-348,4836,15596,555,-13,-244
13638.685000000001,385,334,261,245,-348,4836,15596,555,-13,-244
13643.431,383,333,254,247,-348,4836,15596,555,-13,-244
13650.548,379,333,243,248,-348,4836,15596,555,-13,-244
13654.752999999999,372,331,231,250,-348,4836,15596,555,-13,-244
13665.193000000001,365,327,218,254,-348,4836,15596,555,-13,-244
13665.193000000001,358,325,205,254,-108,4520,15464,-348,-14,4
13676.284000000001,344,322,188,256,-108,4520,15464,-348,-14,4
