Time (ms),EMG1,EMG2,EMG3,EMG4,AccX,AccY,AccZ,GyroX,GyroY,GyroZ
1536.183,0,0,0,0,0,0,0,0,0,0
1536.183,0,0,0,0,0,0,0,0,0,0
1536.183,334,289,356,304,0,0,0,0,0,0
1551.874,334,290,356,304,0,0,0,0,0,0
1553.056,334,290,356,304,0,0,0,0,0,0
1558.1490000000001,334,289,355,304,0,0,0,0,0,0
1561.9,333,289,354,304,0,0,0,0,0,0
1565.9959999999999,332,289,354,304,0,0,0,0,0,0
1566.942,331,289,353,304,0,0,0,0,0,0
1572.1419999999998,331,288,352,304,0,0,0,0,0,0
1574.003,330,288,351,304,0,0,0,0,0,0
1574.003,329,289,350,304,0,0,0,0,0,0
1584.426,328,290,348,304,0,0,0,0,0,0
1584.426,326,290,347,304,0,0,0,0,0,0
1591.113,325,290,346,305,1216,9440,13036,-3,6,7
1595.172,324,291,344,304,1216,9440,13036,-3,6,7
1604.715,322,291,342,304,1216,9440,13036,-3,6,7
1605.877,321,292,340,304,1216,9440,13036,-3,6,7
1605.877,320,292,339,305,1216,9440,13036,-3,6,7
1616.713,319,292,337,305,1216,9440,13036,-3,6,7
1616.713,317,293,335,304,1216,9440,13036,-3,6,7
1627.685,316,293,334,304,1216,9440,13036,-3,6,7
1631.5310000000002,314,294,332,305,1236,9236,13100,-112,35,-18
1631.5310000000002,312,295,330,305,1236,9236,13100,-112,35,-18
1640.338,310,296,328,304,1236,9236,13100,-112,35,-18
1650.0079999999998,308,297,327,305,1236,9236,13100,-112,35,-18
1650.989,307,297,325,305,1236,9236,13100,-112,35,-18
1661.087,305,298,323,305,1236,9236,13100,-112,35,-18
1661.087,304,299,321,305,1236,9236,13100,-112,35,-18
1672.694,303,300,320,306,1236,9236,13100,-112,35,-18
1676.393,300,301,317,306,1164,9248,13100,-168,6,86
1683.2549999999999,299,301,315,306,1164,9248,13100,-168,6,86
1683.2549999999999,297,301,314,307,1164,9248,13100,-168,6,86
1694.941,296,302,313,307,1164,9248,13100,-168,6,86
1694.941,296,302,310,308,1164,9248,13100,-168,6,86
1705.992,295,302,308,307,1164,9248,13100,-168,6,86
1708.428,293,302,307,307,1164,9248,13100,-168,6,86
1708.428,291,301,305,307,1180,9324,13148,-105,36,29
1716.4360000000001,290,302,303,307,1180,9324,13148,-105,36,29
1721.5620000000001,289,301,302,307,1180,9324,13148,-105,36,29
1728.6889999999999,288,301,301,308,1180,9324,13148,-105,36,29
1739.261,288,301,301,308,1180,9324,13148,-105,36,29
1741.671,288,301,299,307,1180,9324,13148,-105,36,29
1749.71,287,301,298,307,1180,9324,13148,-105,36,29
1751.7050000000002,287,301,298,308,1204,9376,13132,-90,46,7
1758.514,287,302,297,308,1204,9376,13132,-90,46,7
1761.643,287,301,296,307,1204,9376,13132,-90,46,7
1767.574,287,302,295,308,1204,9376,13132,-90,46,7
1772.1599999999999,287,302,294,308,1204,9376,13132,-90,46,7
1778.499,288,302,294,308,1204,9376,13132,-90,46,7
1783.7350000000001,288,302,292,307,1204,9376,13132,-90,46,7
1793.095,288,302,291,307,1204,9376,13132,-90,46,7
1795.19,289,303,291,308,1280,9336,13096,-27,15,-27
1795.19,288,303,290,307,1280,9336,13096,-27,15,-27
1805.852,288,303,290,307,1280,9336,13096,-27,15,-27
1815.0790000000002,288,303,290,307,1280,9336,13096,-27,15,-27
1817.399,289,304,289,307,1280,9336,13096,-27,15,-27
1825.9460000000001,288,304,288,306,1280,9336,13096,-27,15,-27
1828.3590000000002,290,305,289,306,1280,9336,13096,-27,15,-27
1832.164,290,304,288,307,1088,9352,13092,-168,41,-54
1838.8500000000001,291,306,288,306,1088,9352,13092,-168,41,-54
1844.1799999999998,290,306,288,305,1088,9352,13092,-168,41,-54
1849.71,291,306,288,306,1088,9352,13092,-168,41,-54
1859.699,292,306,288,306,1088,9352,13092,-168,41,-54
1861.61,293,306,287,305,1088,9352,13092,-168,41,-54
1870.2810000000002,294,306,287,305,1088,9352,13092,-168,41,-54
1872.678,296,306,288,305,1256,9268,13116,-95,1,-83
1872.678,296,306,288,304,1256,9268,13116,-95,1,-83
1883.367,297,307,288,304,1256,9268,13116,-95,1,-83
1889.086,297,307,288,304,1256,9268,13116,-95,1,-83
1894.844,299,307,289,304,1256,9268,13116,-95,1,-83
1894.844,299,307,289,304,1256,9268,13116,-95,1,-83
1908.078,300,307,289,303,1256,9268,13116,-95,1,-83
1912.249,300,306,291,304,1256,9268,13116,-95,1,-83
1916.895,301,306,291,304,1132,9248,13040,-99,14,11
1924.1760000000002,301,307,292,302,1132,9248,13040,-99,14,11
1928.833,301,307,293,303,1132,9248,13040,-99,14,11
1931.891,302,307,293,303,1132,9248,13040,-99,14,11
1938.904,302,308,294,303,1132,9248,13040,-99,14,11
1942.8300000000002,302,309,294,302,1132,9248,13040,-99,14,11
1942.8300000000002,303,308,294,303,1132,9248,13040,-99,14,11
1950.224,304,308,295,303,1172,9288,12972,32,-13,-41
1961.351,304,308,296,302,1172,9288,12972,32,-13,-41
1961.351,304,308,296,301,1172,9288,12972,32,-13,-41
1972.292,305,308,298,302,1172,9288,12972,32,-13,-41
1974.8509999999999,305,308,299,302,1172,9288,12972,32,-13,-41
1974.8509999999999,306,308,298,301,1172,9288,12972,32,-13,-41
1983.366,306,308,298,301,1172,9288,12972,32,-13,-41
1992.28,306,308,299,302,1340,9508,13192,4,-10,-15
1994.736,306,307,298,301,1340,9508,13192,4,-10,-15
2005.6509999999998,307,307,298,301,1340,9508,13192,4,-10,-15
2007.9799999999998,307,307,300,301,1340,9508,13192,4,-10,-15
2007.9799999999998,307,307,301,301,1340,9508,13192,4,-10,-15
2017.853,306,307,301,301,1340,9508,13192,4,-10,-15
2024.862,306,307,301,300,1340,9508,13192,4,-10,-15
2028.0010000000002,304,307,302,301,1340,9508,13192,4,-10,-15
2038.6060000000002,304,307,302,301,1168,9384,13256,-205,43,-1
2040.876,304,306,301,300,1168,9384,13256,-205,43,-1
2040.876,302,306,301,300,1168,9384,13256,-205,43,-1
2051.328,301,306,302,301,1168,9384,13256,-205,43,-1
2057.6330000000003,300,305,301,301,1168,9384,13256,-205,43,-1
2061.389,299,306,300,300,1168,9384,13256,-205,43,-1
2071.991,298,305,301,301,1168,9384,13256,-205,43,-1
2073.525,297,305,300,301,1152,9408,13072,10,15,-60
2073.525,298,304,298,300,1152,9408,13072,10,15,-60
2084.5370000000003,298,304,298,300,1152,9408,13072,10,15,-60
2090.3109999999997,298,304,298,301,1152,9408,13072,10,15,-60
2095.014,298,304,297,301,1152,9408,13072,10,15,-60
2104.332,298,304,297,301,1152,9408,13072,10,15,-60
2106.56,298,304,297,301,1152,9408,13072,10,15,-60
2110.357,298,303,297,301,1152,9408,13072,10,15,-60
2116.491,298,304,297,301,1312,9204,13036,-161,29,52
2122.544,298,304,297,300,1312,9204,13036,-161,29,52
2127.56,296,303,297,301,1312,9204,13036,-161,29,52
2130.9390000000003,296,303,297,302,1312,9204,13036,-161,29,52
2140.082,294,303,296,301,1312,9204,13036,-161,29,52
2140.082,292,304,296,301,1312,9204,13036,-161,29,52
2150.284,291,304,296,302,1312,9204,13036,-161,29,52
2155.894,290,304,295,302,972,9408,13128,-99,75,-33
2160.7780000000002,288,304,295,301,972,9408,13128,-99,75,-33
2170.525,288,304,294,301,972,9408,13128,-99,75,-33
2172.64,288,304,295,302,972,9408,13128,-99,75,-33
2176.491,289,304,295,302,972,9408,13128,-99,75,-33
2183.275,290,304,294,302,972,9408,13128,-99,75,-33
2188.489,289,304,295,302,972,9408,13128,-99,75,-33
2194.339,291,304,294,303,1264,9472,13096,-66,19,-10
2196.7560000000003,291,304,293,303,1264,9472,13096,-66,19,-10
2206.911,292,304,293,303,1264,9472,13096,-66,19,-10
2206.911,294,304,295,303,1264,9472,13096,-66,19,-10
2216.631,295,304,295,303,1264,9472,13096,-66,19,-10
2221.5750000000003,295,304,294,302,1264,9472,13096,-66,19,-10
2227.544,295,304,295,303,1264,9472,13096,-66,19,-10
2229.3630000000003,294,305,296,304,1264,9472,13096,-66,19,-10
2239.355,293,304,296,304,1124,9164,13100,-156,13,-11
2239.355,293,304,296,304,1124,9164,13100,-156,13,-11
2249.975,292,304,296,304,1124,9164,13100,-156,13,-11
2249.975,293,303,297,304,1124,9164,13100,-156,13,-11
2261.1789999999996,293,303,297,304,1124,9164,13100,-156,13,-11
2266.748,294,303,297,304,1124,9164,13100,-156,13,-11
2271.849,294,302,298,305,1124,9164,13100,-156,13,-11
2274.219,296,301,298,305,1152,9544,13104,122,18,-86
2283.76,297,302,298,305,1152,9544,13104,122,18,-86
2283.76,299,301,299,305,1152,9544,13104,122,18,-86
2297.049,301,300,300,306,1152,9544,13104,122,18,-86
2298.911,303,299,300,306,1152,9544,13104,122,18,-86
2305.063,304,298,299,306,1152,9544,13104,122,18,-86
2307.068,305,299,301,307,1152,9544,13104,122,18,-86
2316.6890000000003,306,299,302,307,1276,9188,13160,-210,23,66
2316.6890000000003,306,300,302,307,1276,9188,13160,-210,23,66
2327.674,306,299,303,308,1276,9188,13160,-210,23,66
2331.9719999999998,304,299,303,308,1276,9188,13160,-210,23,66
2331.9719999999998,302,299,302,308,1276,9188,13160,-210,23,66
2340.634,301,300,301,309,1276,9188,13160,-210,23,66
2350.323,297,299,300,309,1276,9188,13160,-210,23,66
2350.323,294,300,300,310,1192,9384,13156,-67,31,-1
2361.181,289,301,299,310,1192,9384,13156,-67,31,-1
2361.181,286,302,298,310,1192,9384,13156,-67,31,-1
2370.015,282,302,298,312,1192,9384,13156,-67,31,-1
2372.337,279,302,296,312,1192,9384,13156,-67,31,-1
2383.1769999999997,275,303,295,312,1192,9384,13156,-67,31,-1
2383.1769999999997,273,303,294,312,1192,9384,13156,-67,31,-1
2394.331,271,304,294,313,1192,9384,13156,-67,31,-1
2394.331,269,304,293,314,1080,9192,13088,-155,52,-24
2402.206,267,305,292,314,1080,9192,13088,-155,52,-24
2406.9790000000003,267,305,293,315,1080,9192,13088,-155,52,-24
2414.5,266,305,292,315,1080,9192,13088,-155,52,-24
2416.748,266,306,292,314,1080,9192,13088,-155,52,-24
2427.953,266,306,291,314,1080,9192,13088,-155,52,-24
2430.137,266,306,292,315,1080,9192,13088,-155,52,-24
2439.7709999999997,267,306,292,314,1176,9348,13104,-63,6,-118
2439.7709999999997,268,306,292,313,1176,9348,13104,-63,6,-118
2446.519,268,306,292,313,1176,9348,13104,-63,6,-118
2450.152,269,306,293,313,1176,9348,13104,-63,6,-118
2461.207,271,306,293,312,1176,9348,13104,-63,6,-118
2461.207,275,306,293,312,1176,9348,13104,-63,6,-118
2472.277,279,305,294,311,1176,9348,13104,-63,6,-118
2474.648,284,304,295,312,1172,9328,13136,21,13,-108
2482.669,287,304,294,310,1172,9328,13136,21,13,-108
2484.2270000000003,291,304,295,309,1172,9328,13136,21,13,-108
2491.3120000000004,294,304,295,309,1172,9328,13136,21,13,-108
2494.4320000000002,296,304,294,309,1172,9328,13136,21,13,-108
2506.1369999999997,298,304,294,309,1172,9328,13136,21,13,-108
2508.0480000000002,298,304,294,308,1172,9328,13136,21,13,-108
2508.0480000000002,297,304,294,309,1220,9364,13168,-176,91,-81
2517.478,294,304,293,307,1220,9364,13168,-176,91,-81
2524.7920000000004,290,304,292,307,1220,9364,13168,-176,91,-81
2528.015,286,305,291,307,1220,9364,13168,-176,91,-81
2538.9249999999997,280,306,291,307,1220,9364,13168,-176,91,-81
2538.9249999999997,274,306,288,306,1220,9364,13168,-176,91,-81
2550.042,265,307,288,306,1220,9364,13168,-176,91,-81
2552.354,255,308,288,307,1128,9292,13160,-142,67,-56
2561.375,239,308,287,309,1128,9292,13160,-142,67,-56
2564.657,226,309,287,311,1128,9292,13160,-142,67,-56
2564.657,215,309,287,316,1128,9292,13160,-142,67,-56
2573.132,210,309,288,321,1128,9292,13160,-142,67,-56
2583.805,211,309,288,327,1128,9292,13160,-142,67,-56
2583.805,225,310,289,330,1128,9292,13160,-142,67,-56
2594.91,252,311,289,335,1128,9292,13160,-142,67,-56
2598.19,277,312,290,337,1108,9296,13180,-172,75,-36
2607.1780000000003,298,315,292,336,1108,9296,13180,-172,75,-36
2607.1780000000003,311,317,295,336,1108,9296,13180,-172,75,-36
2616.981,320,319,297,334,1108,9296,13180,-172,75,-36
2625.14,320,319,297,332,1108,9296,13180,-172,75,-36
2627.678,312,320,297,331,1108,9296,13180,-172,75,-36
2627.678,305,321,297,333,1108,9296,13180,-172,75,-36
2639.713,301,321,298,335,1148,9288,13020,-12,21,-27
2639.713,301,321,297,337,1148,9288,13020,-12,21,-27
2650.089,303,320,297,339,1148,9288,13020,-12,21,-27
2657.531,305,320,298,340,1148,9288,13020,-12,21,-27
2661.751,306,319,299,340,1148,9288,13020,-12,21,-27
2666.453,306,318,300,340,1148,9288,13020,-12,21,-27
2673.961,304,316,301,340,1148,9288,13020,-12,21,-27
2675.5080000000003,302,315,302,338,1136,9364,13144,-19,32,-65
2675.5080000000003,299,314,304,336,1136,9364,13144,-19,32,-65
2683.2569999999996,296,313,304,335,1136,9364,13144,-19,32,-65
2694.427,294,313,306,333,1136,9364,13144,-19,32,-65
2703.042,290,312,306,329,1136,9364,13144,-19,32,-65
2707.226,288,311,306,325,1136,9364,13144,-19,32,-65
2708.161,284,309,307,321,1136,9364,13144,-19,32,-65
2717.762,282,308,306,318,1184,9268,13072,-148,21,-35
2717.762,281,308,305,312,1184,9268,13072,-148,21,-35
2725.958,280,307,305,309,1184,9268,13072,-148,21,-35
2728.461,280,306,305,306,1184,9268,13072,-148,21,-35
2739.208,281,305,304,302,1184,9268,13072,-148,21,-35
2739.208,283,304,303,300,1184,9268,13072,-148,21,-35
2750.349,286,304,302,297,1184,9268,13072,-148,21,-35
2750.349,288,303,302,296,1200,9388,13116,-30,11,-31
2759.2439999999997,291,302,301,291,1200,9388,13116,-30,11,-31
2767.121,292,301,301,290,1200,9388,13116,-30,11,-31
2770.715,295,300,301,288,1200,9388,13116,-30,11,-31
2776.672,296,300,301,287,1200,9388,13116,-30,11,-31
2784.387,298,299,301,284,1200,9388,13116,-30,11,-31
2785.4030000000002,299,299,301,283,1200,9388,13116,-30,11,-31
2794.824,301,298,300,283,1200,9388,13116,-30,11,-31
2794.824,304,298,299,281,1188,9320,13132,-110,24,-39
2805.6749999999997,308,297,298,280,1188,9320,13132,-110,24,-39
2809.763,313,297,298,280,1188,9320,13132,-110,24,-39
2816.8419999999996,318,296,298,280,1188,9320,13132,-110,24,-39
2816.8419999999996,323,296,297,279,1188,9320,13132,-110,24,-39
2827.72,329,296,297,280,1188,9320,13132,-110,24,-39
2831.636,334,295,298,281,1188,9320,13132,-110,24,-39
2840.029,338,295,298,280,1104,9260,13044,-55,17,-40
2840.029,341,295,298,280,1104,9260,13044,-55,17,-40
2850.5029999999997,343,295,299,281,1104,9260,13044,-55,17,-40
2858.627,345,294,299,281,1104,9260,13044,-55,17,-40
2861.719,344,294,299,281,1104,9260,13044,-55,17,-40
2861.719,343,293,299,281,1104,9260,13044,-55,17,-40
2872.47,341,293,299,282,1104,9260,13044,-55,17,-40
2872.47,338,293,300,282,1116,9320,13100,-50,21,-19
2883.454,334,292,300,281,1116,9320,13100,-50,21,-19
2891.652,332,293,301,282,1116,9320,13100,-50,21,-19
2894.8559999999998,329,292,302,283,1116,9320,13100,-50,21,-19
2894.8559999999998,327,292,302,282,1116,9320,13100,-50,21,-19
2907.5890000000004,323,292,302,283,1116,9320,13100,-50,21,-19
2909.5840000000003,320,292,303,283,1116,9320,13100,-50,21,-19
2909.5840000000003,316,293,303,284,1184,9308,13168,-109,40,-6
2916.832,313,294,303,284,1184,9308,13168,-109,40,-6
2928.097,310,294,303,284,1184,9308,13168,-109,40,-6
2936.106,307,295,304,285,1184,9308,13168,-109,40,-6
2940.721,305,295,303,285,1184,9308,13168,-109,40,-6
2944.893,303,296,303,285,1184,9308,13168,-109,40,-6
2952.509,301,296,303,286,1184,9308,13168,-109,40,-6
2954.7949999999996,300,297,303,287,1184,9308,13168,-109,40,-6
2960.945,297,297,303,287,1148,9396,13212,-54,64,5
2962.4570000000003,296,297,303,288,1148,9396,13212,-54,64,5
2973.055,295,298,303,288,1148,9396,13212,-54,64,5
2973.055,294,298,303,288,1148,9396,13212,-54,64,5
2979.194,294,298,303,288,1148,9396,13212,-54,64,5
2983.777,294,299,303,288,1148,9396,13212,-54,64,5
2991.724,295,299,304,290,1148,9396,13212,-54,64,5
2994.2920000000004,295,300,304,290,1124,9376,13116,-167,63,0
3005.9010000000003,295,301,304,290,1124,9376,13116,-167,63,0
3007.91,295,301,304,291,1124,9376,13116,-167,63,0
3011.7630000000004,296,302,305,292,1124,9376,13116,-167,63,0
3016.8430000000003,296,303,305,292,1124,9376,13116,-167,63,0
3026.443,297,303,304,293,1124,9376,13116,-167,63,0
3028.682,299,303,305,293,1124,9376,13116,-167,63,0
3028.682,300,303,306,294,1124,9376,13116,-167,63,0
3038.9629999999997,301,304,305,294,1108,9220,13088,-57,33,-16
3045.696,302,304,305,295,1108,9220,13088,-57,33,-16
3050.1589999999997,303,304,306,295,1108,9220,13088,-57,33,-16
3053.23,305,305,306,296,1108,9220,13088,-57,33,-16
3062.798,307,304,306,296,1108,9220,13088,-57,33,-16
3062.798,308,305,306,296,1108,9220,13088,-57,33,-16
3072.549,310,305,307,297,1108,9220,13088,-57,33,-16
3072.549,312,305,307,296,1104,9344,13192,-133,66,-14
3083.6169999999997,313,305,306,296,1104,9344,13192,-133,66,-14
3091.6749999999997,315,305,307,297,1104,9344,13192,-133,66,-14
3093.667,316,305,308,298,1104,9344,13192,-133,66,-14
3097.651,318,305,307,298,1104,9344,13192,-133,66,-14
3108.228,319,304,306,298,1104,9344,13192,-133,66,-14
3108.228,321,304,307,299,1104,9344,13192,-133,66,-14
3116.794,322,304,307,299,1168,9348,13112,-29,10,-47
3123.085,323,304,306,299,1168,9348,13112,-29,10,-47
3127.783,323,304,305,299,1168,9348,13112,-29,10,-47
3134.237,325,304,306,300,1168,9348,13112,-29,10,-47
3139.218,325,304,305,299,1168,9348,13112,-29,10,-47
3142.512,327,303,304,300,1168,9348,13112,-29,10,-47
3151.031,327,303,305,300,1168,9348,13112,-29,10,-47
3151.031,328,303,305,301,1148,9352,13084,-50,-4,-46
3161.4429999999998,330,303,305,301,1148,9352,13084,-50,-4,-46
3167.7369999999996,329,302,305,301,1148,9352,13084,-50,-4,-46
3172.263,330,302,306,302,1148,9352,13084,-50,-4,-46
3175.763,332,303,306,302,1148,9352,13084,-50,-4,-46
3184.031,331,303,305,301,1148,9352,13084,-50,-4,-46
3184.031,332,303,305,302,1148,9352,13084,-50,-4,-46
3194.926,332,302,305,302,1148,9352,13084,-50,-4,-46
3194.926,332,303,305,301,1108,9348,13140,-75,4,-30
3205.811,334,302,304,301,1108,9348,13140,-75,4,-30
3208.1499999999996,334,303,305,302,1108,9348,13140,-75,4,-30
3217.3729999999996,333,303,305,302,1108,9348,13140,-75,4,-30
3217.3729999999996,334,303,305,302,1108,9348,13140,-75,4,-30
3230.7160000000003,335,302,305,302,1108,9348,13140,-75,4,-30
3234.863,334,303,306,303,1108,9348,13140,-75,4,-30
3239.199,335,302,306,303,1160,9320,13056,-16,5,-48
3247.509,335,303,306,302,1160,9320,13056,-16,5,-48
3251.713,336,303,306,303,1160,9320,13056,-16,5,-48
3255.853,335,303,307,303,1160,9320,13056,-16,5,-48
3258.0119999999997,335,303,306,303,1160,9320,13056,-16,5,-48
3261.4429999999998,336,303,306,302,1160,9320,13056,-16,5,-48
3270.337,336,303,306,303,1160,9320,13056,-16,5,-48
3272.7780000000002,335,303,306,303,1144,9344,13188,-108,45,-9
3283.2940000000003,336,303,305,303,1144,9344,13188,-108,45,-9
3283.2940000000003,336,303,305,302,1144,9344,13188,-108,45,-9
3291.1130000000003,336,303,305,304,1144,9344,13188,-108,45,-9
3294.4429999999998,335,304,305,303,1144,9344,13188,-108,45,-9
3302.6949999999997,335,304,305,303,1144,9344,13188,-108,45,-9
3308.0319999999997,335,304,305,303,1144,9344,13188,-108,45,-9
3316.909,336,305,305,304,1144,9344,13188,-108,45,-9
3321.415,335,305,304,303,1204,9396,13080,-119,-12,-8
3327.966,335,304,304,303,1204,9396,13080,-119,-12,-8
3330.841,335,305,305,304,1204,9396,13080,-119,-12,-8
3330.841,335,305,304,304,1204,9396,13080,-119,-12,-8
3339.518,335,305,304,304,1204,9396,13080,-119,-12,-8
3350.323,334,305,303,304,1204,9396,13080,-119,-12,-8
3350.323,334,305,304,304,1204,9396,13080,-119,-12,-8
3360.871,334,305,303,304,1148,9292,13120,-62,37,-40
3363.6569999999997,334,305,303,304,1148,9292,13120,-62,37,-40
3373.3979999999997,334,305,303,305,1148,9292,13120,-62,37,-40
3375.802,333,305,303,305,1148,9292,13120,-62,37,-40
3383.263,333,304,302,304,1148,9292,13120,-62,37,-40
3383.263,332,305,303,304,1148,9292,13120,-62,37,-40
3394.142,332,305,304,305,1148,9292,13120,-62,37,-40
3394.142,331,305,304,305,1128,9344,13164,-116,29,-27
3405.7659999999996,331,305,304,304,1128,9344,13164,-116,29,-27
3408.2819999999997,331,305,304,305,1128,9344,13164,-116,29,-27
3415.031,330,305,304,306,1128,9344,13164,-116,29,-27
3417.255,330,305,304,305,1128,9344,13164,-116,29,-27
3427.989,330,305,302,305,1128,9344,13164,-116,29,-27
3436.019,329,305,303,306,1128,9344,13164,-116,29,-27
3439.813,329,305,303,305,1140,9296,13144,-54,-5,-30
3439.813,328,305,302,305,1140,9296,13144,-54,-5,-30
3451.7509999999997,328,305,302,305,1140,9296,13144,-54,-5,-30
3451.7509999999997,328,304,303,306,1140,9296,13144,-54,-5,-30
3461.149,327,304,302,305,1140,9296,13144,-54,-5,-30
3469.169,327,304,301,305,1140,9296,13144,-54,-5,-30
3472.581,326,304,302,306,1140,9296,13144,-54,-5,-30
3472.581,325,303,301,306,1128,9360,13176,-161,45,-33
3483.5319999999997,325,303,300,305,1128,9360,13176,-161,45,-33
3486.8700000000003,324,303,299,305,1128,9360,13176,-161,45,-33
3486.8700000000003,324,303,299,306,1128,9360,13176,-161,45,-33
3494.676,324,302,299,306,1128,9360,13176,-161,45,-33
3505.632,323,303,298,305,1128,9360,13176,-161,45,-33
3508.146,322,302,298,306,1128,9360,13176,-161,45,-33
3517.3179999999998,322,302,298,306,1128,9360,13176,-161,45,-33
3517.3179999999998,322,302,297,305,1176,9376,13148,-4,26,-72
3528.036,321,302,297,306,1176,9376,13148,-4,26,-72
3528.036,321,302,297,306,1176,9376,13148,-4,26,-72
3536.909,320,302,297,306,1176,9376,13148,-4,26,-72
3538.976,321,302,297,305,1176,9376,13148,-4,26,-72
3550.073,320,301,297,306,1176,9376,13148,-4,26,-72
3552.0480000000002,319,302,297,306,1176,9376,13148,-4,26,-72
3561.8120000000004,319,301,297,306,1076,9304,13164,-127,48,-28
3561.8120000000004,318,301,297,305,1076,9304,13164,-127,48,-28
3570.282,318,301,297,306,1076,9304,13164,-127,48,-28
3572.692,318,302,297,305,1076,9304,13164,-127,48,-28
3583.234,318,301,297,305,1076,9304,13164,-127,48,-28
3583.234,318,302,298,305,1076,9304,13164,-127,48,-28
3594.591,318,302,298,306,1076,9304,13164,-127,48,-28
3596.934,317,302,298,306,1144,9336,13052,-70,10,-31
3608.01,316,303,298,305,1144,9336,13052,-70,10,-31
3609.102,317,303,299,306,1144,9336,13052,-70,10,-31
3616.529,316,303,299,306,1144,9336,13052,-70,10,-31
3616.529,317,302,298,306,1144,9336,13052,-70,10,-31
3627.401,316,302,298,305,1144,9336,13052,-70,10,-31
3627.401,316,302,299,306,1144,9336,13052,-70,10,-31
3639.0829999999996,316,303,300,306,1080,9256,13104,-96,19,-17
3642.163,315,303,300,305,1080,9256,13104,-96,19,-17
3642.163,315,302,300,305,1080,9256,13104,-96,19,-17
3649.946,315,302,300,306,1080,9256,13104,-96,19,-17
3661.217,314,302,300,305,1080,9256,13104,-96,19,-17
3661.217,315,302,299,305,1080,9256,13104,-96,19,-17
3672.226,314,302,301,305,1080,9256,13104,-96,19,-17
3675.392,315,303,301,306,1080,9256,13104,-96,19,-17
3675.392,314,302,300,305,1140,9300,13156,-50,51,-25
3684.633,313,302,301,305,1140,9300,13156,-50,51,-25
3694.5009999999997,312,303,302,306,1140,9300,13156,-50,51,-25
3694.5009999999997,313,303,302,306,1140,9300,13156,-50,51,-25
3705.627,313,303,302,305,1140,9300,13156,-50,51,-25
3708.357,313,303,302,305,1140,9300,13156,-50,51,-25
3708.357,313,302,303,307,1140,9300,13156,-50,51,-25
3718.1839999999997,313,303,302,306,1164,9424,13204,-82,26,-36
3724.653,312,303,302,305,1164,9424,13204,-82,26,-36
3727.864,312,303,302,305,1164,9424,13204,-82,26,-36
3739.2780000000002,312,302,301,306,1164,9424,13204,-82,26,-36
3739.2780000000002,312,303,301,305,1164,9424,13204,-82,26,-36
3750.029,311,303,302,305,1164,9424,13204,-82,26,-36
3752.5550000000003,312,303,303,306,1164,9424,13204,-82,26,-36
3760.583,311,303,302,306,1116,9252,13032,-48,-4,5
3761.951,312,303,302,305,1116,9252,13032,-48,-4,5
3765.639,310,303,303,306,1116,9252,13032,-48,-4,5
3772.2540000000004,310,303,303,306,1116,9252,13032,-48,-4,5
3772.2540000000004,310,303,303,306,1116,9252,13032,-48,-4,5
3783.04,310,304,302,305,1116,9252,13032,-48,-4,5
3790.1549999999997,310,303,302,306,1116,9252,13032,-48,-4,5
3794.845,311,303,302,306,1116,9252,13032,-48,-4,5
3797.7,310,303,302,306,1096,9416,13212,-30,25,-37
3807.944,310,303,301,306,1096,9416,13212,-30,25,-37
3807.944,310,304,302,306,1096,9416,13212,-30,25,-37
3816.942,310,304,301,306,1096,9416,13212,-30,25,-37
3823.8650000000002,309,304,301,306,1096,9416,13212,-30,25,-37
3829.461,309,303,300,306,1096,9416,13212,-30,25,-37
3837.492,309,304,301,306,1096,9416,13212,-30,25,-37
3839.6690000000003,310,304,301,306,1108,9316,13096,-110,33,4
3839.6690000000003,309,303,301,306,1108,9316,13096,-110,33,4
3850.003,309,303,300,306,1108,9316,13096,-110,33,4
3855.937,308,304,301,306,1108,9316,13096,-110,33,4
3855.937,309,304,301,306,1108,9316,13096,-110,33,4
3864.69,309,303,300,306,1108,9316,13096,-110,33,4
3873.999,308,304,300,306,1108,9316,13096,-110,33,4
3873.999,308,303,300,306,1076,9276,13152,20,12,-12
3880.337,308,303,300,305,1076,9276,13152,20,12,-12
3883.935,309,303,300,306,1076,9276,13152,20,12,-12
3894.504,308,303,301,307,1076,9276,13152,20,12,-12
3894.504,307,303,300,307,1076,9276,13152,20,12,-12
3905.669,308,304,300,305,1076,9276,13152,20,12,-12
3908.178,306,303,300,306,1076,9276,13152,20,12,-12
3915.015,306,303,300,306,1076,9276,13152,20,12,-12
3917.249,306,303,299,306,1148,9348,13088,-70,-17,2
3925.58,306,304,299,305,1148,9348,13088,-70,-17,2
3927.994,306,304,299,306,1148,9348,13088,-70,-17,2
3938.7349999999997,305,304,299,306,1148,9348,13088,-70,-17,2
3938.7349999999997,306,304,299,306,1148,9348,13088,-70,-17,2
3946.397,305,304,299,306,1148,9348,13088,-70,-17,2
3950.848,305,304,299,306,1148,9348,13088,-70,-17,2
3958.094,305,304,299,306,1156,9356,13084,-42,-20,-3
3961.207,305,304,299,305,1156,9356,13084,-42,-20,-3
3972.62,305,304,299,305,1156,9356,13084,-42,-20,-3
3973.915,304,304,299,306,1156,9356,13084,-42,-20,-3
3973.915,305,304,299,306,1156,9356,13084,-42,-20,-3
3984.438,304,305,299,305,1156,9356,13084,-42,-20,-3
3990.859,304,304,299,306,1156,9356,13084,-42,-20,-3
3994.75,304,304,299,307,1156,9356,13084,-42,-20,-3
4005.5110000000004,304,304,298,306,1164,9444,13144,-52,-15,-43
4008.52,304,304,298,306,1164,9444,13144,-52,-15,-43
4011.411,305,304,299,306,1164,9444,13144,-52,-15,-43
4016.423,304,304,300,306,1164,9444,13144,-52,-15,-43
4025.58,304,305,300,305,1164,9444,13144,-52,-15,-43
4033.607,304,304,300,306,1164,9444,13144,-52,-15,-43
4037.9269999999997,304,305,300,306,1164,9444,13144,-52,-15,-43
4042.5069999999996,303,305,300,305,1128,9296,13128,-86,2,-36
4050.0860000000002,304,304,300,305,1128,9296,13128,-86,2,-36
4050.591,304,304,300,306,1128,9296,13128,-86,2,-36
4056.2009999999996,303,305,301,306,1128,9296,13128,-86,2,-36
4060.778,304,305,300,305,1128,9296,13128,-86,2,-36
4064.6570000000006,303,305,300,305,1128,9296,13128,-86,2,-36
4074.1589999999997,303,305,300,305,1128,9296,13128,-86,2,-36
4074.1589999999997,303,305,300,306,1092,9296,13108,-72,-1,9
4083.5299999999997,303,306,300,305,1092,9296,13108,-72,-1,9
4091.995,303,306,300,305,1092,9296,13108,-72,-1,9
4093.9759999999997,303,305,300,306,1092,9296,13108,-72,-1,9
4097.86,304,305,299,305,1092,9296,13108,-72,-1,9
4106.583,304,305,299,305,1092,9296,13108,-72,-1,9
4108.593,304,305,300,305,1092,9296,13108,-72,-1,9
4113.462,304,306,301,306,1092,9296,13108,-72,-1,9
4116.803,304,307,300,305,1100,9256,13128,-96,30,-1
4128.389999999999,304,307,301,305,1100,9256,13128,-96,30,-1
4128.389999999999,304,307,302,305,1100,9256,13128,-96,30,-1
4139.251,305,307,302,305,1100,9256,13128,-96,30,-1
4139.251,305,306,301,305,1100,9256,13128,-96,30,-1
4148.202,305,306,302,305,1100,9256,13128,-96,30,-1
4150.768,304,306,303,306,1100,9256,13128,-96,30,-1
4161.17,305,306,303,305,1156,9320,13076,-60,24,-35
4161.597000000001,305,306,302,305,1156,9320,13076,-60,24,-35
4172.285,304,306,303,305,1156,9320,13076,-60,24,-35
4175.065,305,306,303,305,1156,9320,13076,-60,24,-35
4183.0689999999995,304,306,303,305,1156,9320,13076,-60,24,-35
4185.117,305,306,303,305,1156,9320,13076,-60,24,-35
4191.473,304,305,303,305,1156,9320,13076,-60,24,-35
4194.542,304,306,303,306,1156,9320,13076,-60,24,-35
4205.434,304,305,303,305,1092,9372,13164,-75,16,-12
4208.4400000000005,303,305,303,305,1092,9372,13164,-75,16,-12
4212.167,303,305,304,305,1092,9372,13164,-75,16,-12
4217.125,304,305,304,305,1092,9372,13164,-75,16,-12
4224.74,304,305,304,305,1092,9372,13164,-75,16,-12
4227.808999999999,304,305,305,305,1092,9372,13164,-75,16,-12
4238.9400000000005,303,304,304,306,1092,9372,13164,-75,16,-12
4238.9400000000005,303,305,303,305,1164,9400,13136,-26,15,-8
4245.161,303,304,303,305,1164,9400,13136,-26,15,-8
4250.008,302,304,303,306,1164,9400,13136,-26,15,-8
4256.566000000001,302,304,304,306,1164,9400,13136,-26,15,-8
4261.466,303,304,303,305,1164,9400,13136,-26,15,-8
4264.906,302,303,302,305,1164,9400,13136,-26,15,-8
4273.036,302,303,302,306,1164,9400,13136,-26,15,-8
4277.126,303,303,302,306,1076,9376,13152,-114,20,-58
4283.087,302,303,302,305,1076,9376,13152,-114,20,-58
4289.829,302,303,302,306,1076,9376,13152,-114,20,-58
4294.816,302,303,302,306,1076,9376,13152,-114,20,-58
4301.609,302,303,302,306,1076,9376,13152,-114,20,-58
4308.552,302,303,303,305,1076,9376,13152,-114,20,-58
4310.914000000001,302,303,303,306,1076,9376,13152,-114,20,-58
4318.011,302,303,303,306,1160,9380,13132,-38,40,-36
4318.011,301,303,303,305,1160,9380,13132,-38,40,-36
4328.708,301,303,303,306,1160,9380,13132,-38,40,-36
4334.923,301,303,304,306,1160,9380,13132,-38,40,-36
4339.343000000001,301,303,303,306,1160,9380,13132,-38,40,-36
4349.082,301,303,303,305,1160,9380,13132,-38,40,-36
4350.82,302,303,304,306,1160,9380,13132,-38,40,-36
4350.82,301,303,304,306,1160,9380,13132,-38,40,-36
4361.865,302,303,303,305,1088,9392,13160,-91,0,-23
4367.501,301,303,304,306,1088,9392,13160,-91,0,-23
4372.477,301,303,304,307,1088,9392,13160,-91,0,-23
4381.499,301,303,303,306,1088,9392,13160,-91,0,-23
4383.557,301,304,303,305,1088,9392,13160,-91,0,-23
4387.585999999999,301,303,303,306,1088,9392,13160,-91,0,-23
4394.173000000001,301,303,303,307,1088,9392,13160,-91,0,-23
4400.572,301,304,303,306,1176,9352,13156,-86,9,5
4405.55,302,303,303,306,1176,9352,13156,-86,9,5
4408.638,301,304,303,306,1176,9352,13156,-86,9,5
4417.616,301,303,303,306,1176,9352,13156,-86,9,5
4417.616,300,304,302,306,1176,9352,13156,-86,9,5
4425.860000000001,301,304,303,306,1176,9352,13156,-86,9,5
4428.161,301,304,303,306,1176,9352,13156,-86,9,5
4439.074,301,303,303,306,1176,9352,13156,-86,9,5
4439.074,300,304,302,306,1120,9340,13152,-69,20,-43
4446.277,301,304,302,306,1120,9340,13152,-69,20,-43
4450.222,301,303,302,306,1120,9340,13152,-69,20,-43
4457.955,300,303,301,306,1120,9340,13152,-69,20,-43
4461.138,300,303,301,305,1120,9340,13152,-69,20,-43
4472.293,300,303,301,306,1120,9340,13152,-69,20,-43
4473.853,300,303,301,306,1120,9340,13152,-69,20,-43
4473.853,300,303,301,306,1160,9276,13092,-68,13,6
4484.616,300,303,301,306,1160,9276,13092,-68,13,6
4490.545,299,303,301,306,1160,9276,13092,-68,13,6
4494.885,299,303,302,306,1160,9276,13092,-68,13,6
4499.476,299,303,301,305,1160,9276,13092,-68,13,6
4508.911,299,304,302,305,1160,9276,13092,-68,13,6
4508.911,299,304,302,306,1160,9276,13092,-68,13,6
4517.451999999999,299,304,302,306,1160,9276,13092,-68,13,6
4525.893,300,304,302,305,1072,9288,13144,-51,-30,9
4528.13,300,304,303,306,1072,9288,13144,-51,-30,9
4531.360000000001,299,303,302,306,1072,9288,13144,-51,-30,9
4538.8640000000005,299,304,302,306,1072,9288,13144,-51,-30,9
4544.026,300,304,302,306,1072,9288,13144,-51,-30,9
4550.045,299,304,302,306,1072,9288,13144,-51,-30,9
4551.771,299,304,302,307,1072,9288,13144,-51,-30,9
4561.611,300,304,302,306,1164,9376,13124,-68,36,-39
4561.611,299,304,302,306,1164,9376,13124,-68,36,-39
4572.849999999999,300,304,302,306,1164,9376,13124,-68,36,-39
4572.849999999999,300,304,303,307,1164,9376,13124,-68,36,-39
4580.616,299,304,303,306,1164,9376,13124,-68,36,-39
4583.455,299,304,303,306,1164,9376,13124,-68,36,-39
4594.601,300,305,304,306,1164,9376,13124,-68,36,-39
4594.601,300,304,303,306,1124,9332,13120,-117,5,-70
4605.644,300,304,304,306,1124,9332,13120,-117,5,-70
4608.998,300,304,304,306,1124,9332,13120,-117,5,-70
4616.133,300,304,304,306,1124,9332,13120,-117,5,-70
4616.133,300,303,303,306,1124,9332,13120,-117,5,-70
4627.996,299,304,303,306,1124,9332,13120,-117,5,-70
4627.996,299,304,303,306,1124,9332,13120,-117,5,-70
4638.7660000000005,299,303,303,306,1124,9332,13120,-117,5,-70
4641.935,299,304,303,305,1104,9232,13068,-130,21,-37
4651.393,299,304,303,306,1104,9232,13068,-130,21,-37
4651.393,299,304,303,306,1104,9232,13068,-130,21,-37
4659.2,299,304,302,306,1104,9232,13068,-130,21,-37
4662.536,299,304,301,305,1104,9232,13068,-130,21,-37
4672.659000000001,298,303,301,306,1104,9232,13068,-130,21,-37
4672.659000000001,298,303,302,306,1104,9232,13068,-130,21,-37
4683.67,298,304,301,305,1108,9280,13100,-81,-29,-35
4683.67,298,303,301,306,1108,9280,13100,-81,-29,-35
4692.589,298,303,301,306,1108,9280,13100,-81,-29,-35
4699.131,299,303,300,306,1108,9280,13100,-81,-29,-35
4705.826,299,304,300,305,1108,9280,13100,-81,-29,-35
4708.845,298,304,300,306,1108,9280,13100,-81,-29,-35
4717.512,298,303,300,306,1108,9280,13100,-81,-29,-35
4717.512,298,304,299,306,1120,9340,13128,-89,12,-46
4727.911,298,304,300,306,1120,9340,13128,-89,12,-46
4732.671,298,304,300,306,1120,9340,13128,-89,12,-46
4738.683,298,304,300,306,1120,9340,13128,-89,12,-46
4740.391,298,304,300,305,1120,9340,13128,-89,12,-46
4750.295,299,304,300,306,1120,9340,13128,-89,12,-46
4759.448,298,304,300,306,1120,9340,13128,-89,12,-46
4761.373,298,304,300,305,1136,9356,13136,-103,56,-61
4761.373,298,304,301,305,1136,9356,13136,-103,56,-61
4772.147,298,304,301,306,1136,9356,13136,-103,56,-61
4777.103,298,304,301,306,1136,9356,13136,-103,56,-61
4783.422,299,305,301,305,1136,9356,13136,-103,56,-61
4785.223,298,304,301,305,1136,9356,13136,-103,56,-61
4795.001,298,304,301,306,1136,9356,13136,-103,56,-61
4795.001,298,304,301,305,1140,9324,13124,-65,78,27
4806.583,298,304,301,305,1140,9324,13124,-65,78,27
4809.0869999999995,298,304,301,305,1140,9324,13124,-65,78,27
4816.699,299,305,302,305,1140,9324,13124,-65,78,27
4817.0869999999995,299,304,301,305,1140,9324,13124,-65,78,27
4827.936000000001,300,304,301,305,1140,9324,13124,-65,78,27
4827.936000000001,300,304,301,305,1140,9324,13124,-65,78,27
4839.014,299,304,301,305,1140,9324,13124,-65,78,27
4842.6179999999995,300,305,301,305,1116,9292,13064,-42,54,-3
4842.6179999999995,299,305,301,305,1116,9292,13064,-42,54,-3
4849.794,300,305,302,305,1116,9292,13064,-42,54,-3
4861.544,300,305,301,305,1116,9292,13064,-42,54,-3
4865.698,301,305,301,305,1116,9292,13064,-42,54,-3
4872.297,301,305,301,305,1116,9292,13064,-42,54,-3
4872.297,301,305,302,305,1116,9292,13064,-42,54,-3
4880.191,301,305,301,305,1120,9344,13100,-51,65,-32
4883.401,301,305,301,304,1120,9344,13100,-51,65,-32
4892.064,301,306,302,306,1120,9344,13100,-51,65,-32
4894.567999999999,301,305,302,305,1120,9344,13100,-51,65,-32
4905.276,301,305,302,304,1120,9344,13100,-51,65,-32
4909.392000000001,302,305,302,305,1120,9344,13100,-51,65,-32
4909.392000000001,302,305,302,305,1120,9344,13100,-51,65,-32
4918.167,303,305,302,305,1120,9344,13100,-51,65,-32
4926.167,302,305,302,305,1180,9252,13124,-95,56,-29
4927.286999999999,303,305,302,305,1180,9252,13124,-95,56,-29
4938.971,302,305,303,305,1180,9252,13124,-95,56,-29
4938.971,303,305,303,305,1180,9252,13124,-95,56,-29
4945.531,303,305,303,305,1180,9252,13124,-95,56,-29
4950.15,304,305,303,305,1180,9252,13124,-95,56,-29
4956.97,303,305,303,305,1180,9252,13124,-95,56,-29
4962.168000000001,304,305,303,305,1124,9336,13128,16,45,-12
4965.290000000001,304,305,303,305,1124,9336,13128,16,45,-12
4973.325,304,304,304,306,1124,9336,13128,16,45,-12
4973.325,304,305,304,305,1124,9336,13128,16,45,-12
4983.7429999999995,304,305,303,305,1124,9336,13128,16,45,-12
4990.152,304,304,303,305,1124,9336,13128,16,45,-12
4994.909,304,305,304,305,1124,9336,13128,16,45,-12
4998.01,305,304,304,305,1092,9304,13124,-93,67,-28
5006.156,305,304,303,304,1092,9304,13124,-93,67,-28
5009.661999999999,304,304,304,305,1092,9304,13124,-93,67,-28
5021.077,304,304,304,305,1092,9304,13124,-93,67,-28
5024.674,304,304,303,305,1092,9304,13124,-93,67,-28
5029.111999999999,304,304,302,305,1092,9304,13124,-93,67,-28
5037.576999999999,305,303,302,305,1092,9304,13124,-93,67,-28
5041.9039999999995,304,303,302,305,1092,9304,13124,-93,67,-28
5043.929,304,303,302,304,1144,9272,13104,-80,34,-23
5050.542,304,303,302,306,1144,9272,13104,-80,34,-23
5050.542,304,303,302,305,1144,9272,13104,-80,34,-23
5061.557,303,303,302,305,1144,9272,13104,-80,34,-23
5070.367,303,303,301,304,1144,9272,13104,-80,34,-23
5072.269,303,303,301,305,1144,9272,13104,-80,34,-23
5075.615,304,303,302,305,1144,9272,13104,-80,34,-23
5083.919,304,303,301,304,1120,9336,13120,-41,20,-41
5087.926,304,302,301,306,1120,9336,13120,-41,20,-41
5094.373,303,302,301,305,1120,9336,13120,-41,20,-41
5101.021000000001,303,302,301,304,1120,9336,13120,-41,20,-41
5105.931,303,303,300,304,1120,9336,13120,-41,20,-41
5110.068,302,303,301,305,1120,9336,13120,-41,20,-41
5118.362,302,303,301,305,1120,9336,13120,-41,20,-41
5118.362,302,303,300,304,1160,9352,13132,-96,19,-5
5127.573,302,302,300,305,1160,9352,13132,-96,19,-5
5133.562000000001,302,303,300,305,1160,9352,13132,-96,19,-5
5138.916,302,303,300,305,1160,9352,13132,-96,19,-5
5138.916,302,303,299,304,1160,9352,13132,-96,19,-5
5149.887,302,303,299,304,1160,9352,13132,-96,19,-5
5154.044,302,303,299,305,1160,9352,13132,-96,19,-5
5154.044,302,303,299,304,1116,9380,13136,-76,11,-22
5161.372,302,303,298,304,1116,9380,13136,-76,11,-22
5172.717,302,302,299,305,1116,9380,13136,-76,11,-22
5172.717,302,303,300,305,1116,9380,13136,-76,11,-22
5183.611,302,304,299,304,1116,9380,13136,-76,11,-22
5186.122,302,303,299,305,1116,9380,13136,-76,11,-22
5195.38,302,303,299,305,1116,9380,13136,-76,11,-22
5198.306,302,304,299,305,1116,9380,13136,-76,11,-22
5205.47,303,304,299,304,1152,9308,13128,-130,21,-19
5211.233,303,304,299,305,1152,9308,13128,-130,21,-19
5216.38,303,303,299,305,1152,9308,13128,-130,21,-19
5219.012000000001,303,304,299,304,1152,9308,13128,-130,21,-19
5228.594,301,304,299,305,1152,9308,13128,-130,21,-19
5231.476,302,304,299,305,1152,9308,13128,-130,21,-19
5238.755,303,304,299,305,1152,9308,13128,-130,21,-19
5244.626,302,304,299,304,1112,9376,13152,-63,17,-26
5249.749000000001,303,304,300,305,1112,9376,13152,-63,17,-26
5252.179,303,304,300,305,1112,9376,13152,-63,17,-26
5261.714,303,304,300,305,1112,9376,13152,-63,17,-26
5264.153,303,304,299,304,1112,9376,13152,-63,17,-26
5272.072999999999,303,304,300,305,1112,9376,13152,-63,17,-26
5277.205999999999,303,304,300,305,1112,9376,13152,-63,17,-26
5283.253000000001,303,304,299,304,1124,9360,13112,-49,24,-19
5285.148999999999,304,304,299,305,1124,9360,13112,-49,24,-19
5294.278,303,304,300,305,1124,9360,13112,-49,24,-19
5294.278,304,304,300,305,1124,9360,13112,-49,24,-19
5306.1759999999995,304,304,300,304,1124,9360,13112,-49,24,-19
5310.692,303,304,300,304,1124,9360,13112,-49,24,-19
5313.157999999999,303,304,301,306,1124,9360,13112,-49,24,-19
5317.3859999999995,303,304,300,305,1120,9356,13168,-130,27,-1
5328.077,304,304,300,304,1120,9356,13168,-130,27,-1
5328.077,304,304,301,305,1120,9356,13168,-130,27,-1
5338.666,303,304,301,305,1120,9356,13168,-130,27,-1
5338.666,304,304,301,304,1120,9356,13168,-130,27,-1
5347.291,304,304,301,304,1120,9356,13168,-130,27,-1
5349.849,303,305,302,305,1120,9356,13168,-130,27,-1
5361.063,304,304,301,305,1120,9356,13168,-130,27,-1
5361.063,304,304,301,304,1136,9336,13124,-62,47,-22
5373.446000000001,304,304,301,305,1136,9336,13124,-62,47,-22
5374.780000000001,304,304,301,305,1136,9336,13124,-62,47,-22
5384.954,304,304,302,305,1136,9336,13124,-62,47,-22
5389.066,304,304,303,304,1136,9336,13124,-62,47,-22
5393.656,304,304,303,305,1136,9336,13124,-62,47,-22
5401.43,304,305,303,305,1136,9336,13124,-62,47,-22
5405.914,304,304,302,304,1200,9412,13084,-77,10,-34
5410.563,304,305,303,304,1200,9412,13084,-77,10,-34
5416.9890000000005,303,304,303,305,1200,9412,13084,-77,10,-34
5416.9890000000005,304,304,303,304,1200,9412,13084,-77,10,-34
5425.46,304,304,302,304,1200,9412,13084,-77,10,-34
5427.938,304,304,302,305,1200,9412,13084,-77,10,-34
5438.837,304,304,302,305,1200,9412,13084,-77,10,-34
5438.837,303,304,301,304,1136,9236,13120,-79,0,-8
5445.351,303,304,301,304,1136,9236,13120,-79,0,-8
5450.127,303,304,302,305,1136,9236,13120,-79,0,-8
5456.68,303,303,301,305,1136,9236,13120,-79,0,-8
5461.492,303,303,301,304,1136,9236,13120,-79,0,-8
5466.226,304,304,302,304,1136,9236,13120,-79,0,-8
5472.9929999999995,303,304,303,305,1136,9236,13120,-79,0,-8
5472.9929999999995,303,304,302,305,1136,9236,13120,-79,0,-8
5483.942,303,304,302,304,1088,9384,13104,-79,51,-13
5489.7660000000005,303,303,302,304,1088,9384,13104,-79,51,-13
5494.615,303,303,302,305,1088,9384,13104,-79,51,-13
5504.141,303,304,302,304,1088,9384,13104,-79,51,-13
5506.302,302,303,302,304,1088,9384,13104,-79,51,-13
5511.315,303,303,302,305,1088,9384,13104,-79,51,-13
5516.8460000000005,303,304,302,305,1088,9384,13104,-79,51,-13
5524.829000000001,303,304,302,304,1172,9280,13136,-79,17,-30
5527.6630000000005,303,303,302,304,1172,9280,13136,-79,17,-30
5530.987,303,303,302,305,1172,9280,13136,-79,17,-30
5539.692,304,303,303,305,1172,9280,13136,-79,17,-30
5539.692,304,304,303,304,1172,9280,13136,-79,17,-30
5550.161,303,303,303,304,1172,9280,13136,-79,17,-30
5558.224,303,303,303,304,1172,9280,13136,-79,17,-30
5560.393,303,303,303,304,1140,9472,13148,-54,31,18
5563.25,304,304,302,304,1140,9472,13148,-54,31,18
5572.261,303,303,302,304,1140,9472,13148,-54,31,18
5572.261,303,303,302,305,1140,9472,13148,-54,31,18
5583.984,303,304,302,304,1140,9472,13148,-54,31,18
5583.984,304,303,302,304,1140,9472,13148,-54,31,18
5594.41,304,303,302,305,1140,9472,13148,-54,31,18
5602.532,304,303,302,304,1140,9472,13148,-54,31,18
5605.645,305,303,302,304,1172,9400,13116,-76,33,-20
5608.081999999999,304,303,302,304,1172,9400,13116,-76,33,-20
5616.658,305,303,302,305,1172,9400,13116,-76,33,-20
5621.049,305,304,302,304,1172,9400,13116,-76,33,-20
5627.723,305,304,303,304,1172,9400,13116,-76,33,-20
5628.987999999999,306,304,303,304,1172,9400,13116,-76,33,-20
5638.896,306,304,304,305,1172,9400,13116,-76,33,-20
5638.896,306,305,303,304,1032,9316,13136,-185,56,-21
5650.262,306,305,304,305,1032,9316,13136,-185,56,-21
5650.262,306,305,303,305,1032,9316,13136,-185,56,-21
5661.191,306,305,303,304,1032,9316,13136,-185,56,-21
5661.191,306,305,302,304,1032,9316,13136,-185,56,-21
5671.977,306,305,302,305,1032,9316,13136,-185,56,-21
5680.042,306,305,302,305,1032,9316,13136,-185,56,-21
5683.3,306,304,301,304,1140,9248,13132,-102,33,12
5683.3,306,304,301,304,1140,9248,13132,-102,33,12
5694.934,305,305,302,305,1140,9248,13132,-102,33,12
5698.870999999999,305,305,302,305,1140,9248,13132,-102,33,12
5705.352000000001,305,305,301,304,1140,9248,13132,-102,33,12
5712.81,305,304,301,305,1140,9248,13132,-102,33,12
5716.486,305,305,301,305,1140,9248,13132,-102,33,12
5719.322,305,305,301,304,1140,9248,13132,-102,33,12
5728.858,304,305,301,305,1080,9372,13112,-3,81,-5
5728.858,304,305,301,305,1080,9372,13112,-3,81,-5
5735.585,304,305,301,305,1080,9372,13112,-3,81,-5
5739.0509999999995,304,305,300,304,1080,9372,13112,-3,81,-5
5750.293,303,305,300,305,1080,9372,13112,-3,81,-5
5750.293,303,304,300,305,1080,9372,13112,-3,81,-5
5756.323,303,304,300,305,1080,9372,13112,-3,81,-5
5761.076,303,304,299,304,1024,9200,13136,-212,-86,-81
5768.523,303,304,299,305,1024,9200,13136,-212,-86,-81
5772.296,303,304,299,306,1024,9200,13136,-212,-86,-81
5783.331999999999,302,304,298,305,1024,9200,13136,-212,-86,-81
5783.389999999999,302,304,298,305,1024,9200,13136,-212,-86,-81
5794.714,301,304,297,305,1024,9200,13136,-212,-86,-81
5794.714,302,304,297,305,1024,9200,13136,-212,-86,-81
5806.0,303,304,297,304,1148,9376,13204,-146,-86,-87
5809.1939999999995,303,303,298,305,1148,9376,13204,-146,-86,-87
5818.268,302,304,298,306,1148,9376,13204,-146,-86,-87
5818.268,302,304,298,305,1148,9376,13204,-146,-86,-87
5827.916,302,304,298,305,1148,9376,13204,-146,-86,-87
5836.012000000001,302,304,297,305,1148,9376,13204,-146,-86,-87
5838.856,302,305,297,305,1148,9376,13204,-146,-86,-87
5838.856,302,304,297,305,1128,9348,13108,-101,66,11
5850.323,302,304,297,305,1128,9348,13108,-101,66,11
5850.323,302,304,298,305,1128,9348,13108,-101,66,11
5861.068,302,304,297,305,1128,9348,13108,-101,66,11
5869.066,301,304,297,305,1128,9348,13108,-101,66,11
5871.570000000001,302,304,297,306,1128,9348,13108,-101,66,11
5874.404,302,305,298,306,1128,9348,13108,-101,66,11
5884.47,302,305,297,305,1116,9328,13176,14,205,-26
5889.862,303,304,297,305,1116,9328,13176,14,205,-26
5894.834000000001,303,304,297,305,1116,9328,13176,14,205,-26
5899.171,303,304,297,305,1116,9328,13176,14,205,-26
5905.677,303,304,297,305,1116,9328,13176,14,205,-26
5912.5,302,304,297,305,1116,9328,13176,14,205,-26
5917.235,303,304,297,305,1116,9328,13176,14,205,-26
5917.235,303,304,297,305,1116,9328,13176,14,205,-26
5928.614,303,304,297,305,1132,9364,13140,7,31,-17
5928.614,303,304,297,306,1132,9364,13140,7,31,-17
5939.009,303,304,297,305,1132,9364,13140,7,31,-17
5939.009,304,304,297,305,1132,9364,13140,7,31,-17
5950.814,304,304,297,305,1132,9364,13140,7,31,-17
5950.814,304,304,297,306,1132,9364,13140,7,31,-17
5959.25,304,304,297,305,1132,9364,13140,7,31,-17
5961.700000000001,304,304,297,305,1092,9368,13180,-108,61,-32
5969.021,304,304,297,305,1092,9368,13180,-108,61,-32
5972.371,304,304,297,305,1092,9368,13180,-108,61,-32
5982.964,305,303,297,305,1092,9368,13180,-108,61,-32
5985.171,305,304,297,304,1092,9368,13180,-108,61,-32
5994.903,305,304,298,305,1092,9368,13180,-108,61,-32
5997.28,305,303,298,305,1092,9368,13180,-108,61,-32
5997.28,305,303,298,304,1092,9272,13108,-104,14,-35
6012.503,306,304,299,305,1092,9272,13108,-104,14,-35
6014.717,306,304,299,305,1092,9272,13108,-104,14,-35
6017.017,306,304,300,305,1092,9272,13108,-104,14,-35
6027.695,307,304,299,304,1092,9272,13108,-104,14,-35
6030.472,307,304,300,304,1092,9272,13108,-104,14,-35
6039.695,307,304,300,304,1092,9272,13108,-104,14,-35
6039.695,307,304,300,304,1116,9348,13148,-14,-12,-29
6048.040999999999,307,304,300,304,1116,9348,13148,-14,-12,-29
6050.237,307,305,301,304,1116,9348,13148,-14,-12,-29
6061.009999999999,307,305,301,304,1116,9348,13148,-14,-12,-29
6063.153,307,305,301,304,1116,9348,13148,-14,-12,-29
6072.913,308,305,301,304,1116,9348,13148,-14,-12,-29
6072.913,308,305,301,304,1116,9348,13148,-14,-12,-29
6083.505999999999,308,305,300,304,1116,9348,13148,-14,-12,-29
6083.505999999999,307,305,300,304,1120,9308,13180,-55,21,-74
6094.457,308,304,301,304,1120,9308,13180,-55,21,-74
6102.506,308,305,301,304,1120,9308,13180,-55,21,-74
6105.492,309,304,301,304,1120,9308,13180,-55,21,-74
6105.492,308,304,301,304,1120,9308,13180,-55,21,-74
6116.527,309,305,302,305,1120,9308,13180,-55,21,-74
6120.549,309,304,302,304,1120,9308,13180,-55,21,-74
6120.549,309,304,302,304,1080,9312,13088,-150,24,-38
6128.384,309,304,303,305,1080,9312,13088,-150,24,-38
6139.292,309,304,302,304,1080,9312,13088,-150,24,-38
6147.329,310,305,303,304,1080,9312,13088,-150,24,-38
6150.162,310,304,303,304,1080,9312,13088,-150,24,-38
6150.162,311,304,303,305,1080,9312,13088,-150,24,-38
6160.979,311,303,302,304,1080,9312,13088,-150,24,-38
6165.561000000001,311,304,302,304,1112,9296,13212,-79,25,-19
6172.577,311,303,303,305,1112,9296,13212,-79,25,-19
6172.577,312,304,302,305,1112,9296,13212,-79,25,-19
6183.964,312,304,302,305,1112,9296,13212,-79,25,-19
6183.964,314,303,302,304,1112,9296,13212,-79,25,-19
6194.99,314,304,303,305,1112,9296,13212,-79,25,-19
6194.99,315,304,303,304,1112,9296,13212,-79,25,-19
6202.933,315,304,303,304,1088,9348,13164,-25,27,-56
6213.077,316,304,303,304,1088,9348,13164,-25,27,-56
6216.821999999999,316,304,303,305,1088,9348,13164,-25,27,-56
6216.821999999999,318,304,303,304,1088,9348,13164,-25,27,-56
6228.423000000001,318,304,303,304,1088,9348,13164,-25,27,-56
6228.423000000001,320,304,303,305,1088,9348,13164,-25,27,-56
6239.6,321,303,303,305,1088,9348,13164,-25,27,-56
6243.45,323,303,303,304,1116,9356,13064,-67,42,-53
6249.727,325,303,303,304,1116,9356,13064,-67,42,-53
6249.727,327,304,303,305,1116,9356,13064,-67,42,-53
6261.412,329,304,304,305,1116,9356,13064,-67,42,-53
6261.412,333,304,304,304,1116,9356,13064,-67,42,-53
6272.4039999999995,339,304,303,306,1116,9356,13064,-67,42,-53
6275.884,356,304,303,306,1116,9356,13064,-67,42,-53
6283.217,372,304,304,305,1116,9356,13064,-67,42,-53
6283.217,390,304,304,306,1168,9308,13188,-89,-14,-8
6294.741,403,304,304,306,1168,9308,13188,-89,-14,-8
6294.741,413,304,304,306,1168,9308,13188,-89,-14,-8
6305.424,422,304,304,307,1168,9308,13188,-89,-14,-8
6309.183,430,303,305,307,1168,9308,13188,-89,-14,-8
6313.7,434,304,305,307,1168,9308,13188,-89,-14,-8
6316.425,438,303,305,307,1168,9308,13188,-89,-14,-8
6327.867,439,303,305,307,1072,9328,13160,-125,31,-12
6327.867,438,303,306,307,1072,9328,13160,-125,31,-12
6338.77,437,304,307,307,1072,9328,13160,-125,31,-12
6338.77,435,304,306,306,1072,9328,13160,-125,31,-12
6349.8150000000005,432,304,306,306,1072,9328,13160,-125,31,-12
6353.991,428,304,306,307,1072,9328,13160,-125,31,-12
6353.991,425,304,307,306,1072,9328,13160,-125,31,-12
6362.068,421,304,306,306,1084,9340,13168,-35,20,-51
6372.487999999999,416,304,306,306,1084,9340,13168,-35,20,-51
6372.487999999999,412,304,306,307,1084,9340,13168,-35,20,-51
6383.89,408,305,306,306,1084,9340,13168,-35,20,-51
6383.89,403,305,306,305,1084,9340,13168,-35,20,-51
6392.996,398,305,306,306,1084,9340,13168,-35,20,-51
6398.414,393,306,306,306,1084,9340,13168,-35,20,-51
6405.647,387,305,305,305,1156,9268,13100,-178,38,-35
6405.647,380,306,305,306,1156,9268,13100,-178,38,-35
6417.207,374,306,306,306,1156,9268,13100,-178,38,-35
6417.207,369,306,305,306,1156,9268,13100,-178,38,-35
6427.777,361,306,305,305,1156,9268,13100,-178,38,-35
6432.014999999999,356,306,305,305,1156,9268,13100,-178,38,-35
6432.014999999999,349,306,305,306,1156,9268,13100,-178,38,-35
6439.688,343,305,304,305,1000,9368,13124,-73,16,10
6450.383000000001,336,305,305,305,1000,9368,13124,-73,16,10
6450.383000000001,332,305,305,305,1000,9368,13124,-73,16,10
6461.726,325,305,304,305,1000,9368,13124,-73,16,10
6461.726,319,306,303,305,1000,9368,13124,-73,16,10
6470.349999999999,313,306,303,305,1000,9368,13124,-73,16,10
6472.76,308,305,303,305,1000,9368,13124,-73,16,10
6481.565,303,305,302,304,1000,9368,13124,-73,16,10
6486.124,297,305,301,304,1100,9316,13248,-73,82,-37
6494.6900000000005,291,305,301,305,1100,9316,13248,-73,82,-37
6497.301,286,304,301,305,1100,9316,13248,-73,82,-37
6497.301,282,304,301,304,1100,9316,13248,-73,82,-37
6506.371,277,304,301,304,1100,9316,13248,-73,82,-37
6514.7570000000005,273,304,301,304,1100,9316,13248,-73,82,-37
6516.686,269,304,300,304,1100,9316,13248,-73,82,-37
6527.41,265,303,300,304,1088,9340,13136,-108,-7,-20
6527.41,262,303,300,304,1088,9340,13136,-108,-7,-20
6534.122,259,303,300,304,1088,9340,13136,-108,-7,-20
6539.427,256,304,299,304,1088,9340,13136,-108,-7,-20
6546.25,253,304,299,304,1088,9340,13136,-108,-7,-20
6550.788,252,303,299,304,1088,9340,13136,-108,-7,-20
6561.275000000001,249,304,298,304,1088,9340,13136,-108,-7,-20
6561.275000000001,247,304,298,304,1036,9296,13124,-26,11,-67
6572.215,245,304,298,305,1036,9296,13124,-26,11,-67
6572.215,244,304,296,304,1036,9296,13124,-26,11,-67
6580.25,242,303,296,304,1036,9296,13124,-26,11,-67
6583.379,240,304,297,303,1036,9296,13124,-26,11,-67
6594.0599999999995,238,304,298,304,1036,9296,13124,-26,11,-67
6594.478,237,304,298,304,1036,9296,13124,-26,11,-67
6605.1630000000005,236,304,297,303,1036,9296,13124,-26,11,-67
6607.773,234,304,297,303,1084,9312,13148,-156,7,4
6614.758,234,303,298,304,1084,9312,13148,-156,7,4
6617.0960000000005,233,303,298,304,1084,9312,13148,-156,7,4
6625.866,232,304,297,303,1084,9312,13148,-156,7,4
6629.095,231,304,297,303,1084,9312,13148,-156,7,4
6629.095,231,304,296,304,1084,9312,13148,-156,7,4
6639.554,231,303,296,304,1084,9312,13148,-156,7,4
6644.873,231,303,295,303,1048,9312,13220,-53,17,-10
6649.69,231,304,295,303,1048,9312,13220,-53,17,-10
6659.892,231,305,296,304,1048,9312,13220,-53,17,-10
6661.834,232,304,295,303,1048,9312,13220,-53,17,-10
6670.408,233,304,295,303,1048,9312,13220,-53,17,-10
6672.805,234,304,295,304,1048,9312,13220,-53,17,-10
6680.883,234,305,295,304,1048,9312,13220,-53,17,-10
6683.553,234,305,294,302,1164,9380,13280,-135,68,-50
6689.95,235,305,293,302,1164,9380,13280,-135,68,-50
6694.959,236,304,293,301,1164,9380,13280,-135,68,-50
6704.091,236,305,293,301,1164,9380,13280,-135,68,-50
6706.044000000001,237,306,293,300,1164,9380,13280,-135,68,-50
6706.044000000001,236,305,294,301,1164,9380,13280,-135,68,-50
6716.877,229,306,295,301,1164,9380,13280,-135,68,-50
6723.991,212,307,294,301,1164,9380,13280,-135,68,-50
6727.8060000000005,197,307,296,300,964,8828,13540,-238,-302,184
6737.6269999999995,186,307,298,302,964,8828,13540,-238,-302,184
6742.101,179,308,300,301,964,8828,13540,-238,-302,184
6749.372,171,307,302,301,964,8828,13540,-238,-302,184
6753.969,165,306,304,301,964,8828,13540,-238,-302,184
6761.496,163,306,308,301,964,8828,13540,-238,-302,184
6763.55,163,306,313,300,964,8828,13540,-238,-302,184
6763.55,164,306,316,299,1540,10336,14088,917,98,-496
6773.0560000000005,165,305,316,298,1540,10336,14088,917,98,-496
6780.4130000000005,168,305,316,295,1540,10336,14088,917,98,-496
6783.5289999999995,171,306,317,295,1540,10336,14088,917,98,-496
6794.17,175,307,316,292,1540,10336,14088,917,98,-496
6794.17,179,308,317,291,1540,10336,14088,917,98,-496
6805.489,182,309,319,291,1372,10296,14672,1190,1334,-1309
6814.652,189,308,321,294,1372,10296,14672,1190,1334,-1309
6816.8150000000005,196,306,323,296,1372,10296,14672,1190,1334,-1309
6820.612,204,306,325,298,1372,10296,14672,1190,1334,-1309
6827.859,212,309,327,303,1372,10296,14672,1190,1334,-1309
6838.897,219,313,330,308,1372,10296,14672,1190,1334,-1309
6838.897,228,319,332,313,1372,10296,14672,1190,1334,-1309
6850.360000000001,236,322,334,319,1856,12152,17492,3908,3869,-3569
6850.360000000001,245,324,340,327,1856,12152,17492,3908,3869,-3569
6861.293,253,325,351,333,1856,12152,17492,3908,3869,-3569
6866.035,261,326,365,339,1856,12152,17492,3908,3869,-3569
6871.835,269,324,379,345,1856,12152,17492,3908,3869,-3569
6880.188,274,321,386,350,1856,12152,17492,3908,3869,-3569
6883.712,280,315,388,353,1368,13232,17952,6676,6368,-6059
6891.1759999999995,286,306,387,361,1368,13232,17952,6676,6368,-6059
6894.715,288,291,380,365,1368,13232,17952,6676,6368,-6059
6909.172,290,248,368,372,1368,13232,17952,6676,6368,-6059
6910.715,291,217,356,381,1368,13232,17952,6676,6368,-6059
6917.561,293,193,339,391,1368,13232,17952,6676,6368,-6059
6923.478,309,181,304,403,1368,13232,17952,6676,6368,-6059
6928.34,352,178,247,419,-188,14004,15380,9060,10024,-9650
6935.638,431,233,206,441,-188,14004,15380,9060,10024,-9650
6939.018,496,271,185,458,-188,14004,15380,9060,10024,-9650
6950.0109999999995,575,291,164,484,-188,14004,15380,9060,10024,-9650
6958.362,632,302,161,512,-188,14004,15380,9060,10024,-9650
6961.202,676,325,173,541,-188,14004,15380,9060,10024,-9650
6970.7119999999995,709,361,213,580,592,14352,15352,8660,11332,-12077
6972.84,725,418,265,624,592,14352,15352,8660,11332,-12077
6983.5289999999995,724,499,309,663,592,14352,15352,8660,11332,-12077
6983.5289999999995,711,571,357,702,592,14352,15352,8660,11332,-12077
6994.608,689,628,408,743,592,14352,15352,8660,11332,-12077
7003.771000000001,655,680,461,786,592,14352,15352,8660,11332,-12077
7005.959,618,709,499,820,-140,15080,12924,10679,12798,-15508
7015.325,575,728,534,860,-140,15080,12924,10679,12798,-15508
7016.827,538,740,555,892,-140,15080,12924,10679,12798,-15508
7028.049,495,751,569,927,-140,15080,12924,10679,12798,-15508
7036.102,450,755,582,959,-140,15080,12924,10679,12798,-15508
7039.032,415,753,596,983,-140,15080,12924,10679,12798,-15508
7046.671,375,748,615,1009,-1232,14760,10480,7812,13562,-18916
7050.06,336,742,630,1019,-1232,14760,10480,7812,13562,-18916
7061.26,303,733,634,1019,-1232,14760,10480,7812,13562,-18916
7069.27,267,716,629,1019,-1232,14760,10480,7812,13562,-18916
7072.46,232,693,617,1019,-1232,14760,10480,7812,13562,-18916
7079.458,203,664,600,1019,-1232,14760,10480,7812,13562,-18916
7083.635,183,634,581,1017,-3348,10864,8680,5773,12942,-20473
7094.535,159,591,554,1008,-3348,10864,8680,5773,12942,-20473
7099.557,140,558,531,996,-3348,10864,8680,5773,12942,-20473
7105.786,121,526,509,980,-3348,10864,8680,5773,12942,-20473
7112.415,94,488,484,959,-3348,10864,8680,5773,12942,-20473
7116.914000000001,66,458,462,939,-3348,10864,8680,5773,12942,-20473
7124.380999999999,34,431,440,915,-5644,9300,6132,2709,12114,-20933
7128.586,0,402,416,887,-5644,9300,6132,2709,12114,-20933
7138.961,0,380,397,860,-5644,9300,6132,2709,12114,-20933
7144.62,0,360,379,832,-5644,9300,6132,2709,12114,-20933
7149.657999999999,0,342,362,806,-5644,9300,6132,2709,12114,-20933
7157.161,0,326,345,778,-5644,9300,6132,2709,12114,-20933
7161.8589999999995,0,312,328,750,-5644,9300,6132,2709,12114,-20933
7169.279,0,300,311,724,-6900,5784,5760,-322,11521,-19279
7172.423,0,288,290,693,-6900,5784,5760,-322,11521,-19279
7183.920999999999,0,279,270,666,-6900,5784,5760,-322,11521,-19279
7183.920999999999,0,272,248,638,-6900,5784,5760,-322,11521,-19279
7195.072,0,265,225,612,-6900,5784,5760,-322,11521,-19279
7203.855,0,259,203,586,-6900,5784,5760,-322,11521,-19279
7206.231,0,253,181,562,-10240,3344,4748,-1533,12674,-16825
7215.518,0,248,162,536,-10240,3344,4748,-1533,12674,-16825
7217.217,4,244,150,515,-10240,3344,4748,-1533,12674,-16825
7227.449,12,240,140,495,-10240,3344,4748,-1533,12674,-16825
7227.449,27,234,129,472,-10240,3344,4748,-1533,12674,-16825
7238.875,44,229,122,453,-10240,3344,4748,-1533,12674,-16825
7243.1320000000005,68,222,112,432,-10240,3344,4748,-1533,12674,-16825
7249.780000000001,90,213,103,413,-12512,3072,4164,-1452,9619,-13263
7261.178,116,202,93,389,-12512,3072,4164,-1452,9619,-13263
7261.178,140,193,85,367,-12512,3072,4164,-1452,9619,-13263
7272.313999999999,166,182,77,344,-12512,3072,4164,-1452,9619,-13263
7272.313999999999,196,168,70,317,-12512,3072,4164,-1452,9619,-13263
7283.402,222,158,65,293,-12512,3072,4164,-1452,9619,-13263
7288.134999999999,248,149,60,270,-13980,3336,4136,-1656,8896,-10220
7295.26,278,138,56,243,-13980,3336,4136,-1656,8896,-10220
7305.505,307,126,55,222,-13980,3336,4136,-1656,8896,-10220
7307.946,342,111,54,200,-13980,3336,4136,-1656,8896,-10220
7317.224999999999,370,97,55,183,-13980,3336,4136,-1656,8896,-10220
7320.014999999999,399,84,56,166,-13980,3336,4136,-1656,8896,-10220
7327.884,428,72,58,151,-14344,1852,3436,384,7706,-8127
7333.051,455,59,61,134,-14344,1852,3436,384,7706,-8127
7338.78,472,51,63,122,-14344,1852,3436,384,7706,-8127
7344.708,491,44,66,107,-14344,1852,3436,384,7706,-8127
7349.78,508,38,71,94,-14344,1852,3436,384,7706,-8127
7353.49,522,32,77,80,-14344,1852,3436,384,7706,-8127
7362.037,531,29,82,68,-14344,1852,3436,384,7706,-8127
7370.464,542,27,89,54,-15336,2504,2360,678,4960,-5043
7372.5019999999995,552,25,100,39,-15336,2504,2360,678,4960,-5043
7383.418,557,25,109,28,-15336,2504,2360,678,4960,-5043
7383.418,565,26,119,14,-15336,2504,2360,678,4960,-5043
7390.822,570,28,130,1,-15336,2504,2360,678,4960,-5043
7394.608,573,31,139,0,-15336,2504,2360,678,4960,-5043
7402.724,575,34,148,0,-15336,2504,2360,678,4960,-5043
7405.585,575,38,157,0,-15592,2672,2708,1894,4221,-4377
7417.306,574,44,166,0,-15592,2672,2708,1894,4221,-4377
7420.47,571,48,172,0,-15592,2672,2708,1894,4221,-4377
7427.869000000001,569,54,176,0,-15592,2672,2708,1894,4221,-4377
7430.996,568,60,182,0,-15592,2672,2708,1894,4221,-4377
7439.437,566,67,187,0,-15592,2672,2708,1894,4221,-4377
7442.977,563,75,191,0,-15592,2672,2708,1894,4221,-4377
7450.274,560,84,195,0,-15752,3052,1624,1971,1775,-2095
7455.93,557,93,198,0,-15752,3052,1624,1971,1775,-2095
7461.182,554,106,202,0,-15752,3052,1624,1971,1775,-2095
7467.609,551,120,205,0,-15752,3052,1624,1971,1775,-2095
7472.906,547,134,208,0,-15752,3052,1624,1971,1775,-2095
7483.120000000001,545,148,212,0,-15752,3052,1624,1971,1775,-2095
7483.120000000001,542,161,213,0,-15432,5680,3612,3156,-1111,-2071
7494.111,539,171,215,0,-15432,5680,3612,3156,-1111,-2071
7494.111,534,178,217,0,-15432,5680,3612,3156,-1111,-2071
7505.833,531,185,219,0,-15432,5680,3612,3156,-1111,-2071
7509.141,526,190,223,0,-15432,5680,3612,3156,-1111,-2071
7517.88,523,195,225,0,-15432,5680,3612,3156,-1111,-2071
7517.88,518,201,226,0,-15432,5680,3612,3156,-1111,-2071
7528.203,513,206,229,0,-15412,4076,3316,2962,-13,-1541
7534.579,507,209,230,0,-15412,4076,3316,2962,-13,-1541
7539.122,502,212,231,0,-15412,4076,3316,2962,-13,-1541
7546.25,498,217,233,0,-15412,4076,3316,2962,-13,-1541
7550.347000000001,492,222,237,0,-15412,4076,3316,2962,-13,-1541
7559.192999999999,485,226,239,0,-15412,4076,3316,2962,-13,-1541
7561.228,480,232,241,0,-15412,4076,3316,2962,-13,-1541
7572.249,474,238,243,0,-15996,3264,3380,1351,123,-1873
7572.249,467,244,245,0,-15996,3264,3380,1351,123,-1873
7583.536,460,247,246,0,-15996,3264,3380,1351,123,-1873
7586.921,454,252,248,0,-15996,3264,3380,1351,123,-1873
7595.673,449,255,250,0,-15996,3264,3380,1351,123,-1873
7595.673,446,258,254,0,-15996,3264,3380,1351,123,-1873
7605.789,440,260,258,0,-15996,3264,3380,1351,123,-1873
7612.466,435,261,263,0,-14792,3512,3212,3275,2342,-2557
7616.777,433,262,267,0,-14792,3512,3212,3275,2342,-2557
7625.347,430,264,271,0,-14792,3512,3212,3275,2342,-2557
7628.147,426,264,276,0,-14792,3512,3212,3275,2342,-2557
7632.164000000001,422,266,280,0,-14792,3512,3212,3275,2342,-2557
7639.2519999999995,419,267,285,0,-14792,3512,3212,3275,2342,-2557
7649.889,415,269,288,0,-15764,4280,3720,3141,776,-1405
7652.3,412,271,293,0,-15764,4280,3720,3141,776,-1405
7661.976000000001,409,272,297,0,-15764,4280,3720,3141,776,-1405
7661.976000000001,407,273,300,0,-15764,4280,3720,3141,776,-1405
7672.388,404,274,303,0,-15764,4280,3720,3141,776,-1405
7677.387000000001,401,274,305,0,-15764,4280,3720,3141,776,-1405
7683.293,397,274,307,0,-15764,4280,3720,3141,776,-1405
7685.209000000001,392,274,310,0,-15600,3696,4376,2505,625,-1172
7694.384,390,276,314,2,-15600,3696,4376,2505,625,-1172
7703.881,388,278,316,3,-15600,3696,4376,2505,625,-1172
7705.816000000001,386,279,319,6,-15600,3696,4376,2505,625,-1172
7716.075,384,280,321,9,-15600,3696,4376,2505,625,-1172
7716.973,381,280,324,12,-15600,3696,4376,2505,625,-1172
7727.449,379,283,326,14,-15600,3696,4376,2505,625,-1172
7727.449,377,285,329,17,-16024,3320,2740,1368,729,-132
7734.391,377,288,332,20,-16024,3320,2740,1368,729,-132
7739.243,375,289,332,21,-16024,3320,2740,1368,729,-132
7747.365000000001,373,293,333,25,-16024,3320,2740,1368,729,-132
7750.17,370,296,333,29,-16024,3320,2740,1368,729,-132
7761.236,370,297,334,33,-16024,3320,2740,1368,729,-132
7763.094,368,300,333,35,-16024,3320,2740,1368,729,-132
7772.271,365,301,333,38,-15624,4416,3028,1418,142,-169
7781.627,363,303,332,44,-15624,4416,3028,1418,142,-169
7783.674,362,305,333,48,-15624,4416,3028,1418,142,-169
7787.531000000001,358,306,333,52,-15624,4416,3028,1418,142,-169
7793.961,357,308,334,57,-15624,4416,3028,1418,142,-169
7800.303000000001,356,310,334,61,-15624,4416,3028,1418,142,-169
7805.528,354,310,334,66,-15944,3884,2680,1101,505,72
7811.7660000000005,353,311,334,71,-15944,3884,2680,1101,505,72
7817.13,351,313,334,73,-15944,3884,2680,1101,505,72
7819.963000000001,353,314,333,77,-15944,3884,2680,1101,505,72
7828.74,354,316,333,82,-15944,3884,2680,1101,505,72
7839.059,352,317,334,87,-15944,3884,2680,1101,505,72
7840.014,353,319,334,91,-15944,3884,2680,1101,505,72
7840.014,352,319,335,96,-15944,3884,2680,1101,505,72
7849.982,351,320,335,102,-15940,4208,2624,1706,-369,578
7856.836,351,322,336,107,-15940,4208,2624,1706,-369,578
7861.74,349,322,337,112,-15940,4208,2624,1706,-369,578
7869.223,348,326,338,117,-15940,4208,2624,1706,-369,578
7874.482999999999,344,328,339,122,-15940,4208,2624,1706,-369,578
7883.924999999999,343,330,340,126,-15940,4208,2624,1706,-369,578
7891.966,341,331,341,132,-15748,4168,2376,1618,-519,270
7894.443,339,333,342,137,-15748,4168,2376,1618,-519,270
7903.049,338,335,343,141,-15748,4168,2376,1618,-519,270
7905.4580000000005,338,339,345,145,-15748,4168,2376,1618,-519,270
7910.614,337,346,347,149,-15748,4168,2376,1618,-519,270
7916.369000000001,336,351,348,153,-15748,4168,2376,1618,-519,270
7924.327,335,352,348,156,-15748,4168,2376,1618,-519,270
7929.55,332,354,350,160,-15652,4260,3100,946,-367,454
7935.386,330,356,351,165,-15652,4260,3100,946,-367,454
7939.138,329,356,351,167,-15652,4260,3100,946,-367,454
7949.891,327,357,353,172,-15652,4260,3100,946,-367,454
7949.891,324,358,354,176,-15652,4260,3100,946,-367,454
7961.229,321,358,355,181,-15652,4260,3100,946,-367,454
7963.346,318,357,355,184,-15652,4260,3100,946,-367,454
7973.283,314,355,356,189,-15580,4336,3372,598,-267,391
7973.283,312,354,357,193,-15580,4336,3372,598,-267,391
7983.715,310,352,357,197,-15580,4336,3372,598,-267,391
7988.823,307,351,358,199,-15580,4336,3372,598,-267,391
7993.918,304,351,359,204,-15580,4336,3372,598,-267,391
8000.194,301,350,360,207,-15580,4336,3372,598,-267,391
8005.4259999999995,297,350,361,210,-15580,4336,3372,598,-267,391
8012.329,292,349,362,215,-15796,4496,3396,-63,414,347
8017.405,286,348,363,217,-15796,4496,3396,-63,414,347
8026.312000000001,282,347,364,220,-15796,4496,3396,-63,414,347
8028.366999999999,280,345,364,223,-15796,4496,3396,-63,414,347
8038.9130000000005,278,345,364,227,-15796,4496,3396,-63,414,347
8038.9130000000005,274,342,364,229,-15796,4496,3396,-63,414,347
8046.298999999999,272,341,363,231,-15796,4496,3396,-63,414,347
8050.375000000001,271,339,363,235,-15724,4472,2828,69,400,296
8060.81,270,338,363,238,-15724,4472,2828,69,400,296
8061.2390000000005,269,338,362,238,-15724,4472,2828,69,400,296
8072.1900000000005,269,337,362,242,-15724,4472,2828,69,400,296
8074.156999999999,268,336,361,244,-15724,4472,2828,69,400,296
8083.951000000001,269,335,361,246,-15724,4472,2828,69,400,296
8083.951000000001,270,334,359,248,-15724,4472,2828,69,400,296
8090.775000000001,271,334,359,250,-15748,4612,2508,208,125,182
8094.657,273,334,357,253,-15748,4612,2508,208,125,182
8105.315,276,333,357,254,-15748,4612,2508,208,125,182
8113.697,280,333,357,256,-15748,4612,2508,208,125,182
8118.0109999999995,283,332,355,258,-15748,4612,2508,208,125,182
8122.159999999999,285,332,354,259,-15748,4612,2508,208,125,182
8130.133000000001,288,332,353,260,-15748,4612,2508,208,125,182
8130.133000000001,289,331,351,262,-15728,4384,2388,317,-86,-3
8139.204,290,331,350,263,-15728,4384,2388,317,-86,-3
8139.204,289,331,348,264,-15728,4384,2388,317,-86,-3
8149.896999999999,282,331,347,266,-15728,4384,2388,317,-86,-3
8158.485000000001,277,330,345,266,-15728,4384,2388,317,-86,-3
8161.388000000001,270,330,344,267,-15728,4384,2388,317,-86,-3
8161.388000000001,268,329,343,268,-15728,4384,2388,317,-86,-3
8172.183999999999,267,328,342,269,-15848,3332,1808,-77,-405,254
8176.880999999999,266,329,342,270,-15848,3332,1808,-77,-405,254
8183.128999999999,265,328,342,270,-15848,3332,1808,-77,-405,254
8189.489999999999,264,327,343,271,-15848,3332,1808,-77,-405,254
8194.344,262,326,343,272,-15848,3332,1808,-77,-405,254
8201.474,266,326,344,272,-15848,3332,1808,-77,-405,254
8205.981,268,325,344,271,-15848,3332,1808,-77,-405,254
8214.498000000001,271,324,346,272,-15796,3688,2164,-617,-1018,1301
8216.673,273,324,348,273,-15796,3688,2164,-617,-1018,1301
8227.816,273,323,350,274,-15796,3688,2164,-617,-1018,1301
8236.432,274,321,352,276,-15796,3688,2164,-617,-1018,1301
8239.124,274,320,354,277,-15796,3688,2164,-617,-1018,1301
8248.046,275,317,357,279,-15796,3688,2164,-617,-1018,1301
8249.944,273,316,359,281,-15576,4880,3044,581,-1839,1353
8260.635,273,313,361,283,-15576,4880,3044,581,-1839,1353
8262.391,271,311,362,284,-15576,4880,3044,581,-1839,1353
8273.027,274,311,365,286,-15576,4880,3044,581,-1839,1353
8273.027,279,311,366,287,-15576,4880,3044,581,-1839,1353
8283.806,286,311,368,290,-15576,4880,3044,581,-1839,1353
8283.806,293,310,369,291,-15436,5764,4092,1712,-1830,798
8294.454,300,309,371,294,-15436,5764,4092,1712,-1830,798
8299.783,305,308,372,296,-15436,5764,4092,1712,-1830,798
8305.241,310,305,372,298,-15436,5764,4092,1712,-1830,798
8312.274000000001,314,302,373,301,-15436,5764,4092,1712,-1830,798
8317.116,317,300,373,302,-15436,5764,4092,1712,-1830,798
8324.287,319,299,372,304,-15436,5764,4092,1712,-1830,798
8328.713,319,297,373,306,-15324,5184,4112,1379,-702,434
8339.083999999999,319,296,373,308,-15324,5184,4112,1379,-702,434
8347.22,319,295,372,309,-15324,5184,4112,1379,-702,434
8349.644,319,295,372,309,-15324,5184,4112,1379,-702,434
8358.781,319,295,372,311,-15324,5184,4112,1379,-702,434
8362.441,318,296,370,312,-15324,5184,4112,1379,-702,434
8365.094,317,295,369,312,-15324,5184,4112,1379,-702,434
8371.702000000001,317,294,368,312,-15276,5488,3608,335,432,-40
8377.95,317,294,367,313,-15276,5488,3608,335,432,-40
8383.024000000001,317,293,366,312,-15276,5488,3608,335,432,-40
8389.35,316,293,366,313,-15276,5488,3608,335,432,-40
8394.496000000001,316,293,365,314,-15276,5488,3608,335,432,-40
8403.62,315,293,364,313,-15276,5488,3608,335,432,-40
8403.62,314,293,363,313,-15276,5488,3608,335,432,-40
8416.686,311,293,362,314,-15532,4924,3276,-632,1263,-389
8416.686,309,294,360,314,-15532,4924,3276,-632,1263,-389
8428.110999999999,308,296,358,312,-15532,4924,3276,-632,1263,-389
8428.110999999999,307,298,357,313,-15532,4924,3276,-632,1263,-389
8440.603,308,301,355,314,-15532,4924,3276,-632,1263,-389
8443.177,308,303,354,313,-15532,4924,3276,-632,1263,-389
8452.526,308,305,352,313,-15628,4488,3056,-333,1306,-115
8455.624,309,307,351,315,-15628,4488,3056,-333,1306,-115
8460.749,309,308,350,315,-15628,4488,3056,-333,1306,-115
8468.012,309,309,350,316,-15628,4488,3056,-333,1306,-115
8472.531,307,309,350,317,-15628,4488,3056,-333,1306,-115
8480.037,305,310,350,318,-15628,4488,3056,-333,1306,-115
8483.822,301,309,350,318,-15628,4488,3056,-333,1306,-115
8494.278,297,309,350,319,-15516,5004,3308,1066,30,-65
8502.72,290,310,353,320,-15516,5004,3308,1066,30,-65
8505.682999999999,283,311,354,320,-15516,5004,3308,1066,30,-65
8505.682999999999,276,313,357,322,-15516,5004,3308,1066,30,-65
8516.996000000001,266,314,360,322,-15516,5004,3308,1066,30,-65
8520.915,258,316,363,323,-15516,5004,3308,1066,30,-65
8528.520999999999,251,320,366,324,-15516,5004,3308,1066,30,-65
8532.673,246,323,369,326,-15660,4528,3124,1086,203,-2
8538.931,241,326,371,328,-15660,4528,3124,1086,203,-2
8544.777,236,328,373,329,-15660,4528,3124,1086,203,-2
8549.935,231,329,376,331,-15660,4528,3124,1086,203,-2
8553.197,226,330,379,334,-15660,4528,3124,1086,203,-2
8561.827,222,332,380,335,-15660,4528,3124,1086,203,-2
8572.304,218,331,380,337,-15660,4528,3124,1086,203,-2
8572.304,215,332,381,340,-15676,4812,3124,478,223,21
8578.412,211,332,381,342,-15676,4812,3124,478,223,21
8583.223,208,332,381,343,-15676,4812,3124,478,223,21
8590.375,205,333,381,346,-15676,4812,3124,478,223,21
8594.708,201,334,381,348,-15676,4812,3124,478,223,21
8599.038999999999,196,337,380,349,-15676,4812,3124,478,223,21
8606.78,193,338,379,350,-15676,4812,3124,478,223,21
8616.947,190,340,378,353,-15464,5248,2960,131,842,-230
8616.947,186,341,378,356,-15464,5248,2960,131,842,-230
8628.171,185,343,377,356,-15464,5248,2960,131,842,-230
8628.171,183,344,377,359,-15464,5248,2960,131,842,-230
8636.1,182,344,376,362,-15464,5248,2960,131,842,-230
8638.963,182,342,375,362,-15464,5248,2960,131,842,-230
8650.095000000001,180,342,374,363,-15464,5248,2960,131,842,-230
8658.172,180,342,372,365,-15704,5000,3160,120,1098,-370
8661.068,182,342,368,366,-15704,5000,3160,120,1098,-370
8670.338,184,341,364,366,-15704,5000,3160,120,1098,-370
8672.959,185,341,359,367,-15704,5000,3160,120,1098,-370
8681.941,186,341,354,367,-15704,5000,3160,120,1098,-370
8684.395,190,343,347,367,-15704,5000,3160,120,1098,-370
8694.215,192,344,341,369,-15560,4848,3060,669,1018,-420
8694.215,197,346,333,371,-15560,4848,3060,669,1018,-420
8701.511,201,346,327,372,-15560,4848,3060,669,1018,-420
8705.927000000001,205,345,318,373,-15560,4848,3060,669,1018,-420
8713.545,208,343,308,375,-15560,4848,3060,669,1018,-420
8716.978,213,342,299,375,-15560,4848,3060,669,1018,-420
8728.212,218,341,289,375,-15560,4848,3060,669,1018,-420
8736.217,223,341,280,376,-15752,4688,2840,684,1006,-371
8739.251,228,341,270,376,-15752,4688,2840,684,1006,-371
8748.086000000001,232,340,262,376,-15752,4688,2840,684,1006,-371
8750.448,238,339,254,376,-15752,4688,2840,684,1006,-371
8754.45,245,335,245,376,-15752,4688,2840,684,1006,-371
8761.067000000001,251,331,236,375,-15752,4688,2840,684,1006,-371
8772.285,259,325,226,373,-15752,4688,2840,684,1006,-371
8774.618999999999,267,321,218,373,-15604,4944,2556,913,1082,-194
8784.576,275,316,207,370,-15604,4944,2556,913,1082,-194
8784.576,282,312,200,367,-15604,4944,2556,913,1082,-194
8791.147,290,308,193,366,-15604,4944,2556,913,1082,-194
8794.66,296,304,186,363,-15604,4944,2556,913,1082,-194
8805.499,304,300,180,360,-15604,4944,2556,913,1082,-194
8813.551,311,295,174,358,-15772,4852,2448,458,1295,-95
8816.94,319,290,168,355,-15772,4852,2448,458,1295,-95
8825.812000000002,326,287,163,353,-15772,4852,2448,458,1295,-95
8828.234999999999,333,283,158,350,-15772,4852,2448,458,1295,-95
8832.122,340,279,154,348,-15772,4852,2448,458,1295,-95
8838.839,346,276,150,345,-15772,4852,2448,458,1295,-95
8844.429999999998,352,273,146,342,-15772,4852,2448,458,1295,-95
8849.741,358,272,144,341,-15616,4952,2128,143,1529,-311
8856.407000000001,365,270,140,338,-15616,4952,2128,143,1529,-311
8861.33,370,268,138,336,-15616,4952,2128,143,1529,-311
8868.449,376,267,136,333,-15616,4952,2128,143,1529,-311
8872.34,381,265,133,331,-15616,4952,2128,143,1529,-311
8883.925,387,264,132,329,-15616,4952,2128,143,1529,-311
8883.925,392,264,131,327,-15616,4952,2128,143,1529,-311
8894.706,397,263,131,325,-15792,4616,1776,70,972,-175
8897.556,401,264,131,324,-15792,4616,1776,70,972,-175
8906.689999999999,405,264,131,323,-15792,4616,1776,70,972,-175
8906.689999999999,409,264,133,322,-15792,4616,1776,70,972,-175
8916.856,413,264,134,321,-15792,4616,1776,70,972,-175
8925.006,417,265,137,320,-15792,4616,1776,70,972,-175
8927.707,421,267,140,320,-15792,4616,1776,70,972,-175
8937.029,423,269,144,320,-15680,4832,1688,336,312,-79
8938.869999999999,426,271,147,319,-15680,4832,1688,336,312,-79
8942.593,428,273,150,319,-15680,4832,1688,336,312,-79
8950.534,430,275,155,319,-15680,4832,1688,336,312,-79
8961.197,432,276,159,319,-15680,4832,1688,336,312,-79
8962.946,433,278,162,319,-15680,4832,1688,336,312,-79
8962.946,434,280,167,319,-15680,4832,1688,336,312,-79
8973.104,435,281,171,319,-15776,5044,1748,633,206,-392
8979.589,435,283,176,319,-15776,5044,1748,633,206,-392
8983.511,435,285,182,319,-15776,5044,1748,633,206,-392
8994.34,434,287,188,320,-15776,5044,1748,633,206,-392
9002.442000000001,433,289,193,321,-15776,5044,1748,633,206,-392
9005.63,431,291,198,321,-15776,5044,1748,633,206,-392
9014.761999999999,431,292,204,321,-15816,4936,2112,497,131,-453
9016.737,428,294,211,322,-15816,4936,2112,497,131,-453
9020.078,427,295,217,322,-15816,4936,2112,497,131,-453
9028.08,425,296,222,323,-15816,4936,2112,497,131,-453
9032.12,422,297,227,324,-15816,4936,2112,497,131,-453
9038.717999999999,419,298,232,324,-15816,4936,2112,497,131,-453
9045.280999999999,417,299,236,324,-15816,4936,2112,497,131,-453
9050.192,414,298,241,324,-15780,4608,2064,-89,459,-286
9057.415,411,298,247,325,-15780,4608,2064,-89,459,-286
9061.374,407,297,250,324,-15780,4608,2064,-89,459,-286
9065.861,404,296,254,324,-15780,4608,2064,-89,459,-286
9073.605000000001,400,295,258,325,-15780,4608,2064,-89,459,-286
9083.936,396,294,263,324,-15780,4608,2064,-89,459,-286
9083.936,393,292,267,323,-15780,4608,2064,-89,459,-286
9094.761999999999,390,291,271,323,-15852,4496,1900,-183,576,-391
9098.242,387,290,275,323,-15852,4496,1900,-183,576,-391
9106.792000000001,385,289,278,323,-15852,4496,1900,-183,576,-391
9106.792000000001,382,289,282,323,-15852,4496,1900,-183,576,-391
9117.095000000001,378,289,286,323,-15852,4496,1900,-183,576,-391
9125.928,374,290,290,323,-15852,4496,1900,-183,576,-391
9127.875,371,292,294,323,-15852,4496,1900,-183,576,-391
9136.95,370,294,298,323,-15824,4584,1564,198,265,-272
9139.321,367,297,302,323,-15824,4584,1564,198,265,-272
9149.998,365,299,305,323,-15824,4584,1564,198,265,-272
9149.998,363,302,307,323,-15824,4584,1564,198,265,-272
9161.318,361,305,308,324,-15824,4584,1564,198,265,-272
9161.318,359,307,309,324,-15824,4584,1564,198,265,-272
9172.573,356,309,309,323,-15916,4528,1712,379,36,-219
9176.09,354,312,310,324,-15916,4528,1712,379,36,-219
9176.09,352,314,310,323,-15916,4528,1712,379,36,-219
9184.742999999999,349,316,312,323,-15916,4528,1712,379,36,-219
9194.697,346,319,313,324,-15916,4528,1712,379,36,-219
9202.793,343,321,313,325,-15916,4528,1712,379,36,-219
9205.833999999999,340,323,313,324,-15916,4528,1712,379,36,-219
9205.833999999999,337,325,313,324,-15780,4368,1796,5,-247,90
9216.82,334,327,314,325,-15780,4368,1796,5,-247,90
9216.82,332,328,314,325,-15780,4368,1796,5,-247,90
9227.612000000001,329,329,314,324,-15780,4368,1796,5,-247,90
9235.686,326,331,314,325,-15780,4368,1796,5,-247,90
9239.505,323,334,314,325,-15780,4368,1796,5,-247,90
9239.505,321,335,313,325,-15780,4368,1796,5,-247,90
9250.135,319,336,313,325,-15780,4368,1796,5,-247,90
9253.940999999999,315,337,312,326,-15824,4300,2068,-640,-176,366
9262.745,311,337,312,325,-15824,4300,2068,-640,-176,366
9262.745,308,337,312,325,-15824,4300,2068,-640,-176,366
9272.624,304,335,313,325,-15824,4300,2068,-640,-176,366
9281.436,301,335,313,326,-15824,4300,2068,-640,-176,366
9282.755,297,334,313,326,-15824,4300,2068,-640,-176,366
9290.411,292,332,314,327,-15828,4624,1880,-526,-323,357
9295.405,289,330,315,328,-15828,4624,1880,-526,-323,357
9305.553,284,328,315,329,-15828,4624,1880,-526,-323,357
9305.553,280,326,315,330,-15828,4624,1880,-526,-323,357
9316.992,275,322,316,332,-15828,4624,1880,-526,-323,357
9316.992,271,321,318,333,-15828,4624,1880,-526,-323,357
9328.045,268,318,320,334,-15828,4624,1880,-526,-323,357
9331.78,263,316,321,335,-15776,4964,2208,-63,-307,133
9339.212,258,314,324,337,-15776,4964,2208,-63,-307,133
9343.508,252,312,325,337,-15776,4964,2208,-63,-307,133
9349.882,246,310,328,338,-15776,4964,2208,-63,-307,133
9356.227,242,308,330,339,-15776,4964,2208,-63,-307,133
9361.367,236,306,333,339,-15776,4964,2208,-63,-307,133
9370.534,231,304,335,339,-15776,4964,2208,-63,-307,133
9372.510999999999,225,301,339,341,-15872,4716,2264,-276,-213,274
9383.268,219,299,342,341,-15872,4716,2264,-276,-213,274
9383.268,214,297,345,341,-15872,4716,2264,-276,-213,274
9394.743999999999,209,295,349,342,-15872,4716,2264,-276,-213,274
9397.052,205,292,351,342,-15872,4716,2264,-276,-213,274
9406.834,201,292,353,342,-15872,4716,2264,-276,-213,274
9406.834,195,291,354,342,-15872,4716,2264,-276,-213,274
9417.081,191,291,356,343,-15708,4912,2104,-262,-31,206
9422.152,188,290,356,343,-15708,4912,2104,-262,-31,206
9427.775,187,289,356,342,-15708,4912,2104,-262,-31,206
9433.563,186,289,356,342,-15708,4912,2104,-262,-31,206
9439.163,186,289,355,342,-15708,4912,2104,-262,-31,206
9441.976999999999,187,289,352,340,-15708,4912,2104,-262,-31,206
9451.012999999999,189,289,350,341,-15756,4804,2212,-648,116,198
9460.801,191,290,347,340,-15756,4804,2212,-648,116,198
9465.387,194,290,344,339,-15756,4804,2212,-648,116,198
9473.050000000001,198,291,341,338,-15756,4804,2212,-648,116,198
9477.873000000001,202,292,338,337,-15756,4804,2212,-648,116,198
9481.064999999999,208,293,334,336,-15756,4804,2212,-648,116,198
9487.469000000001,213,295,332,336,-15756,4804,2212,-648,116,198
9491.594,218,296,329,335,-15704,4692,2040,-379,88,289
9494.581999999999,225,298,326,334,-15704,4692,2040,-379,88,289
9505.384,230,299,323,333,-15704,4692,2040,-379,88,289
9513.752999999999,238,301,321,333,-15704,4692,2040,-379,88,289
9516.923,244,303,320,333,-15704,4692,2040,-379,88,289
9520.114,251,305,317,332,-15704,4692,2040,-379,88,289
9528.533,259,307,316,331,-15704,4692,2040,-379,88,289
9531.899,265,310,313,332,-15848,4516,2028,-288,-52,290
9538.895,272,312,311,331,-15848,4516,2028,-288,-52,290
9545.038999999999,278,314,309,330,-15848,4516,2028,-288,-52,290
9550.034,285,317,308,330,-15848,4516,2028,-288,-52,290
9552.719,292,319,306,331,-15848,4516,2028,-288,-52,290
9562.419,299,321,305,330,-15848,4516,2028,-288,-52,290
9571.821,306,323,304,330,-15848,4516,2028,-288,-52,290
9572.562,314,324,303,331,-15764,4748,2008,-136,-225,502
9583.297999999999,318,325,302,330,-15764,4748,2008,-136,-225,502
9583.297999999999,323,325,301,330,-15764,4748,2008,-136,-225,502
9596.427,329,325,302,331,-15764,4748,2008,-136,-225,502
9596.427,334,325,302,331,-15764,4748,2008,-136,-225,502
9605.826000000001,339,325,302,331,-15764,4748,2008,-136,-225,502
9605.826000000001,344,324,302,331,-15764,4748,2008,-136,-225,502
9617.052,347,323,302,332,-15748,4892,1996,217,-298,522
9625.668,351,322,302,332,-15748,4892,1996,217,-298,522
9627.318000000001,353,320,301,331,-15748,4892,1996,217,-298,522
9630.52,355,319,301,332,-15748,4892,1996,217,-298,522
9640.677,356,317,301,333,-15748,4892,1996,217,-298,522
9648.442,359,315,300,333,-15748,4892,1996,217,-298,522
9650.464,360,312,300,333,-15784,4920,2256,146,-293,288
9661.12,363,310,300,334,-15784,4920,2256,146,-293,288
9661.12,364,307,299,334,-15784,4920,2256,146,-293,288
9670.939,364,306,299,334,-15784,4920,2256,146,-293,288
9673.355000000001,364,304,298,334,-15784,4920,2256,146,-293,288
9680.061,363,302,297,334,-15784,4920,2256,146,-293,288
9683.381000000001,364,301,297,333,-15784,4920,2256,146,-293,288
9694.364,364,299,297,333,-15600,5236,2368,17,-298,335
9702.413,363,299,297,333,-15600,5236,2368,17,-298,335
9705.677,363,299,297,333,-15600,5236,2368,17,-298,335
9708.041,362,298,297,333,-15600,5236,2368,17,-298,335
9717.25,361,297,298,333,-15600,5236,2368,17,-298,335
9720.236,359,296,298,333,-15600,5236,2368,17,-298,335
9727.574,358,296,298,333,-15600,5236,2368,17,-298,335
9733.109,356,295,298,333,-15700,5292,2172,63,-132,208
9738.507,355,294,299,333,-15700,5292,2172,63,-132,208
9741.113000000001,354,294,299,332,-15700,5292,2172,63,-132,208
9750.983,352,294,299,332,-15700,5292,2172,63,-132,208
9759.643,350,294,300,332,-15700,5292,2172,63,-132,208
9761.625,349,294,301,331,-15700,5292,2172,63,-132,208
9771.609,348,294,301,331,-15700,5292,2172,63,-132,208
9771.609,346,294,302,331,-15788,5172,2140,-127,-72,109
9778.299,343,293,303,331,-15788,5172,2140,-127,-72,109
9783.295,341,294,302,330,-15788,5172,2140,-127,-72,109
9790.215,340,293,303,330,-15788,5172,2140,-127,-72,109
9795.303,339,294,303,330,-15788,5172,2140,-127,-72,109
9805.521,337,294,303,329,-15788,5172,2140,-127,-72,109
9805.574,336,294,303,328,-15788,5172,2140,-127,-72,109
9817.249,334,294,304,329,-15672,5080,2228,-180,102,-163
9825.328000000001,332,295,304,329,-15672,5080,2228,-180,102,-163
9828.014,331,295,304,328,-15672,5080,2228,-180,102,-163
9828.014,329,295,305,329,-15672,5080,2228,-180,102,-163
9838.958,328,295,305,329,-15672,5080,2228,-180,102,-163
9838.958,325,296,306,327,-15672,5080,2228,-180,102,-163
9849.158,323,295,306,328,-15672,5080,2228,-180,102,-163
9856.662,321,295,306,327,-15700,5072,2512,-372,273,-88
9860.754,319,295,306,327,-15700,5072,2512,-372,273,-88
9868.653,317,294,306,327,-15700,5072,2512,-372,273,-88
9872.259,315,294,307,327,-15700,5072,2512,-372,273,-88
9880.81,313,294,307,326,-15700,5072,2512,-372,273,-88
9883.733,311,294,307,326,-15700,5072,2512,-372,273,-88
9894.079,308,293,308,326,-15628,4896,2324,-481,571,-114
9894.079,306,293,308,326,-15628,4896,2324,-481,571,-114
9905.669,304,294,308,325,-15628,4896,2324,-481,571,-114
9909.446000000002,303,294,309,325,-15628,4896,2324,-481,571,-114
9917.613,301,293,309,325,-15628,4896,2324,-481,571,-114
9921.037999999999,301,293,309,325,-15628,4896,2324,-481,571,-114
9927.623000000001,299,294,308,324,-15628,4896,2324,-481,571,-114
9934.405999999999,298,294,309,325,-15612,5168,2288,-63,347,-10
9939.203,297,295,309,324,-15612,5168,2288,-63,347,-10
9946.266,296,295,309,323,-15612,5168,2288,-63,347,-10
9950.739,295,295,309,324,-15612,5168,2288,-63,347,-10
9953.896,294,297,310,324,-15612,5168,2288,-63,347,-10
9961.28,295,297,309,324,-15612,5168,2288,-63,347,-10
9972.092999999999,294,298,310,324,-15612,5168,2288,-63,347,-10
9972.092999999999,294,299,309,325,-15728,4884,1772,-117,122,36
9979.472,295,300,309,324,-15728,4884,1772,-117,122,36
9985.328000000001,294,301,309,324,-15728,4884,1772,-117,122,36
9992.095000000001,295,302,308,324,-15728,4884,1772,-117,122,36
9994.61,296,303,308,324,-15728,4884,1772,-117,122,36
10005.815,297,305,308,324,-15728,4884,1772,-117,122,36
10005.815,298,307,307,324,-15728,4884,1772,-117,122,36
10017.022,298,309,307,325,-15748,5036,2072,-109,225,-6
10019.978,300,312,305,324,-15748,5036,2072,-109,225,-6
10028.959,302,314,304,323,-15748,5036,2072,-109,225,-6
10028.959,303,317,303,324,-15748,5036,2072,-109,225,-6
10039.084,306,321,302,324,-15748,5036,2072,-109,225,-6
10047.269,308,323,301,323,-15748,5036,2072,-109,225,-6
10050.576,309,326,299,324,-15748,5036,2072,-109,225,-6
10059.153,312,328,299,324,-15700,4816,1844,-102,18,-16
10063.693000000001,316,329,298,324,-15700,4816,1844,-102,18,-16
10070.938999999998,318,331,297,324,-15700,4816,1844,-102,18,-16
10074.469000000001,321,332,296,325,-15700,4816,1844,-102,18,-16
10074.469000000001,325,333,295,326,-15700,4816,1844,-102,18,-16
10083.81,330,334,295,326,-15700,4816,1844,-102,18,-16
10089.58,333,335,294,326,-15700,4816,1844,-102,18,-16
10094.319000000001,336,335,294,327,-15716,5056,2088,38,-208,56
10101.922999999999,339,336,293,327,-15716,5056,2088,38,-208,56
10105.585,342,337,292,326,-15716,5056,2088,38,-208,56
10110.163,344,338,292,327,-15716,5056,2088,38,-208,56
10116.909,347,339,291,328,-15716,5056,2088,38,-208,56
10122.951000000001,350,339,290,327,-15716,5056,2088,38,-208,56
10127.796,353,339,289,328,-15716,5056,2088,38,-208,56
10134.15,355,339,288,328,-15656,4992,2200,220,-158,130
10139.267,357,341,288,328,-15656,4992,2200,220,-158,130
10146.333,359,341,287,327,-15656,4992,2200,220,-158,130
10150.701,360,340,287,327,-15656,4992,2200,220,-158,130
10161.417,361,339,287,328,-15656,4992,2200,220,-158,130
10161.417,362,338,288,327,-15656,4992,2200,220,-158,130
10172.125,363,337,289,327,-15656,4992,2200,220,-158,130
10175.571,364,335,289,328,-15804,4788,2132,-112,59,85
10184.965999999999,365,333,290,327,-15804,4788,2132,-112,59,85
10184.965999999999,365,333,290,327,-15804,4788,2132,-112,59,85
10194.643,365,331,291,328,-15804,4788,2132,-112,59,85
10200.686,365,329,292,327,-15804,4788,2132,-112,59,85
10205.25,365,327,292,327,-15804,4788,2132,-112,59,85
10214.173,366,325,293,327,-15804,4788,2132,-112,59,85
10217.076000000001,365,323,294,328,-15652,4684,1968,-352,86,51
10219.864,364,322,294,328,-15652,4684,1968,-352,86,51
10228.328,362,320,295,328,-15652,4684,1968,-352,86,51
10233.337000000001,360,318,295,328,-15652,4684,1968,-352,86,51
10239.366,358,317,295,328,-15652,4684,1968,-352,86,51
10239.366,355,315,295,328,-15652,4684,1968,-352,86,51
10250.382,354,312,296,328,-15652,4684,1968,-352,86,51
10259.362,351,311,297,329,-15764,5056,1976,-130,-61,154
10259.362,346,309,297,330,-15764,5056,1976,-130,-61,154
10268.153999999999,344,307,298,330,-15764,5056,1976,-130,-61,154
10272.188999999998,339,304,299,330,-15764,5056,1976,-130,-61,154
10278.083999999999,334,301,299,330,-15764,5056,1976,-130,-61,154
10283.333,330,299,299,330,-15764,5056,1976,-130,-61,154
10289.871,325,296,301,330,-15764,5056,1976,-130,-61,154
10301.181,322,293,302,331,-15568,5248,1920,128,-310,35
10305.442,316,288,302,331,-15568,5248,1920,128,-310,35
10308.916,313,286,303,330,-15568,5248,1920,128,-310,35
10316.890000000001,308,281,304,331,-15568,5248,1920,128,-310,35
10321.046,305,279,304,331,-15568,5248,1920,128,-310,35
10327.875,302,276,303,329,-15568,5248,1920,128,-310,35
10330.652,298,274,304,330,-15568,5248,1920,128,-310,35
10330.652,296,271,305,331,-15544,5296,2176,139,-456,-92
10340.054,292,270,305,330,-15544,5296,2176,139,-456,-92
10350.188,289,269,306,330,-15544,5296,2176,139,-456,-92
10350.188,286,268,306,330,-15544,5296,2176,139,-456,-92
10361.009,284,268,307,330,-15544,5296,2176,139,-456,-92
10370.573999999999,282,269,306,329,-15544,5296,2176,139,-456,-92
10372.778999999999,280,270,307,329,-15544,5296,2176,139,-456,-92
10381.411,280,272,307,328,-15588,5064,2508,-261,-295,74
10383.265,278,275,306,327,-15588,5064,2508,-261,-295,74
10388.235,279,278,306,327,-15588,5064,2508,-261,-295,74
10393.826000000001,279,282,305,326,-15588,5064,2508,-261,-295,74
10401.41,280,287,304,326,-15588,5064,2508,-261,-295,74
10405.851,282,292,304,324,-15588,5064,2508,-261,-295,74
10413.335,282,298,304,324,-15844,4400,2376,-807,257,150
10416.801,284,306,305,323,-15844,4400,2376,-807,257,150
10427.851999999999,286,311,305,322,-15844,4400,2376,-807,257,150
10427.851999999999,286,315,306,322,-15844,4400,2376,-807,257,150
10438.831,287,320,306,322,-15844,4400,2376,-807,257,150
10438.831,287,325,306,321,-15844,4400,2376,-807,257,150
10449.942000000001,290,330,307,321,-15844,4400,2376,-807,257,150
10454.255,292,335,309,322,-15720,4524,2196,-793,74,226
10461.385999999999,296,340,312,323,-15720,4524,2196,-793,74,226
10466.189999999999,298,344,315,323,-15720,4524,2196,-793,74,226
10472.524,298,346,318,323,-15720,4524,2196,-793,74,226
10474.456999999999,298,351,321,325,-15720,4524,2196,-793,74,226
10483.881,298,354,323,325,-15720,4524,2196,-793,74,226
10492.533,297,356,325,325,-15720,4524,2196,-793,74,226
10494.792,295,357,327,325,-15612,4908,2348,-1,-364,805
10494.792,292,357,328,324,-15612,4908,2348,-1,-364,805
10509.481,290,356,328,322,-15612,4908,2348,-1,-364,805
10510.02,288,356,330,322,-15612,4908,2348,-1,-364,805
10517.148000000001,286,355,332,322,-15612,4908,2348,-1,-364,805
10523.780999999999,282,354,335,320,-15612,4908,2348,-1,-364,805
10528.435,276,350,336,318,-15612,4908,2348,-1,-364,805
10538.655,272,344,338,318,-15504,5748,2512,553,-557,954
10539.006000000001,268,336,340,317,-15504,5748,2512,553,-557,954
10549.716,265,330,341,316,-15504,5748,2512,553,-557,954
10549.716,263,323,344,316,-15504,5748,2512,553,-557,954
10562.755,262,319,346,315,-15504,5748,2512,553,-557,954
10567.182,261,314,348,313,-15504,5748,2512,553,-557,954
10575.035,259,309,351,313,-15504,5748,2512,553,-557,954
10579.183,258,305,351,313,-15408,5872,2500,203,-53,358
10583.736,258,302,351,312,-15408,5872,2500,203,-53,358
10584.749,260,299,350,311,-15408,5872,2500,203,-53,358
10594.421,263,296,348,311,-15408,5872,2500,203,-53,358
10603.505000000001,266,293,346,311,-15408,5872,2500,203,-53,358
10605.813,271,291,342,310,-15408,5872,2500,203,-53,358
10610.122000000001,275,289,339,310,-15408,5872,2500,203,-53,358
10617.087,280,286,335,311,-15600,5292,2140,-664,575,90
10621.316,286,281,331,310,-15600,5292,2140,-664,575,90
10627.66,290,278,328,310,-15600,5292,2140,-664,575,90
10635.052,293,274,326,311,-15600,5292,2140,-664,575,90
10639.388,296,270,322,311,-15600,5292,2140,-664,575,90
10648.097,299,265,318,311,-15600,5292,2140,-664,575,90
10650.243,301,260,314,312,-15600,5292,2140,-664,575,90
10660.633,302,257,312,312,-15704,4832,1664,-885,384,169
10662.706,305,254,307,312,-15704,4832,1664,-885,384,169
10672.546,306,253,304,311,-15704,4832,1664,-885,384,169
10672.546,309,251,301,313,-15704,4832,1664,-885,384,169
10679.344000000001,312,250,298,313,-15704,4832,1664,-885,384,169
10683.732,313,250,294,312,-15704,4832,1664,-885,384,169
10694.421999999999,314,249,291,313,-15704,4832,1664,-885,384,169
10702.451,315,250,288,313,-15556,5164,1784,-201,-584,384
10705.552000000001,316,249,284,312,-15556,5164,1784,-201,-584,384
10709.298999999999,316,250,280,312,-15556,5164,1784,-201,-584,384
10717.399000000001,316,250,277,313,-15556,5164,1784,-201,-584,384
10726.082,315,251,273,312,-15556,5164,1784,-201,-584,384
10728.077000000001,312,252,269,311,-15556,5164,1784,-201,-584,384
10738.778,312,253,266,312,-15552,5432,2188,178,-913,291
10738.778,310,255,261,311,-15552,5432,2188,178,-913,291
10745.329,309,256,258,310,-15552,5432,2188,178,-913,291
10750.075,306,257,254,309,-15552,5432,2188,178,-913,291
10757.319000000001,302,259,251,308,-15552,5432,2188,178,-913,291
10761.818,297,260,247,306,-15552,5432,2188,178,-913,291
10772.207,291,262,243,305,-15552,5432,2188,178,-913,291
10772.207,286,264,239,304,-15428,5776,2528,92,-839,152
10783.455,281,266,235,302,-15428,5776,2528,92,-839,152
10785.658,275,268,232,301,-15428,5776,2528,92,-839,152
10795.684,266,270,230,300,-15428,5776,2528,92,-839,152
10795.684,258,272,229,300,-15428,5776,2528,92,-839,152
10805.653,250,274,229,299,-15428,5776,2528,92,-839,152
10805.653,240,276,229,298,-15428,5776,2528,92,-839,152
10817.275,229,279,230,298,-15676,5268,2496,-694,76,-181
10824.902,214,282,232,298,-15676,5268,2496,-694,76,-181
10829.088,199,285,235,298,-15676,5268,2496,-694,76,-181
10837.377,187,287,237,299,-15676,5268,2496,-694,76,-181
10841.686,171,290,241,300,-15676,5268,2496,-694,76,-181
10849.623,156,293,244,300,-15676,5268,2496,-694,76,-181
10850.858,143,295,249,302,-15676,5268,2496,-694,76,-181
10861.368,130,300,256,304,-15464,5204,2296,-248,-148,-76
10861.368,120,303,262,307,-15464,5204,2296,-248,-148,-76
10872.718,112,307,270,312,-15464,5204,2296,-248,-148,-76
10872.718,106,308,277,316,-15464,5204,2296,-248,-148,-76
10880.527,101,310,283,319,-15464,5204,2296,-248,-148,-76
10883.695,97,311,288,321,-15464,5204,2296,-248,-148,-76
10894.608,96,312,295,324,-15464,5204,2296,-248,-148,-76
10899.438999999998,98,313,301,325,-15600,5400,2556,198,-404,173
10905.451,100,313,307,326,-15600,5400,2556,198,-404,173
10915.050000000001,102,314,311,326,-15600,5400,2556,198,-404,173
10917.564,106,314,316,328,-15600,5400,2556,198,-404,173
10927.335,112,314,319,327,-15600,5400,2556,198,-404,173
10927.335,121,314,322,327,-15600,5400,2556,198,-404,173
10933.287999999999,131,314,324,327,-15484,5548,2576,-148,-329,168
10938.641,142,315,325,327,-15484,5548,2576,-148,-329,168
10945.114,152,315,326,327,-15484,5548,2576,-148,-329,168
10950.26,162,315,327,327,-15484,5548,2576,-148,-329,168
10958.577,171,315,328,327,-15484,5548,2576,-148,-329,168
10961.293,179,316,328,325,-15484,5548,2576,-148,-329,168
10972.529,187,316,330,325,-15484,5548,2576,-148,-329,168
10974.214999999998,195,316,330,324,-15528,5380,2760,-1054,84,-165
10983.285,205,316,331,324,-15528,5380,2760,-1054,84,-165
10986.148,212,316,332,323,-15528,5380,2760,-1054,84,-165
10994.679,219,315,333,323,-15528,5380,2760,-1054,84,-165
10998.401,227,315,333,323,-15528,5380,2760,-1054,84,-165
11005.967999999999,234,315,333,322,-15528,5380,2760,-1054,84,-165
11016.807999999999,242,314,333,322,-15528,5380,2760,-1054,84,-165
11018.903,250,314,333,322,-15568,5116,2512,-1507,318,-222
11028.85,257,312,332,322,-15568,5116,2512,-1507,318,-222
11028.85,264,311,332,321,-15568,5116,2512,-1507,318,-222
11035.589999999998,269,310,332,321,-15568,5116,2512,-1507,318,-222
11039.111,274,310,331,320,-15568,5116,2512,-1507,318,-222
11049.967999999999,278,309,330,319,-15568,5116,2512,-1507,318,-222
11058.015,284,309,330,319,-15648,4736,2572,-1073,35,-18
11061.336000000001,288,308,330,318,-15648,4736,2572,-1073,35,-18
11070.41,292,307,330,317,-15648,4736,2572,-1073,35,-18
11072.623,297,306,330,317,-15648,4736,2572,-1073,35,-18
11076.798999999999,302,304,331,317,-15648,4736,2572,-1073,35,-18
11083.375,305,304,333,316,-15648,4736,2572,-1073,35,-18
11094.17,308,303,334,316,-15648,4736,2572,-1073,35,-18
11096.759,311,301,335,316,-15500,5132,2368,-345,-579,196
11106.966,314,299,336,315,-15500,5132,2368,-345,-579,196
11106.966,318,297,337,315,-15500,5132,2368,-345,-579,196
11113.544,321,295,338,315,-15500,5132,2368,-345,-579,196
11117.884,324,294,337,315,-15500,5132,2368,-345,-579,196
11127.734,327,291,335,314,-15500,5132,2368,-345,-579,196
11136.217,329,289,333,315,-15500,5132,2368,-345,-579,196
11139.025,332,287,331,315,-15596,5120,2592,-400,-817,457
11142.726,334,286,328,314,-15596,5120,2592,-400,-817,457
11151.325,337,283,325,314,-15596,5120,2592,-400,-817,457
11160.966999999999,338,281,322,315,-15596,5120,2592,-400,-817,457
11161.82,341,280,319,314,-15596,5120,2592,-400,-817,457
11172.513,343,279,316,313,-15596,5120,2592,-400,-817,457
11172.513,345,277,313,314,-15472,5292,2780,-519,-580,328
11184.328000000001,348,276,310,314,-15472,5292,2780,-519,-580,328
11186.664999999999,350,275,308,313,-15472,5292,2780,-519,-580,328
11194.559,352,273,306,313,-15472,5292,2780,-519,-580,328
11199.145,354,274,304,312,-15472,5292,2780,-519,-580,328
11205.399,354,274,301,312,-15472,5292,2780,-519,-580,328
11211.271999999999,355,275,299,311,-15472,5292,2780,-519,-580,328
11217.895999999999,355,275,297,312,-15492,5368,2820,-541,-558,217
11219.663,354,277,295,311,-15492,5368,2820,-541,-558,217
11228.716,354,278,292,311,-15492,5368,2820,-541,-558,217
11238.724,354,280,290,312,-15492,5368,2820,-541,-558,217
11239.167,355,281,286,313,-15492,5368,2820,-541,-558,217
11250.202,356,282,283,313,-15492,5368,2820,-541,-558,217
11250.202,358,283,281,313,-15492,5368,2820,-541,-558,217
11261.053,360,284,279,314,-15432,5572,3036,-288,-648,197
11265.038,363,285,277,314,-15432,5572,3036,-288,-648,197
11274.651,364,285,276,315,-15432,5572,3036,-288,-648,197
11274.651,366,286,276,315,-15432,5572,3036,-288,-648,197
11283.64,368,286,275,316,-15432,5572,3036,-288,-648,197
11290.584,370,286,275,316,-15432,5572,3036,-288,-648,197
11294.347,372,287,275,316,-15456,5276,3016,-279,-523,228
11302.069,373,287,274,316,-15456,5276,3016,-279,-523,228
11306.148000000001,369,288,275,316,-15456,5276,3016,-279,-523,228
11310.502,366,288,275,316,-15456,5276,3016,-279,-523,228
11318.127,364,289,276,316,-15456,5276,3016,-279,-523,228
11328.172999999999,363,290,276,316,-15456,5276,3016,-279,-523,228
11328.172999999999,362,290,277,316,-15456,5276,3016,-279,-523,228
11339.171,361,291,278,316,-15360,5388,3236,-325,-575,301
11339.171,361,292,279,315,-15360,5388,3236,-325,-575,301
11349.914,361,293,281,316,-15360,5388,3236,-325,-575,301
11355.175,362,294,283,316,-15360,5388,3236,-325,-575,301
11360.817000000001,364,296,286,316,-15360,5388,3236,-325,-575,301
11367.692,366,297,287,316,-15360,5388,3236,-325,-575,301
11372.673,369,299,290,318,-15360,5388,3236,-325,-575,301
11379.262999999999,370,300,291,319,-15464,5680,3400,-203,-399,172
11384.355,372,300,292,319,-15464,5680,3400,-203,-399,172
11394.404,369,300,295,322,-15464,5680,3400,-203,-399,172
11402.414999999999,362,300,298,323,-15464,5680,3400,-203,-399,172
11405.723,355,299,302,324,-15464,5680,3400,-203,-399,172
11405.723,350,299,306,325,-15464,5680,3400,-203,-399,172
11418.333999999999,345,299,311,328,-15372,5292,3180,-237,-123,124
11418.333999999999,341,299,316,330,-15372,5292,3180,-237,-123,124
11428.947,337,300,320,332,-15372,5292,3180,-237,-123,124
11432.316,336,301,325,333,-15372,5292,3180,-237,-123,124
11438.85,335,301,328,333,-15372,5292,3180,-237,-123,124
11445.627999999999,335,302,331,333,-15372,5292,3180,-237,-123,124
11450.101,335,301,334,334,-15372,5292,3180,-237,-123,124
11457.732,335,302,337,335,-15464,5496,3304,-160,-119,121
11461.698999999999,335,303,339,335,-15464,5496,3304,-160,-119,121
11472.427,333,302,341,335,-15464,5496,3304,-160,-119,121
11472.427,332,301,342,336,-15464,5496,3304,-160,-119,121
11483.727,330,300,343,335,-15464,5496,3304,-160,-119,121
11492.57,328,299,342,335,-15464,5496,3304,-160,-119,121
11494.832,328,297,342,335,-15464,5496,3304,-160,-119,121
11494.832,326,296,341,335,-15308,5560,3016,-60,-70,124
11505.592999999999,326,296,339,334,-15308,5560,3016,-60,-70,124
11512.022,326,295,338,333,-15308,5560,3016,-60,-70,124
11518.162,327,293,337,333,-15308,5560,3016,-60,-70,124
11523.654,327,292,336,331,-15308,5560,3016,-60,-70,124
11529.005,328,291,335,331,-15308,5560,3016,-60,-70,124
11530.832,328,291,335,330,-15308,5560,3016,-60,-70,124
11539.896,329,292,334,329,-15352,5636,3048,-15,-103,-28
11548.299,329,293,333,326,-15352,5636,3048,-15,-103,-28
11550.824,329,294,333,326,-15352,5636,3048,-15,-103,-28
11561.351,330,296,332,325,-15352,5636,3048,-15,-103,-28
11561.351,331,297,331,323,-15352,5636,3048,-15,-103,-28
11569.164999999999,331,298,329,322,-15352,5636,3048,-15,-103,-28
11572.482,332,299,328,322,-15352,5636,3048,-15,-103,-28
11583.282000000001,331,300,327,321,-15340,5356,3140,-414,114,-30
11591.364,331,301,324,319,-15340,5356,3140,-414,114,-30
11594.258,333,303,323,318,-15340,5356,3140,-414,114,-30
11602.402,334,304,321,318,-15340,5356,3140,-414,114,-30
11605.378999999999,334,305,319,316,-15340,5356,3140,-414,114,-30
11605.378999999999,335,306,318,315,-15340,5356,3140,-414,114,-30
11618.078000000001,337,308,316,315,-15388,5380,3092,-445,142,-9
11621.547,340,310,313,314,-15388,5380,3092,-445,142,-9
11627.483,341,311,312,313,-15388,5380,3092,-445,142,-9
11634.76,343,312,310,311,-15388,5380,3092,-445,142,-9
11638.851,345,314,309,311,-15388,5380,3092,-445,142,-9
11645.314,346,315,307,310,-15388,5380,3092,-445,142,-9
11650.565,347,315,306,309,-15388,5380,3092,-445,142,-9
11659.439,348,316,305,309,-15436,5280,3052,-206,201,-55
11661.548,350,317,303,308,-15436,5280,3052,-206,201,-55
11672.199,350,318,302,307,-15436,5280,3052,-206,201,-55
11672.199,351,320,301,306,-15436,5280,3052,-206,201,-55
11683.484,352,321,300,305,-15436,5280,3052,-206,201,-55
11683.484,352,322,298,304,-15436,5280,3052,-206,201,-55
11690.609999999999,351,324,297,304,-15436,5280,3052,-206,201,-55
11694.648000000001,352,325,296,304,-15340,5368,2944,0,87,-9
11705.804,352,326,295,303,-15340,5368,2944,0,87,-9
11705.804,352,327,295,302,-15340,5368,2944,0,87,-9
11716.693,352,327,294,303,-15340,5368,2944,0,87,-9
11719.489,352,327,293,303,-15340,5368,2944,0,87,-9
11719.489,351,328,292,302,-15340,5368,2944,0,87,-9
11728.872000000001,350,328,292,302,-15340,5368,2944,0,87,-9
11737.465,350,329,292,302,-15340,5368,2944,0,87,-9
11739.881000000001,350,329,291,302,-15252,5320,2920,-64,96,-43
11745.135,351,329,291,301,-15252,5320,2920,-64,96,-43
11750.016,351,329,291,302,-15252,5320,2920,-64,96,-43
11756.162,351,329,291,302,-15252,5320,2920,-64,96,-43
11761.545999999998,350,330,291,301,-15252,5320,2920,-64,96,-43
11770.555,350,330,291,301,-15252,5320,2920,-64,96,-43
11772.220000000001,349,330,290,301,-15252,5320,2920,-64,96,-43
11783.226,349,330,290,302,-15416,5540,3016,-96,79,-66
11783.226,348,330,290,301,-15416,5540,3016,-96,79,-66
11789.985,349,329,290,301,-15416,5540,3016,-96,79,-66
11794.501,348,328,290,302,-15416,5540,3016,-96,79,-66
11801.848,347,328,290,302,-15416,5540,3016,-96,79,-66
11806.151,346,327,289,302,-15416,5540,3016,-96,79,-66
11816.489000000001,344,327,290,303,-15416,5540,3016,-96,79,-66
11818.504,344,327,290,304,-15304,5416,2928,-102,-73,-62
11827.81,343,326,289,303,-15304,5416,2928,-102,-73,-62
11827.81,342,326,288,302,-15304,5416,2928,-102,-73,-62
11839.074999999999,342,325,289,304,-15304,5416,2928,-102,-73,-62
11842.614,341,325,288,304,-15304,5416,2928,-102,-73,-62
11850.329,341,325,288,304,-15304,5416,2928,-102,-73,-62
11854.213,339,324,288,305,-15304,5416,2928,-102,-73,-62
11861.071,339,324,288,306,-15432,5236,3120,-89,-146,-30
11861.071,338,324,288,305,-15432,5236,3120,-89,-146,-30
11872.356,337,323,288,306,-15432,5236,3120,-89,-146,-30
11881.445,338,322,288,308,-15432,5236,3120,-89,-146,-30
11881.445,337,321,288,307,-15432,5236,3120,-89,-146,-30
11887.748,336,320,288,307,-15432,5236,3120,-89,-146,-30
11895.421,335,319,289,309,-15432,5236,3120,-89,-146,-30
11905.315,334,318,289,309,-15348,5208,2992,-56,-215,138
11905.315,334,318,289,309,-15348,5208,2992,-56,-215,138
11912.243999999999,334,317,289,310,-15348,5208,2992,-56,-215,138
11918.445,333,317,290,311,-15348,5208,2992,-56,-215,138
11924.359,333,317,290,310,-15348,5208,2992,-56,-215,138
11927.793,332,318,290,311,-15348,5208,2992,-56,-215,138
11938.81,330,317,290,312,-15412,5180,2992,-237,-132,328
11946.895,330,317,290,311,-15412,5180,2992,-237,-132,328
11950.371000000001,329,317,290,311,-15412,5180,2992,-237,-132,328
11959.163,327,316,291,312,-15412,5180,2992,-237,-132,328
11961.574,326,315,291,312,-15412,5180,2992,-237,-132,328
11965.782000000001,324,314,289,311,-15412,5180,2992,-237,-132,328
11972.289,322,313,290,311,-15412,5180,2992,-237,-132,328
11978.38,321,313,290,311,-15296,4684,2560,-378,-126,997
11983.516,319,312,289,310,-15296,4684,2560,-378,-126,997
11989.657,317,311,290,310,-15296,4684,2560,-378,-126,997
11994.973999999998,314,309,290,310,-15296,4684,2560,-378,-126,997
12002.721,312,309,290,308,-15296,4684,2560,-378,-126,997
12005.326000000001,310,307,290,308,-15296,4684,2560,-378,-126,997
12016.689,309,306,290,308,-15296,4684,2560,-378,-126,997
12018.705,307,305,290,307,-15216,5216,3652,445,-902,2642
12028.223,305,304,290,306,-15216,5216,3652,445,-902,2642
12037.498,304,303,291,306,-15216,5216,3652,445,-902,2642
12040.848,302,300,290,305,-15216,5216,3652,445,-902,2642
12043.412,301,300,291,305,-15216,5216,3652,445,-902,2642
12050.027999999998,300,297,290,304,-15216,5216,3652,445,-902,2642
12060.872,299,295,290,305,-15644,2160,1972,-797,-605,3714
12063.372,298,293,290,303,-15644,2160,1972,-797,-605,3714
12073.392,296,292,289,303,-15644,2160,1972,-797,-605,3714
12073.392,294,291,289,304,-15644,2160,1972,-797,-605,3714
12083.833,294,290,290,304,-15644,2160,1972,-797,-605,3714
12083.833,294,290,289,303,-15644,2160,1972,-797,-605,3714
12094.804,295,289,288,304,-15644,2160,1972,-797,-605,3714
12094.804,296,289,288,306,-15328,4300,3344,-2602,-2713,6148
12106.044,299,288,287,307,-15328,4300,3344,-2602,-2713,6148
12115.054,301,289,287,309,-15328,4300,3344,-2602,-2713,6148
12120.034,304,288,287,312,-15328,4300,3344,-2602,-2713,6148
12128.01,306,288,287,314,-15328,4300,3344,-2602,-2713,6148
12136.225,306,286,288,316,-15328,4300,3344,-2602,-2713,6148
12139.138,303,285,288,318,-14600,2480,1996,-3063,-1818,7614
12148.184000000001,299,284,285,318,-14600,2480,1996,-3063,-1818,7614
12150.204,294,284,286,319,-14600,2480,1996,-3063,-1818,7614
12158.051,291,283,287,321,-14600,2480,1996,-3063,-1818,7614
12161.194,286,283,287,322,-14600,2480,1996,-3063,-1818,7614
12172.444000000001,284,282,287,323,-14600,2480,1996,-3063,-1818,7614
12180.498,281,280,287,326,-14600,2480,1996,-3063,-1818,7614
12183.465,279,279,287,327,-13892,3728,2584,-3789,-4996,10852
12186.213,278,277,287,328,-13892,3728,2584,-3789,-4996,10852
12200.99,276,276,284,330,-13892,3728,2584,-3789,-4996,10852
12205.145999999999,276,275,283,333,-13892,3728,2584,-3789,-4996,10852
12213.016,275,273,279,336,-13892,3728,2584,-3789,-4996,10852
12217.451000000001,274,271,277,340,-13892,3728,2584,-3789,-4996,10852
12226.32,270,269,272,342,-12600,5444,2580,-3648,-6628,12536
12228.384,267,268,270,347,-12600,5444,2580,-3648,-6628,12536
12235.626,265,269,270,355,-12600,5444,2580,-3648,-6628,12536
12239.414,263,267,269,365,-12600,5444,2580,-3648,-6628,12536
12250.213,265,264,267,379,-12600,5444,2580,-3648,-6628,12536
12258.265,268,265,266,395,-12600,5444,2580,-3648,-6628,12536
12261.435000000001,283,268,266,416,-11800,7808,3464,-3878,-8847,13768
12269.377999999999,318,273,267,438,-11800,7808,3464,-3878,-8847,13768
12272.169,355,277,270,460,-11800,7808,3464,-3878,-8847,13768
12283.274000000001,393,282,273,482,-11800,7808,3464,-3878,-8847,13768
12291.364,433,285,277,513,-11800,7808,3464,-3878,-8847,13768
12294.516,460,286,278,544,-11800,7808,3464,-3878,-8847,13768
12301.27,484,286,278,579,-10208,8752,5372,-4085,-10219,15021
12305.994,504,285,271,614,-10208,8752,5372,-4085,-10219,15021
12313.973,518,283,264,644,-10208,8752,5372,-4085,-10219,15021
12318.667,531,281,254,679,-10208,8752,5372,-4085,-10219,15021
12327.921999999999,539,280,245,710,-10208,8752,5372,-4085,-10219,15021
12337.017,544,278,235,749,-10208,8752,5372,-4085,-10219,15021
12338.815,546,277,229,784,-8928,11980,6192,-3786,-10270,14314
12349.681999999999,547,277,226,830,-8928,11980,6192,-3786,-10270,14314
12354.498,545,276,226,862,-8928,11980,6192,-3786,-10270,14314
12361.383,542,274,226,884,-8928,11980,6192,-3786,-10270,14314
12366.403999999999,536,267,228,898,-8928,11980,6192,-3786,-10270,14314
12372.147,527,256,231,904,-8928,11980,6192,-3786,-10270,14314
12383.73,518,245,233,899,-7240,12912,6536,-6918,-8950,12606
12383.73,504,242,237,887,-7240,12912,6536,-6918,-8950,12606
12394.838,489,246,240,872,-7240,12912,6536,-6918,-8950,12606
12394.838,471,258,246,849,-7240,12912,6536,-6918,-8950,12606
12405.706,456,270,250,826,-7240,12912,6536,-6918,-8950,12606
12415.945000000002,441,283,256,798,-7240,12912,6536,-6918,-8950,12606
12419.614,430,294,260,771,-6436,12056,8444,-10511,-9212,12565
12428.618,421,305,263,737,-6436,12056,8444,-10511,-9212,12565
12428.618,413,313,266,709,-6436,12056,8444,-10511,-9212,12565
12439.132000000001,407,321,269,674,-6436,12056,8444,-10511,-9212,12565
12449.787,400,326,271,637,-6436,12056,8444,-10511,-9212,12565
12449.787,396,327,274,608,-6436,12056,8444,-10511,-9212,12565
12461.114,392,326,274,573,-5896,11616,10256,-11629,-8127,11344
12465.242999999999,388,321,268,538,-5896,11616,10256,-11629,-8127,11344
12472.538,384,315,263,511,-5896,11616,10256,-11629,-8127,11344
12483.882,380,306,258,480,-5896,11616,10256,-11629,-8127,11344
12484.299,374,297,252,449,-5896,11616,10256,-11629,-8127,11344
12495.329,368,286,248,421,-5896,11616,10256,-11629,-8127,11344
12503.992,363,275,246,397,-4548,11720,11524,-9672,-8332,9914
12506.16,357,260,243,366,-4548,11720,11524,-9672,-8332,9914
12510.007,352,251,244,347,-4548,11720,11524,-9672,-8332,9914
12519.201000000001,344,238,251,323,-4548,11720,11524,-9672,-8332,9914
12527.85,337,229,258,301,-4548,11720,11524,-9672,-8332,9914
12536.998000000001,325,219,267,278,-4548,11720,11524,-9672,-8332,9914
12539.474,315,212,274,260,-3296,13172,12972,-5285,-7621,7217
12549.367,300,205,283,235,-3296,13172,12972,-5285,-7621,7217
12554.546999999999,290,204,289,221,-3296,13172,12972,-5285,-7621,7217
12561.06,276,206,300,203,-3296,13172,12972,-5285,-7621,7217
12569.487000000001,265,209,308,188,-3296,13172,12972,-5285,-7621,7217
12572.284,254,213,316,172,-3296,13172,12972,-5285,-7621,7217
12581.813,242,217,321,162,-3296,13172,12972,-5285,-7621,7217
12583.893,229,222,327,149,-4024,10688,13192,-3733,-7260,5497
12594.749,216,231,332,140,-4024,10688,13192,-3733,-7260,5497
12594.749,206,240,334,132,-4024,10688,13192,-3733,-7260,5497
12605.556999999999,196,251,336,123,-4024,10688,13192,-3733,-7260,5497
12614.75,186,266,335,115,-4024,10688,13192,-3733,-7260,5497
12619.407000000001,177,281,333,109,-4024,10688,13192,-3733,-7260,5497
12627.423999999999,170,301,331,101,-2728,10972,12688,-5692,-5946,5111
12628.74,163,319,327,95,-2728,10972,12688,-5692,-5946,5111
12639.334,160,332,328,92,-2728,10972,12688,-5692,-5946,5111
12648.187,157,341,327,87,-2728,10972,12688,-5692,-5946,5111
12650.535,153,352,335,83,-2728,10972,12688,-5692,-5946,5111
12653.053999999998,152,366,347,81,-2728,10972,12688,-5692,-5946,5111
12661.372,150,374,366,80,-2800,8516,12768,-11180,-5731,6246
12672.406,148,373,385,78,-2800,8516,12768,-11180,-5731,6246
12672.406,146,373,397,80,-2800,8516,12768,-11180,-5731,6246
12683.215,144,377,405,78,-2800,8516,12768,-11180,-5731,6246
12693.054,141,380,407,75,-2800,8516,12768,-11180,-5731,6246
12695.071,139,384,408,75,-2800,8516,12768,-11180,-5731,6246
12703.617,135,388,406,73,-1440,7920,13532,-11552,-5862,7074
12706.159,132,391,404,70,-1440,7920,13532,-11552,-5862,7074
12716.297,127,391,402,68,-1440,7920,13532,-11552,-5862,7074
12719.696,120,389,394,64,-1440,7920,13532,-11552,-5862,7074
12727.66,111,387,389,60,-1440,7920,13532,-11552,-5862,7074
12731.353000000001,101,384,385,58,-1440,7920,13532,-11552,-5862,7074
12739.877999999999,83,374,382,57,-592,7988,14908,-9000,-5923,7042
12739.877999999999,60,362,378,53,-592,7988,14908,-9000,-5923,7042
12750.194000000001,40,351,378,52,-592,7988,14908,-9000,-5923,7042
12756.047,22,341,380,51,-592,7988,14908,-9000,-5923,7042
12760.811,7,332,383,49,-592,7988,14908,-9000,-5923,7042
12768.122,0,324,388,47,-592,7988,14908,-9000,-5923,7042
12772.451000000001,0,315,392,45,-592,7988,14908,-9000,-5923,7042
12780.622,0,309,389,43,324,10456,15648,-3309,-5937,6365
12783.423,0,297,381,37,324,10456,15648,-3309,-5937,6365
12794.846,0,290,373,33,324,10456,15648,-3309,-5937,6365
12794.846,0,286,365,30,324,10456,15648,-3309,-5937,6365
12805.823,2,286,358,25,324,10456,15648,-3309,-5937,6365
12805.823,28,291,356,21,324,10456,15648,-3309,-5937,6365
12819.703000000001,78,297,354,19,324,10456,15648,-3309,-5937,6365
12821.403999999999,140,305,351,15,600,11124,26076,315,-1749,6240
12828.162,202,312,350,12,600,11124,26076,315,-1749,6240
12833.839,261,320,357,11,600,11124,26076,315,-1749,6240
12838.956,302,327,359,10,600,11124,26076,315,-1749,6240
12845.511999999999,345,336,361,9,600,11124,26076,315,-1749,6240
12850.263,380,343,367,13,600,11124,26076,315,-1749,6240
12854.494,410,350,375,18,600,11124,26076,315,-1749,6240
12862.218,434,355,387,23,-252,4880,9952,4014,-284,-2233
12872.636999999999,454,359,404,30,-252,4880,9952,4014,-284,-2233
12872.636999999999,468,365,421,40,-252,4880,9952,4014,-284,-2233
12883.571999999998,476,368,428,47,-252,4880,9952,4014,-284,-2233
12887.034,482,372,429,56,-252,4880,9952,4014,-284,-2233
12887.034,483,375,430,66,-252,4880,9952,4014,-284,-2233
12895.625,481,378,426,76,-252,4880,9952,4014,-284,-2233
12905.785,476,379,415,85,-204,7944,14052,-6217,-391,817
12913.864,470,380,404,94,-204,7944,14052,-6217,-391,817
12917.270999999999,464,381,394,103,-204,7944,14052,-6217,-391,817
12919.947,457,381,383,111,-204,7944,14052,-6217,-391,817
12927.898000000001,451,380,371,119,-204,7944,14052,-6217,-391,817
12938.507,445,380,360,128,-204,7944,14052,-6217,-391,817
12938.905999999999,439,378,351,136,-76,7320,16220,-1897,394,242
12944.539999999999,435,377,341,143,-76,7320,16220,-1897,394,242
12949.797999999999,430,375,334,151,-76,7320,16220,-1897,394,242
12957.204000000002,424,373,326,159,-76,7320,16220,-1897,394,242
12961.271999999999,417,372,317,167,-76,7320,16220,-1897,394,242
12969.234,411,369,310,172,-76,7320,16220,-1897,394,242
12972.377,404,368,303,180,-76,7320,16220,-1897,394,242
12983.216,397,366,295,186,824,8600,12680,3963,-1042,-143
12983.216,388,363,286,193,824,8600,12680,3963,-1042,-143
12994.431999999999,382,361,282,198,824,8600,12680,3963,-1042,-143
12994.431999999999,374,358,275,204,824,8600,12680,3963,-1042,-143
13005.543,365,356,270,209,824,8600,12680,3963,-1042,-143
13009.868,355,354,265,213,824,8600,12680,3963,-1042,-143
13019.822,345,352,262,219,824,8600,12680,3963,-1042,-143
13022.601999999999,335,350,258,223,316,8180,13932,1846,-207,-178
13027.734,325,348,255,228,316,8180,13932,1846,-207,-178
13034.036,316,346,253,234,316,8180,13932,1846,-207,-178
13039.413,308,345,252,238,316,8180,13932,1846,-207,-178
13046.444,302,343,250,241,316,8180,13932,1846,-207,-178
13049.972,295,341,249,246,316,8180,13932,1846,-207,-178
13061.47,288,340,249,251,316,8180,13932,1846,-207,-178
13062.75,280,338,247,254,324,8192,14052,308,-353,-16
13072.359,274,335,246,257,324,8192,14052,308,-353,-16
13074.836,270,333,245,261,324,8192,14052,308,-353,-16
13074.836,265,331,245,265,324,8192,14052,308,-353,-16
13084.476,260,330,245,268,324,8192,14052,308,-353,-16
13094.465,257,328,246,272,324,8192,14052,308,-353,-16
13094.465,254,326,247,276,324,8192,14052,308,-353,-16
13106.814,252,325,248,279,268,8060,13636,-1475,-158,465
13106.814,249,323,250,283,268,8060,13636,-1475,-158,465
13117.171,247,321,251,286,268,8060,13636,-1475,-158,465
13119.896,245,320,251,288,268,8060,13636,-1475,-158,465
13127.282,243,318,252,290,268,8060,13636,-1475,-158,465
13132.167000000001,240,316,253,293,268,8060,13636,-1475,-158,465
13138.778999999999,238,315,254,296,268,8060,13636,-1475,-158,465
13144.456999999999,237,315,254,297,384,8488,13980,-302,-9,60
13149.829,236,313,255,300,384,8488,13980,-302,-9,60
13159.446000000002,235,312,256,302,384,8488,13980,-302,-9,60
13161.399,234,311,256,304,384,8488,13980,-302,-9,60
13166.430999999999,234,309,256,305,384,8488,13980,-302,-9,60
13171.646,234,309,258,306,384,8488,13980,-302,-9,60
13171.646,232,308,260,309,384,8488,13980,-302,-9,60
13183.071,231,307,261,310,308,8244,13912,1064,-88,-57
13191.117,231,306,262,312,308,8244,13912,1064,-88,-57
13194.703000000001,232,305,263,313,308,8244,13912,1064,-88,-57
13194.703000000001,233,304,265,315,308,8244,13912,1064,-88,-57
13205.501,234,303,266,316,308,8244,13912,1064,-88,-57
13210.654,235,302,268,317,308,8244,13912,1064,-88,-57
13216.427,237,301,269,319,308,8244,13912,1064,-88,-57
13221.282000000001,237,301,271,320,416,8356,13688,1092,-230,16
13228.227,237,300,272,320,416,8356,13688,1092,-230,16
13237.081,238,299,274,322,416,8356,13688,1092,-230,16
13239.196,238,299,275,323,416,8356,13688,1092,-230,16
13243.371,238,298,277,323,416,8356,13688,1092,-230,16
13249.73,239,297,278,324,416,8356,13688,1092,-230,16
13255.879,240,297,279,324,416,8356,13688,1092,-230,16
13261.006,239,295,281,325,488,8628,13860,-38,-94,113
13263.742,240,295,281,326,488,8628,13860,-38,-94,113
13272.764000000001,239,295,283,327,488,8628,13860,-38,-94,113
13272.764000000001,240,295,285,327,488,8628,13860,-38,-94,113
13283.545,240,294,285,327,488,8628,13860,-38,-94,113
13283.545,240,294,286,327,488,8628,13860,-38,-94,113
13294.635,240,293,288,329,488,8628,13860,-38,-94,113
13302.716999999999,240,293,289,329,488,8628,13860,-38,-94,113
13306.150000000001,241,292,289,329,476,8460,13740,-483,-43,69
13308.47,242,292,290,329,476,8460,13740,-483,-43,69
13317.734,243,291,291,330,476,8460,13740,-483,-43,69
13320.249,244,291,291,330,476,8460,13740,-483,-43,69
13328.080999999998,245,291,292,329,476,8460,13740,-483,-43,69
13328.080999999998,246,290,293,330,476,8460,13740,-483,-43,69
13339.404,247,290,294,329,476,8460,13740,-483,-43,69
13339.404,247,290,294,329,528,8512,13936,70,6,-2
13349.959,247,289,294,329,528,8512,13936,70,6,-2
13353.861,247,289,295,329,528,8512,13936,70,6,-2
13353.861,247,289,296,330,528,8512,13936,70,6,-2
13362.686,248,289,296,329,528,8512,13936,70,6,-2
13370.697,249,289,296,329,528,8512,13936,70,6,-2
13373.093,251,288,297,329,528,8512,13936,70,6,-2
13379.216,253,288,297,329,528,8512,13936,70,6,-2
13383.746000000001,254,288,297,329,408,8308,13768,553,-132,-42
13392.712,257,288,297,328,408,8308,13768,553,-132,-42
13395.015000000001,258,288,298,329,408,8308,13768,553,-132,-42
13405.5,259,288,298,328,408,8308,13768,553,-132,-42
13405.5,261,288,298,328,408,8308,13768,553,-132,-42
13411.288,263,288,297,328,408,8308,13768,553,-132,-42
13420.458999999999,266,287,297,328,408,8308,13768,553,-132,-42
13423.029,269,287,296,327,464,8524,13708,349,-365,65
13428.158,273,288,296,327,464,8524,13708,349,-365,65
13431.443,275,288,296,327,464,8524,13708,349,-365,65
13439.683,277,288,296,327,464,8524,13708,349,-365,65
13439.683,280,287,294,327,464,8524,13708,349,-365,65
13450.266,282,288,294,326,464,8524,13708,349,-365,65
13456.422999999999,285,287,293,327,464,8524,13708,349,-365,65
13461.006,288,287,293,326,584,8804,13708,263,-28,-235
13464.885,292,286,292,326,584,8804,13708,263,-28,-235
13473.475,294,287,292,326,584,8804,13708,263,-28,-235
13482.045,297,287,292,326,584,8804,13708,263,-28,-235
13484.553,300,288,291,325,584,8804,13708,263,-28,-235
13488.64,303,288,291,325,584,8804,13708,263,-28,-235
13494.294,306,288,292,326,584,8804,13708,263,-28,-235
13501.303,309,289,290,325,440,8400,13700,-383,26,-70
13505.811,311,289,291,324,440,8400,13700,-383,26,-70
13509.868,312,289,292,325,440,8400,13700,-383,26,-70
13520.546,313,289,292,325,440,8400,13700,-383,26,-70
13520.546,312,290,293,324,440,8400,13700,-383,26,-70
13527.719,313,290,293,323,440,8400,13700,-383,26,-70
13534.988,313,290,294,324,440,8400,13700,-383,26,-70
13539.143,313,290,295,324,440,8400,13700,-383,26,-70
13546.589000000002,314,291,296,323,460,8496,13660,101,-9,-22
13550.606,314,292,296,323,460,8496,13660,101,-9,-22
13554.937,314,292,297,323,460,8496,13660,101,-9,-22
13561.072,313,293,297,323,460,8496,13660,101,-9,-22
13568.998000000001,313,293,297,322,460,8496,13660,101,-9,-22
13573.734999999999,314,293,297,323,460,8496,13660,101,-9,-22
13581.707,314,293,299,323,460,8496,13660,101,-9,-22
13585.06,315,294,298,322,488,8544,13724,0,-58,-66
13589.185000000001,316,293,299,322,488,8544,13724,0,-58,-66
13595.22,318,293,299,322,488,8544,13724,0,-58,-66
13595.22,320,293,299,323,488,8544,13724,0,-58,-66
13605.7,321,293,299,321,488,8544,13724,0,-58,-66
13605.7,323,294,300,321,488,8544,13724,0,-58,-66
13616.764,325,294,300,321,488,8544,13724,0,-58,-66
13620.817000000001,326,294,300,321,488,8544,13724,0,-58,-66
13626.13,329,294,300,320,516,8496,13688,69,-52,-74
13627.899,332,294,300,320,516,8496,13688,69,-52,-74
13638.398000000001,334,294,301,320,516,8496,13688,69,-52,-74
13638.398000000001,335,295,302,321,516,8496,13688,69,-52,-74
13649.612,338,295,302,320,516,8496,13688,69,-52,-74
13652.119,338,295,303,320,516,8496,13688,69,-52,-74
13652.119,340,295,304,321,516,8496,13688,69,-52,-74
13661.071,341,295,303,320,516,8536,13652,-104,8,-4
13665.105000000001,342,295,303,320,516,8536,13652,-104,8,-4
13672.454,342,294,304,321,516,8536,13652,-104,8,-4
13677.538,343,295,305,321,516,8536,13652,-104,8,-4
13682.982,342,295,304,320,516,8536,13652,-104,8,-4
13689.187,342,295,304,320,516,8536,13652,-104,8,-4
13694.446,340,295,305,320,516,8536,13652,-104,8,-4
13697.578,339,295,305,320,516,8536,13652,-104,8,-4
13707.267,338,295,305,319,472,8504,13612,-16,9,12
13707.267,336,295,306,320,472,8504,13612,-16,9,12
13716.911,336,295,306,320,472,8504,13612,-16,9,12
13720.927,333,295,306,320,472,8504,13612,-16,9,12
13727.497,331,295,307,319,472,8504,13612,-16,9,12
13727.497,328,295,307,318,472,8504,13612,-16,9,12
13735.259,325,295,307,319,472,8504,13612,-16,9,12
13738.874,323,295,308,319,488,8508,13752,6,17,1
13743.456999999999,319,295,306,318,488,8508,13752,6,17,1
13750.923999999999,317,295,307,318,488,8508,13752,6,17,1
