Time (ms),EMG1,EMG2,EMG3,EMG4,AccX,AccY,AccZ,GyroX,GyroY,GyroZ
1538.147,0,0,0,0,0,0,0,0,0,0
1538.147,0,0,0,0,0,0,0,0,0,0
1553.76,306,302,299,304,0,0,0,0,0,0
1559.472,306,303,299,304,0,0,0,0,0,0
1559.472,306,302,299,304,0,0,0,0,0,0
1563.067,305,302,300,304,0,0,0,0,0,0
1563.067,306,303,300,305,0,0,0,0,0,0
1570.645,306,302,300,305,0,0,0,0,0,0
1575.171,306,302,300,305,0,0,0,0,0,0
1577.691,306,302,299,305,0,0,0,0,0,0
1577.691,306,303,299,305,0,0,0,0,0,0
1587.445,306,303,299,305,0,0,0,0,0,0
1591.459,306,302,299,306,0,0,0,0,0,0
1591.459,306,302,300,306,0,0,0,0,0,0
1599.207,306,303,300,305,-152,5616,15116,-107,0,-44
1602.594,306,303,300,305,-152,5616,15116,-107,0,-44
1609.688,306,303,300,306,-152,5616,15116,-107,0,-44
1617.316,306,303,300,306,-152,5616,15116,-107,0,-44
1619.608,307,303,300,305,-152,5616,15116,-107,0,-44
1628.354,306,303,300,305,-152,5616,15116,-107,0,-44
1630.71,307,303,300,306,-152,5616,15116,-107,0,-44
1634.71,307,303,300,306,-152,5616,15116,-107,0,-44
1641.119,306,303,299,305,-168,5720,15068,-22,10,-15
1647.238,307,302,299,307,-168,5720,15068,-22,10,-15
1652.521,306,303,300,306,-168,5720,15068,-22,10,-15
1661.779,307,303,300,306,-168,5720,15068,-22,10,-15
1663.858,307,303,299,306,-168,5720,15068,-22,10,-15
1669.065,307,303,299,306,-168,5720,15068,-22,10,-15
1674.013,307,303,300,306,-168,5720,15068,-22,10,-15
1681.174,307,303,300,306,-200,5636,15120,-30,35,-18
1685.657,307,303,300,305,-200,5636,15120,-30,35,-18
1691.347,306,304,301,306,-200,5636,15120,-30,35,-18
1697.944,306,304,300,305,-200,5636,15120,-30,35,-18
1697.944,307,303,300,305,-200,5636,15120,-30,35,-18
1708.0800000000002,307,303,300,305,-200,5636,15120,-30,35,-18
1713.412,307,303,300,306,-200,5636,15120,-30,35,-18
1718.61,307,303,299,305,-156,5700,15080,-97,6,-13
1718.61,306,303,299,305,-156,5700,15080,-97,6,-13
1728.604,306,303,299,305,-156,5700,15080,-97,6,-13
1735.343,306,303,299,306,-156,5700,15080,-97,6,-13
1741.7800000000002,306,303,298,306,-156,5700,15080,-97,6,-13
1741.7800000000002,306,303,298,305,-156,5700,15080,-97,6,-13
1753.024,305,303,297,306,-156,5700,15080,-97,6,-13
1753.024,306,303,298,306,-156,5700,15080,-97,6,-13
1764.194,306,303,297,305,-208,5612,15112,-151,18,-9
1764.194,305,303,298,305,-208,5612,15112,-151,18,-9
1775.173,305,303,299,306,-208,5612,15112,-151,18,-9
1778.576,305,303,298,305,-208,5612,15112,-151,18,-9
1778.576,304,303,299,305,-208,5612,15112,-151,18,-9
1791.439,305,303,299,306,-208,5612,15112,-151,18,-9
1797.681,305,302,299,306,-208,5612,15112,-151,18,-9
1797.681,305,303,299,305,-204,5728,15044,2,9,-26
1803.394,305,303,299,306,-204,5728,15044,2,9,-26
1808.1989999999998,305,303,299,306,-204,5728,15044,2,9,-26
1816.281,305,303,299,306,-204,5728,15044,2,9,-26
1819.011,305,303,299,305,-204,5728,15044,2,9,-26
1824.094,305,304,299,305,-204,5728,15044,2,9,-26
1830.551,305,303,299,306,-204,5728,15044,2,9,-26
1830.551,305,303,299,306,-204,5728,15044,2,9,-26
1841.3,305,304,299,306,-264,5712,15092,-130,28,-29
1850.31,305,304,299,306,-264,5712,15092,-130,28,-29
1852.447,305,304,299,306,-264,5712,15092,-130,28,-29
1856.7089999999998,305,304,300,306,-264,5712,15092,-130,28,-29
1863.8159999999998,305,304,300,305,-264,5712,15092,-130,28,-29
1863.8159999999998,304,304,300,305,-264,5712,15092,-130,28,-29
1874.561,305,304,301,306,-264,5712,15092,-130,28,-29
1881.8600000000001,305,304,300,305,-208,5640,15088,-88,7,-38
1886.1209999999999,305,304,300,305,-208,5640,15088,-88,7,-38
1891.4869999999999,305,304,301,306,-208,5640,15088,-88,7,-38
1897.3120000000001,305,304,301,305,-208,5640,15088,-88,7,-38
1897.3120000000001,305,304,300,305,-208,5640,15088,-88,7,-38
1912.3680000000002,305,304,301,306,-208,5640,15088,-88,7,-38
1914.094,305,304,301,306,-208,5640,15088,-88,7,-38
1918.924,305,304,301,306,-192,5640,15068,-82,-4,-9
1928.857,304,304,301,305,-192,5640,15068,-82,-4,-9
1930.9959999999999,305,304,301,306,-192,5640,15068,-82,-4,-9
1930.9959999999999,305,304,301,307,-192,5640,15068,-82,-4,-9
1938.753,305,304,300,306,-192,5640,15068,-82,-4,-9
1941.996,305,304,300,306,-192,5640,15068,-82,-4,-9
1950.4060000000002,304,304,301,306,-192,5640,15068,-82,-4,-9
1953.9599999999998,305,304,301,306,-192,5640,15068,-82,-4,-9
1963.87,306,304,300,306,-276,5652,15052,-38,7,-40
1963.87,306,303,301,306,-276,5652,15052,-38,7,-40
1973.6419999999998,305,304,301,306,-276,5652,15052,-38,7,-40
1974.852,305,304,301,306,-276,5652,15052,-38,7,-40
1986.0910000000001,306,304,301,305,-276,5652,15052,-38,7,-40
1986.0910000000001,305,304,301,306,-276,5652,15052,-38,7,-40
1998.281,305,304,301,306,-276,5652,15052,-38,7,-40
1998.281,305,303,300,306,-188,5668,15136,-122,12,-23
2006.3390000000002,306,304,300,306,-188,5668,15136,-122,12,-23
2008.928,305,304,301,306,-188,5668,15136,-122,12,-23
2016.506,306,304,301,306,-188,5668,15136,-122,12,-23
2019.458,305,304,300,305,-188,5668,15136,-122,12,-23
2029.6609999999998,305,304,300,306,-188,5668,15136,-122,12,-23
2032.187,306,304,301,306,-188,5668,15136,-122,12,-23
2041.948,306,304,300,306,-232,5588,15056,-92,22,-23
2044.3120000000001,306,303,300,306,-232,5588,15056,-92,22,-23
2044.3120000000001,306,304,300,306,-232,5588,15056,-92,22,-23
2052.7129999999997,306,304,301,306,-232,5588,15056,-92,22,-23
2063.6389999999997,306,304,300,305,-232,5588,15056,-92,22,-23
2063.6389999999997,304,304,301,306,-232,5588,15056,-92,22,-23
2074.672,305,304,301,306,-232,5588,15056,-92,22,-23
2074.672,305,304,301,306,-232,5588,15056,-92,22,-23
2082.529,304,304,301,305,-200,5720,15136,-85,17,-26
2092.662,306,304,301,307,-200,5720,15136,-85,17,-26
2092.662,305,304,301,307,-200,5720,15136,-85,17,-26
2097.56,305,304,302,306,-200,5720,15136,-85,17,-26
2107.8320000000003,305,304,301,306,-200,5720,15136,-85,17,-26
2110.147,305,304,302,306,-200,5720,15136,-85,17,-26
2110.147,305,304,302,306,-200,5720,15136,-85,17,-26
2119.8100000000004,305,304,301,305,-220,5608,15148,-83,-3,-22
2127.074,305,304,301,306,-220,5608,15148,-83,-3,-22
2130.1839999999997,304,304,301,306,-220,5608,15148,-83,-3,-22
2141.0110000000004,305,304,302,305,-220,5608,15148,-83,-3,-22
2143.29,304,304,302,305,-220,5608,15148,-83,-3,-22
2153.134,304,304,301,306,-220,5608,15148,-83,-3,-22
2153.134,305,304,302,306,-220,5608,15148,-83,-3,-22
2159.628,304,304,301,305,-128,5632,15096,-63,-19,-24
2163.65,304,304,301,305,-128,5632,15096,-63,-19,-24
2172.8179999999998,305,304,302,306,-128,5632,15096,-63,-19,-24
2175.017,305,304,302,305,-128,5632,15096,-63,-19,-24
2185.5060000000003,305,304,302,304,-128,5632,15096,-63,-19,-24
2187.973,305,304,303,305,-128,5632,15096,-63,-19,-24
2197.032,304,304,303,305,-128,5632,15096,-63,-19,-24
2200.0660000000003,304,304,302,305,-252,5632,15072,-61,29,-11
2200.0660000000003,304,304,302,304,-252,5632,15072,-61,29,-11
2208.836,304,304,302,305,-252,5632,15072,-61,29,-11
2219.425,305,304,302,305,-252,5632,15072,-61,29,-11
2219.425,304,304,301,304,-252,5632,15072,-61,29,-11
2230.175,304,304,302,304,-252,5632,15072,-61,29,-11
2233.3759999999997,304,303,301,305,-252,5632,15072,-61,29,-11
2233.3759999999997,304,304,301,305,-252,5632,15072,-61,29,-11
2242.188,303,304,301,304,-168,5624,15160,-81,-19,-27
2252.485,303,304,302,304,-168,5624,15160,-81,-19,-27
2252.485,304,304,302,305,-168,5624,15160,-81,-19,-27
2263.595,304,304,302,304,-168,5624,15160,-81,-19,-27
2266.226,304,304,302,304,-168,5624,15160,-81,-19,-27
2266.226,304,303,303,304,-168,5624,15160,-81,-19,-27
2275.8340000000003,303,304,302,304,-168,5624,15160,-81,-19,-27
2282.777,303,303,302,303,-164,5680,15080,-60,-14,2
2292.477,303,303,302,304,-164,5680,15080,-60,-14,2
2296.716,303,304,302,304,-164,5680,15080,-60,-14,2
2299.073,303,303,302,304,-164,5680,15080,-60,-14,2
2299.073,303,304,302,304,-164,5680,15080,-60,-14,2
2309.52,304,304,303,304,-164,5680,15080,-60,-14,2
2315.486,303,303,303,304,-164,5680,15080,-60,-14,2
2319.1989999999996,303,304,302,304,-220,5644,15104,-87,2,-19
2324.2419999999997,303,305,302,304,-220,5644,15104,-87,2,-19
2331.306,303,304,303,304,-220,5644,15104,-87,2,-19
2331.306,303,304,302,304,-220,5644,15104,-87,2,-19
2341.683,303,304,302,304,-220,5644,15104,-87,2,-19
2348.2419999999997,304,303,302,305,-220,5644,15104,-87,2,-19
2352.7619999999997,304,303,303,306,-220,5644,15104,-87,2,-19
2357.229,304,303,302,305,-220,5644,15104,-87,2,-19
2364.266,304,303,302,304,-220,5584,15052,-96,-1,-4
2364.266,304,304,302,305,-220,5584,15052,-96,-1,-4
2374.815,304,304,302,305,-220,5584,15052,-96,-1,-4
2380.955,304,304,302,304,-220,5584,15052,-96,-1,-4
2385.633,305,304,302,304,-220,5584,15052,-96,-1,-4
2392.637,305,303,302,305,-220,5584,15052,-96,-1,-4
2396.832,305,304,302,305,-220,5584,15052,-96,-1,-4
2401.118,306,304,302,304,-212,5656,15080,-112,21,-18
2407.95,305,304,302,304,-212,5656,15080,-112,21,-18
2414.9669999999996,305,304,302,305,-212,5656,15080,-112,21,-18
2420.5930000000003,305,304,302,304,-212,5656,15080,-112,21,-18
2421.666,305,304,301,304,-212,5656,15080,-112,21,-18
2430.972,306,304,301,305,-212,5656,15080,-112,21,-18
2439.594,305,304,302,305,-212,5656,15080,-112,21,-18
2441.585,306,304,301,304,-268,5608,15048,-43,11,-21
2447.5150000000003,305,304,302,305,-268,5608,15048,-43,11,-21
2452.07,305,304,303,305,-268,5608,15048,-43,11,-21
2458.2999999999997,305,304,303,305,-268,5608,15048,-43,11,-21
2463.911,305,304,302,304,-268,5608,15048,-43,11,-21
2466.39,305,304,303,304,-268,5608,15048,-43,11,-21
2475.137,306,304,303,304,-268,5608,15048,-43,11,-21
2475.137,306,304,302,304,-188,5692,15172,-90,18,-32
2485.827,306,304,302,304,-188,5692,15172,-90,18,-32
2492.736,305,304,302,304,-188,5692,15172,-90,18,-32
2496.565,305,304,301,304,-188,5692,15172,-90,18,-32
2499.392,304,304,301,304,-188,5692,15172,-90,18,-32
2508.696,304,303,300,304,-188,5692,15172,-90,18,-32
2508.696,305,303,301,305,-188,5692,15172,-90,18,-32
2519.177,305,303,301,304,-188,5692,15172,-90,18,-32
2527.2549999999997,305,303,301,304,-256,5588,15076,-43,5,-27
2529.776,305,303,301,305,-256,5588,15076,-43,5,-27
2538.762,304,304,301,305,-256,5588,15076,-43,5,-27
2541.238,304,303,301,305,-256,5588,15076,-43,5,-27
2545.386,304,304,301,304,-256,5588,15076,-43,5,-27
2553.902,304,304,301,305,-256,5588,15076,-43,5,-27
2553.902,304,304,301,305,-256,5588,15076,-43,5,-27
2563.5769999999998,305,304,301,304,-244,5652,15116,-55,56,-26
2571.66,304,303,301,305,-244,5652,15116,-55,56,-26
2574.773,304,304,301,305,-244,5652,15116,-55,56,-26
2574.773,304,304,301,304,-244,5652,15116,-55,56,-26
2585.835,304,303,301,304,-244,5652,15116,-55,56,-26
2590.5499999999997,304,303,301,305,-244,5652,15116,-55,56,-26
2596.244,304,303,301,305,-244,5652,15116,-55,56,-26
2596.244,305,303,301,305,-236,5680,15104,-57,-10,-5
2607.8199999999997,304,304,302,304,-236,5680,15104,-57,-10,-5
2607.8199999999997,304,303,302,305,-236,5680,15104,-57,-10,-5
2619.319,305,304,303,305,-236,5680,15104,-57,-10,-5
2619.319,304,303,302,304,-236,5680,15104,-57,-10,-5
2627.473,303,304,302,305,-236,5680,15104,-57,-10,-5
2630.021,304,304,302,305,-236,5680,15104,-57,-10,-5
2641.34,304,303,302,305,-236,5680,15104,-57,-10,-5
2641.34,304,303,302,305,-200,5592,15108,-44,5,-56
2652.253,305,303,303,306,-200,5592,15108,-44,5,-56
2655.2780000000002,304,303,303,305,-200,5592,15108,-44,5,-56
2655.2780000000002,305,303,302,304,-200,5592,15108,-44,5,-56
2665.002,304,304,302,304,-200,5592,15108,-44,5,-56
2671.813,304,304,302,306,-200,5592,15108,-44,5,-56
2674.565,304,303,303,304,-200,5592,15108,-44,5,-56
2686.147,304,303,302,304,-252,5684,15092,-61,6,-32
2687.831,305,303,302,305,-252,5684,15092,-61,6,-32
2694.982,305,303,302,305,-252,5684,15092,-61,6,-32
2697.337,304,303,302,305,-252,5684,15092,-61,6,-32
2704.475,305,303,302,304,-252,5684,15092,-61,6,-32
2708.164,304,303,302,305,-252,5684,15092,-61,6,-32
2713.1470000000004,304,303,301,305,-252,5684,15092,-61,6,-32
2719.4449999999997,304,303,301,305,-232,5676,15080,0,17,-36
2727.5879999999997,305,303,301,305,-232,5676,15080,0,17,-36
2730.143,306,302,300,305,-232,5676,15080,0,17,-36
2732.7149999999997,306,303,301,305,-232,5676,15080,0,17,-36
2741.892,306,302,300,305,-232,5676,15080,0,17,-36
2741.892,305,303,301,305,-232,5676,15080,0,17,-36
2752.372,305,303,301,305,-232,5676,15080,0,17,-36
2760.446,305,302,302,306,-232,5676,15080,0,17,-36
2763.212,305,303,301,305,-212,5720,15156,-12,56,12
2765.558,305,303,302,305,-212,5720,15156,-12,56,12
2774.8970000000004,306,303,302,306,-212,5720,15156,-12,56,12
2777.721,306,303,301,305,-212,5720,15156,-12,56,12
2777.721,305,302,301,304,-212,5720,15156,-12,56,12
2786.162,306,303,302,305,-212,5720,15156,-12,56,12
2797.01,305,302,302,306,-212,5720,15156,-12,56,12
2797.01,304,302,302,305,-212,5720,15156,-12,56,12
2808.16,304,302,302,305,-240,5756,15144,-119,89,-76
2810.6879999999996,304,302,303,305,-240,5756,15144,-119,89,-76
2810.6879999999996,305,302,303,305,-240,5756,15144,-119,89,-76
2819.9269999999997,305,302,303,305,-240,5756,15144,-119,89,-76
2827.709,304,302,303,305,-240,5756,15144,-119,89,-76
2830.706,304,301,303,306,-240,5756,15144,-119,89,-76
2841.797,304,301,302,305,-240,5756,15144,-119,89,-76
2841.797,304,301,302,305,-228,5620,15060,-52,30,-13
2852.603,304,301,303,306,-228,5620,15060,-52,30,-13
2855.6330000000003,304,301,303,305,-228,5620,15060,-52,30,-13
2855.6330000000003,304,301,304,305,-228,5620,15060,-52,30,-13
2863.504,304,300,303,305,-228,5620,15060,-52,30,-13
2874.924,304,301,304,305,-228,5620,15060,-52,30,-13
2874.924,304,301,303,305,-228,5620,15060,-52,30,-13
2885.7309999999998,304,301,304,304,-184,5712,15128,-90,31,-61
2889.076,304,301,304,305,-184,5712,15128,-90,31,-61
2895.1530000000002,304,301,304,305,-184,5712,15128,-90,31,-61
2897.134,305,301,303,304,-184,5712,15128,-90,31,-61
2907.5899999999997,304,301,304,304,-184,5712,15128,-90,31,-61
2907.5899999999997,305,301,304,305,-184,5712,15128,-90,31,-61
2918.625,305,301,304,305,-184,5712,15128,-90,31,-61
2918.625,304,300,303,304,-248,5620,15092,-69,8,-8
2925.2630000000004,304,300,303,304,-248,5620,15092,-69,8,-8
2936.471,304,301,303,304,-248,5620,15092,-69,8,-8
2937.605,304,301,302,304,-248,5620,15092,-69,8,-8
2941.8700000000003,305,301,302,304,-248,5620,15092,-69,8,-8
2946.266,305,301,302,304,-248,5620,15092,-69,8,-8
2952.194,304,301,303,304,-248,5620,15092,-69,8,-8
2958.92,305,302,302,304,-248,5620,15092,-69,8,-8
2963.525,304,302,302,305,-236,5716,15104,-45,29,-46
2966.9900000000002,304,301,302,305,-236,5716,15104,-45,29,-46
2975.368,304,302,302,305,-236,5716,15104,-45,29,-46
2975.368,304,301,302,304,-236,5716,15104,-45,29,-46
2985.852,305,301,302,304,-236,5716,15104,-45,29,-46
2991.765,304,301,302,304,-236,5716,15104,-45,29,-46
2996.6940000000004,304,301,302,304,-236,5716,15104,-45,29,-46
2996.6940000000004,303,301,302,304,-272,5656,15060,-95,-18,-47
3008.9519999999998,303,302,302,305,-272,5656,15060,-95,-18,-47
3017.309,303,302,302,305,-272,5656,15060,-95,-18,-47
3019.749,302,302,301,304,-272,5656,15060,-95,-18,-47
3024.563,302,302,301,304,-272,5656,15060,-95,-18,-47
3029.7239999999997,302,301,301,304,-272,5656,15060,-95,-18,-47
3036.4170000000004,303,301,301,304,-272,5656,15060,-95,-18,-47
3041.142,302,300,302,303,-268,5668,15164,-105,16,-83
3050.94,302,300,301,304,-268,5668,15164,-105,16,-83
3052.8309999999997,302,300,302,303,-268,5668,15164,-105,16,-83
3063.154,303,300,302,303,-268,5668,15164,-105,16,-83
3064.3729999999996,304,300,302,302,-268,5668,15164,-105,16,-83
3072.393,305,299,302,302,-268,5668,15164,-105,16,-83
3074.874,305,298,303,299,-268,5668,15164,-105,16,-83
3081.478,305,298,302,298,-276,5424,15540,46,172,35
3086.3999999999996,307,298,303,300,-276,5424,15540,46,172,35
3095.561,306,298,304,300,-276,5424,15540,46,172,35
3097.4469999999997,307,296,305,299,-276,5424,15540,46,172,35
3101.29,308,296,306,298,-276,5424,15540,46,172,35
3107.587,308,294,308,297,-276,5424,15540,46,172,35
3113.77,309,293,310,296,-276,5424,15540,46,172,35
3118.823,306,291,306,293,-276,5424,15540,46,172,35
3128.463,304,291,299,291,12,7412,16708,1472,705,-899
3130.49,300,289,294,288,12,7412,16708,1472,705,-899
3134.5209999999997,298,289,296,287,12,7412,16708,1472,705,-899
3141.199,295,289,302,285,12,7412,16708,1472,705,-899
3146.997,292,289,314,286,12,7412,16708,1472,705,-899
3152.036,292,289,325,286,12,7412,16708,1472,705,-899
3158.756,292,289,335,286,12,7412,16708,1472,705,-899
3163.745,292,288,342,286,-404,6884,16028,-411,2149,-1414
3167.294,293,287,347,287,-404,6884,16028,-411,2149,-1414
3175.8289999999997,293,287,347,289,-404,6884,16028,-411,2149,-1414
3186.276,293,285,345,290,-404,6884,16028,-411,2149,-1414
3186.276,295,283,344,294,-404,6884,16028,-411,2149,-1414
3197.079,296,281,340,298,-404,6884,16028,-411,2149,-1414
3199.98,299,276,335,300,-404,6884,16028,-411,2149,-1414
3208.967,301,271,328,302,-184,5948,17368,-828,3543,-1869
3208.967,304,265,321,305,-184,5948,17368,-828,3543,-1869
3219.71,306,259,314,307,-184,5948,17368,-828,3543,-1869
3225.215,312,254,307,309,-184,5948,17368,-828,3543,-1869
3230.312,317,249,300,312,-184,5948,17368,-828,3543,-1869
3237.622,324,245,290,312,-184,5948,17368,-828,3543,-1869
3241.281,330,241,278,314,-376,6208,20008,-471,6635,-3941
3252.312,337,239,268,317,-376,6208,20008,-471,6635,-3941
3260.3740000000003,342,238,260,318,-376,6208,20008,-471,6635,-3941
3263.302,347,242,241,320,-376,6208,20008,-471,6635,-3941
3271.668,351,252,213,323,-376,6208,20008,-471,6635,-3941
3274.4,354,273,172,325,-376,6208,20008,-471,6635,-3941
3283.833,358,297,129,326,-376,6208,20008,-471,6635,-3941
3286.095,361,319,82,327,-1388,5980,17340,2847,8748,-5186
3295.465,363,340,28,329,-1388,5980,17340,2847,8748,-5186
3297.449,364,351,0,329,-1388,5980,17340,2847,8748,-5186
3307.918,364,359,0,329,-1388,5980,17340,2847,8748,-5186
3310.393,365,359,0,329,-1388,5980,17340,2847,8748,-5186
3320.102,366,359,0,329,-1388,5980,17340,2847,8748,-5186
3320.102,367,357,0,328,-1916,6364,15520,2944,9588,-5353
3330.353,367,358,0,330,-1916,6364,15520,2944,9588,-5353
3338.374,366,359,0,332,-1916,6364,15520,2944,9588,-5353
3341.889,363,356,0,335,-1916,6364,15520,2944,9588,-5353
3350.371,359,350,0,340,-1916,6364,15520,2944,9588,-5353
3352.159,355,345,0,348,-1916,6364,15520,2944,9588,-5353
3360.1440000000002,350,333,0,356,-1916,6364,15520,2944,9588,-5353
3363.527,345,297,0,365,-3200,6684,14740,3331,8728,-5230
3372.463,340,240,0,376,-3200,6684,14740,3331,8728,-5230
3374.919,335,206,0,383,-3200,6684,14740,3331,8728,-5230
3385.631,328,171,0,391,-3200,6684,14740,3331,8728,-5230
3385.631,319,147,0,399,-3200,6684,14740,3331,8728,-5230
3396.697,311,134,8,406,-3200,6684,14740,3331,8728,-5230
3401.1870000000004,302,129,21,412,-3200,6684,14740,3331,8728,-5230
3408.158,293,129,38,418,-3848,6700,14004,5681,9354,-6174
3413.16,286,132,60,426,-3848,6700,14004,5681,9354,-6174
3418.9880000000003,279,138,83,432,-3848,6700,14004,5681,9354,-6174
3425.024,274,145,111,437,-3848,6700,14004,5681,9354,-6174
3430.062,270,150,140,444,-3848,6700,14004,5681,9354,-6174
3440.4970000000003,267,156,168,447,-3848,6700,14004,5681,9354,-6174
3443.699,263,166,205,449,-4608,6708,12616,4998,10007,-6980
3452.5420000000004,259,178,246,452,-4608,6708,12616,4998,10007,-6980
3458.0769999999998,255,189,308,453,-4608,6708,12616,4998,10007,-6980
3463.337,244,204,413,454,-4608,6708,12616,4998,10007,-6980
3470.8160000000003,238,216,479,456,-4608,6708,12616,4998,10007,-6980
3474.9089999999997,234,229,531,456,-4608,6708,12616,4998,10007,-6980
3485.135,232,243,580,457,-5464,5324,12176,3877,9105,-6728
3493.849,231,259,613,459,-5464,5324,12176,3877,9105,-6728
3497.633,232,271,629,460,-5464,5324,12176,3877,9105,-6728
3506.0730000000003,235,288,645,461,-5464,5324,12176,3877,9105,-6728
3509.449,239,303,655,463,-5464,5324,12176,3877,9105,-6728
3510.4519999999998,243,318,661,464,-5464,5324,12176,3877,9105,-6728
3522.5209999999997,247,332,665,466,-5464,5324,12176,3877,9105,-6728
3530.03,253,348,668,471,-8032,4128,8084,-483,4037,-4162
3530.03,258,358,667,474,-8032,4128,8084,-483,4037,-4162
3541.267,264,366,665,476,-8032,4128,8084,-483,4037,-4162
3550.443,270,373,662,478,-8032,4128,8084,-483,4037,-4162
3552.543,275,378,659,482,-8032,4128,8084,-483,4037,-4162
3552.543,280,385,655,485,-8032,4128,8084,-483,4037,-4162
3563.587,285,390,652,486,-7756,4760,10824,-1363,4221,-3902
3574.303,289,397,647,488,-7756,4760,10824,-1363,4221,-3902
3574.303,290,402,642,486,-7756,4760,10824,-1363,4221,-3902
3585.7160000000003,292,407,637,484,-7756,4760,10824,-1363,4221,-3902
3589.323,295,411,631,482,-7756,4760,10824,-1363,4221,-3902
3598.167,297,412,624,478,-7756,4760,10824,-1363,4221,-3902
3598.167,297,412,616,471,-8376,4036,10132,-1704,2424,-2181
3608.3959999999997,299,409,610,466,-8376,4036,10132,-1704,2424,-2181
3619.0229999999997,301,406,603,458,-8376,4036,10132,-1704,2424,-2181
3619.0229999999997,305,401,593,448,-8376,4036,10132,-1704,2424,-2181
3630.38,309,396,586,439,-8376,4036,10132,-1704,2424,-2181
3634.242,313,390,579,429,-8376,4036,10132,-1704,2424,-2181
3642.793,316,385,570,416,-8376,4036,10132,-1704,2424,-2181
3646.039,319,381,564,405,-9024,3864,9268,2121,1830,-1617
3652.2169999999996,322,378,556,391,-9024,3864,9268,2121,1830,-1617
3659.943,323,377,550,381,-9024,3864,9268,2121,1830,-1617
3664.01,325,376,543,366,-9024,3864,9268,2121,1830,-1617
3671.3360000000002,327,374,538,354,-9024,3864,9268,2121,1830,-1617
3674.712,327,374,531,340,-9024,3864,9268,2121,1830,-1617
3685.548,327,373,525,327,-9076,3548,9096,791,-1062,390
3693.602,329,374,520,316,-9076,3548,9096,791,-1062,390
3696.863,330,377,514,304,-9076,3548,9096,791,-1062,390
3706.3959999999997,330,379,509,292,-9076,3548,9096,791,-1062,390
3708.9539999999997,331,380,505,284,-9076,3548,9096,791,-1062,390
3711.7309999999998,333,380,499,275,-9076,3548,9096,791,-1062,390
3718.883,335,380,493,266,-9076,3548,9096,791,-1062,390
3724.548,337,379,487,258,-8424,3048,8820,-735,-4110,2535
3729.889,337,379,482,250,-8424,3048,8820,-735,-4110,2535
3736.337,338,378,477,245,-8424,3048,8820,-735,-4110,2535
3741.438,339,377,472,239,-8424,3048,8820,-735,-4110,2535
3748.71,341,375,467,234,-8424,3048,8820,-735,-4110,2535
3752.525,341,374,463,230,-8424,3048,8820,-735,-4110,2535
3763.8940000000002,342,372,457,226,-8424,3048,8820,-735,-4110,2535
3771.903,342,371,454,224,-7824,3392,10140,-2540,-6738,4451
3774.924,343,368,448,223,-7824,3392,10140,-2540,-6738,4451
3782.204,342,363,442,221,-7824,3392,10140,-2540,-6738,4451
3785.8540000000003,343,356,437,220,-7824,3392,10140,-2540,-6738,4451
3796.598,343,349,431,220,-7824,3392,10140,-2540,-6738,4451
3804.662,343,339,425,220,-7824,3392,10140,-2540,-6738,4451
3808.57,342,328,418,220,-6512,4120,10820,-3377,-7688,6111
3817.477,340,314,411,221,-6512,4120,10820,-3377,-7688,6111
3820.455,335,299,401,221,-6512,4120,10820,-3377,-7688,6111
3821.469,331,285,391,221,-6512,4120,10820,-3377,-7688,6111
3830.5989999999997,327,268,378,221,-6512,4120,10820,-3377,-7688,6111
3839.337,324,254,366,221,-6512,4120,10820,-3377,-7688,6111
3842.714,323,240,349,219,-5224,6068,12200,-2806,-10091,6787
3852.52,322,221,315,220,-5224,6068,12200,-2806,-10091,6787
3861.619,322,210,287,219,-5224,6068,12200,-2806,-10091,6787
3863.819,321,193,255,219,-5224,6068,12200,-2806,-10091,6787
3872.7599999999998,320,181,231,222,-5224,6068,12200,-2806,-10091,6787
3875.473,318,174,207,226,-5224,6068,12200,-2806,-10091,6787
3884.021,315,174,189,229,-4324,5728,13716,-5874,-11719,6982
3895.187,310,179,168,234,-4324,5728,13716,-5874,-11719,6982
3895.705,307,184,157,237,-4324,5728,13716,-5874,-11719,6982
3907.5730000000003,303,192,141,241,-4324,5728,13716,-5874,-11719,6982
3909.482,300,197,128,248,-4324,5728,13716,-5874,-11719,6982
3919.2149999999997,297,215,114,252,-4324,5728,13716,-5874,-11719,6982
3927.441,293,231,108,252,-4324,5728,13716,-5874,-11719,6982
3930.422,291,254,113,254,-2020,4592,15848,-11241,-11370,7224
3933.05,288,294,138,254,-2020,4592,15848,-11241,-11370,7224
3942.027,285,307,171,252,-2020,4592,15848,-11241,-11370,7224
3949.272,281,302,218,251,-2020,4592,15848,-11241,-11370,7224
3958.9120000000003,279,291,262,251,-2020,4592,15848,-11241,-11370,7224
3963.717,276,282,310,248,-2020,4592,15848,-11241,-11370,7224
3972.814,273,271,357,244,-1268,6132,20192,-7246,-9677,5513
3974.218,270,259,409,241,-1268,6132,20192,-7246,-9677,5513
3982.5029999999997,268,252,445,239,-1268,6132,20192,-7246,-9677,5513
3985.763,264,248,495,236,-1268,6132,20192,-7246,-9677,5513
3997.0469999999996,263,247,538,233,-1268,6132,20192,-7246,-9677,5513
4005.082,260,248,583,228,-1268,6132,20192,-7246,-9677,5513
4008.0499999999997,260,251,618,224,-1080,6056,20512,-2925,-5900,4599
4011.0669999999996,259,254,654,220,-1080,6056,20512,-2925,-5900,4599
4020.3340000000003,259,257,685,217,-1080,6056,20512,-2925,-5900,4599
4030.221,259,260,715,214,-1080,6056,20512,-2925,-5900,4599
4038.2930000000006,258,264,742,211,-1080,6056,20512,-2925,-5900,4599
4041.3610000000003,257,271,771,206,-1080,6056,20512,-2925,-5900,4599
4050.447,257,278,792,203,-728,6156,17504,-874,-3171,3550
4052.6949999999997,257,286,812,200,-728,6156,17504,-874,-3171,3550
4056.027,256,292,823,197,-728,6156,17504,-874,-3171,3550
4064.2009999999996,255,302,835,193,-728,6156,17504,-874,-3171,3550
4074.877,253,310,844,192,-728,6156,17504,-874,-3171,3550
4074.877,250,318,849,190,-728,6156,17504,-874,-3171,3550
4085.8759999999997,247,325,850,188,-728,6156,17504,-874,-3171,3550
4088.878,243,334,848,186,-1388,5452,16404,-1442,-1619,2344
4098.965999999999,240,343,844,184,-1388,5452,16404,-1442,-1619,2344
4098.965999999999,238,350,838,181,-1388,5452,16404,-1442,-1619,2344
4108.168,236,356,832,181,-1388,5452,16404,-1442,-1619,2344
4118.515,234,363,821,180,-1388,5452,16404,-1442,-1619,2344
4120.945,233,369,810,181,-1388,5452,16404,-1442,-1619,2344
4131.126,232,374,798,182,-1044,5452,15608,-706,-1704,1477
4131.126,232,379,780,185,-1044,5452,15608,-706,-1704,1477
4141.377,232,383,765,186,-1044,5452,15608,-706,-1704,1477
4149.397,232,385,750,189,-1044,5452,15608,-706,-1704,1477
4151.7,234,389,734,192,-1044,5452,15608,-706,-1704,1477
4158.412,234,393,714,194,-1044,5452,15608,-706,-1704,1477
4163.372,235,394,699,197,-832,4500,16392,745,-1918,1333
4171.26,237,396,685,200,-832,4500,16392,745,-1918,1333
4174.652,240,396,670,202,-832,4500,16392,745,-1918,1333
4185.826,242,396,655,203,-832,4500,16392,745,-1918,1333
4185.826,246,396,641,206,-832,4500,16392,745,-1918,1333
4196.615000000001,249,397,627,208,-832,4500,16392,745,-1918,1333
4204.9839999999995,251,397,613,209,-832,4500,16392,745,-1918,1333
4208.597,254,396,599,211,-20,6332,17316,2891,-1080,472
4208.597,257,396,585,214,-20,6332,17316,2891,-1080,472
4218.946,260,396,571,215,-20,6332,17316,2891,-1080,472
4224.36,262,395,558,217,-20,6332,17316,2891,-1080,472
4229.954000000001,266,394,543,219,-20,6332,17316,2891,-1080,472
4235.696,269,393,528,221,-20,6332,17316,2891,-1080,472
4241.242,272,391,512,222,-20,6332,17316,2891,-1080,472
4248.6179999999995,274,391,496,224,-540,4824,15092,1374,-52,-133
4252.6,278,389,481,227,-540,4824,15092,1374,-52,-133
4263.768,280,388,465,227,-540,4824,15092,1374,-52,-133
4263.799,282,386,450,229,-540,4824,15092,1374,-52,-133
4274.483,285,384,438,231,-540,4824,15092,1374,-52,-133
4276.866,286,382,424,232,-540,4824,15092,1374,-52,-133
4287.043,288,380,409,234,-540,4824,15092,1374,-52,-133
4289.454,289,378,395,236,-852,4060,15904,-1560,-118,101
4297.055,292,376,380,238,-852,4060,15904,-1560,-118,101
4302.062,293,373,368,239,-852,4060,15904,-1560,-118,101
4307.561,296,371,356,241,-852,4060,15904,-1560,-118,101
4313.737,297,368,344,244,-852,4060,15904,-1560,-118,101
4319.182,300,367,332,245,-852,4060,15904,-1560,-118,101
4328.468,301,364,321,246,-800,4648,15300,49,-152,-84
4330.656,302,363,312,248,-800,4648,15300,49,-152,-84
4340.947,303,361,303,249,-800,4648,15300,49,-152,-84
4340.947,304,358,294,250,-800,4648,15300,49,-152,-84
4346.9439999999995,306,357,286,252,-800,4648,15300,49,-152,-84
4352.034,307,353,279,254,-800,4648,15300,49,-152,-84
4358.900000000001,310,352,271,254,-800,4648,15300,49,-152,-84
4364.131,310,350,266,255,-776,4920,15384,605,-315,-137
4371.747,312,347,259,257,-776,4920,15384,605,-315,-137
4374.433,313,345,253,258,-776,4920,15384,605,-315,-137
4385.332,314,343,248,260,-776,4920,15384,605,-315,-137
4385.332,315,341,243,262,-776,4920,15384,605,-315,-137
4396.985,316,338,238,265,-776,4920,15384,605,-315,-137
4400.218,319,336,233,266,-776,4920,15384,605,-315,-137
4408.701,319,334,229,268,-676,4428,15468,439,69,-100
4408.701,320,332,226,270,-676,4428,15468,439,69,-100
4419.329000000001,320,330,223,271,-676,4428,15468,439,69,-100
4427.558,320,328,220,272,-676,4428,15468,439,69,-100
4430.156,321,326,216,275,-676,4428,15468,439,69,-100
4430.156,322,324,214,277,-676,4428,15468,439,69,-100
4441.493,323,322,212,278,-676,4428,15468,439,69,-100
4441.493,324,321,209,279,-688,4740,15420,342,-33,-104
4452.3859999999995,323,319,208,281,-688,4740,15420,342,-33,-104
4457.735,324,318,206,281,-688,4740,15420,342,-33,-104
4463.513,324,317,204,282,-688,4740,15420,342,-33,-104
4472.799,325,315,203,283,-688,4740,15420,342,-33,-104
4476.37,326,314,202,285,-688,4740,15420,342,-33,-104
4479.973,326,312,201,285,-688,4740,15420,342,-33,-104
4486.413,327,311,200,287,-744,4984,15348,-201,-206,-37
4496.837,326,310,199,288,-744,4984,15348,-201,-206,-37
4498.027999999999,326,308,199,288,-744,4984,15348,-201,-206,-37
4498.027999999999,326,307,198,288,-744,4984,15348,-201,-206,-37
4507.941,326,307,198,291,-744,4984,15348,-201,-206,-37
4514.686000000001,326,306,198,292,-744,4984,15348,-201,-206,-37
4519.4130000000005,325,306,198,292,-744,4984,15348,-201,-206,-37
4527.402,326,304,198,293,-732,4576,15404,183,-53,-53
4530.288,326,304,198,295,-732,4576,15404,183,-53,-53
4541.134,326,304,198,295,-732,4576,15404,183,-53,-53
4541.134,325,303,199,295,-732,4576,15404,183,-53,-53
4552.862,325,303,200,297,-732,4576,15404,183,-53,-53
4552.862,324,303,200,298,-732,4576,15404,183,-53,-53
4560.071,323,302,201,298,-732,4576,15404,183,-53,-53
4563.3730000000005,324,302,201,299,-688,4704,15452,294,-6,-44
4574.51,324,301,202,301,-688,4704,15452,294,-6,-44
4574.51,323,301,203,301,-688,4704,15452,294,-6,-44
4585.692,323,300,203,301,-688,4704,15452,294,-6,-44
4585.692,322,300,204,302,-688,4704,15452,294,-6,-44
4595.576,321,299,204,303,-688,4704,15452,294,-6,-44
4597.5109999999995,321,299,205,303,-688,4704,15452,294,-6,-44
4607.758,321,299,206,304,-732,4652,15328,-79,-21,40
4607.8,322,299,208,305,-732,4652,15328,-79,-21,40
4618.6410000000005,321,299,209,306,-732,4652,15328,-79,-21,40
4618.6410000000005,321,299,209,305,-732,4652,15328,-79,-21,40
4630.434,320,298,210,307,-732,4652,15328,-79,-21,40
4633.6539999999995,320,298,212,307,-732,4652,15328,-79,-21,40
4633.6539999999995,319,298,212,308,-732,4652,15328,-79,-21,40
4642.235000000001,319,297,213,308,-732,4652,15328,-79,-21,40
4652.5869999999995,318,297,214,309,-664,4768,15436,82,-114,-33
4652.5869999999995,319,296,215,309,-664,4768,15436,82,-114,-33
4663.776000000001,319,296,215,309,-664,4768,15436,82,-114,-33
4666.4349999999995,318,296,216,310,-664,4768,15436,82,-114,-33
4666.4349999999995,317,296,217,311,-664,4768,15436,82,-114,-33
4675.655,317,295,218,311,-664,4768,15436,82,-114,-33
4683.1810000000005,318,295,219,311,-664,4768,15436,82,-114,-33
4685.977,318,295,220,311,-712,4704,15280,142,-74,-48
4696.792,317,294,221,311,-712,4704,15280,142,-74,-48
4696.792,318,294,220,311,-712,4704,15280,142,-74,-48
4708.12,318,294,222,311,-712,4704,15280,142,-74,-48
4711.14,317,294,224,313,-712,4704,15280,142,-74,-48
4711.14,316,295,224,313,-712,4704,15280,142,-74,-48
4719.74,316,295,225,313,-712,4704,15280,142,-74,-48
4730.298000000001,316,295,227,314,-716,4668,15412,79,-62,32
4730.298000000001,316,295,228,314,-716,4668,15412,79,-62,32
4741.226000000001,317,295,229,313,-716,4668,15412,79,-62,32
4741.226000000001,316,295,229,314,-716,4668,15412,79,-62,32
4750.904,316,295,230,314,-716,4668,15412,79,-62,32
4752.923,316,295,230,314,-716,4668,15412,79,-62,32
4760.871,315,295,231,314,-716,4668,15412,79,-62,32
4763.68,314,296,232,315,-668,4776,15436,101,-97,9
4774.822,315,296,234,315,-668,4776,15436,101,-97,9
4776.823,315,297,234,315,-668,4776,15436,101,-97,9
4776.823,314,297,235,314,-668,4776,15436,101,-97,9
4786.697,314,297,235,315,-668,4776,15436,101,-97,9
4795.711,314,297,236,315,-668,4776,15436,101,-97,9
4797.093,315,297,236,314,-668,4776,15436,101,-97,9
4807.299999999999,314,298,237,314,-668,4776,15436,101,-97,9
4807.299999999999,313,297,238,315,-624,4864,15444,38,-79,22
4813.799999999999,314,298,238,315,-624,4864,15444,38,-79,22
4818.946000000001,313,299,239,314,-624,4864,15444,38,-79,22
4825.688,314,299,239,314,-624,4864,15444,38,-79,22
4830.811,313,299,239,314,-624,4864,15444,38,-79,22
4830.811,313,300,240,314,-624,4864,15444,38,-79,22
4841.262000000001,313,299,241,313,-624,4864,15444,38,-79,22
4846.827,312,300,242,314,-672,4860,15400,89,-52,15
4851.947,311,301,243,314,-672,4860,15400,89,-52,15
4861.915,311,301,243,314,-672,4860,15400,89,-52,15
4865.001,312,300,243,313,-672,4860,15400,89,-52,15
4869.137000000001,312,300,245,314,-672,4860,15400,89,-52,15
4877.011,311,300,245,314,-672,4860,15400,89,-52,15
4881.192,311,300,245,314,-672,4860,15400,89,-52,15
4885.773999999999,311,300,246,313,-672,4860,15400,89,-52,15
4888.842000000001,311,300,247,314,-616,4828,15352,125,-102,-31
4898.269,310,299,248,313,-616,4828,15352,125,-102,-31
4898.269,310,300,248,313,-616,4828,15352,125,-102,-31
4908.34,310,299,249,313,-616,4828,15352,125,-102,-31
4908.34,311,299,250,314,-616,4828,15352,125,-102,-31
4919.299,310,299,250,313,-616,4828,15352,125,-102,-31
4924.78,310,298,250,313,-616,4828,15352,125,-102,-31
4929.714,310,298,252,314,-604,4812,15368,66,-42,-22
4936.975,309,298,252,313,-604,4812,15368,66,-42,-22
4941.620999999999,309,298,252,313,-604,4812,15368,66,-42,-22
4945.009,309,298,253,313,-604,4812,15368,66,-42,-22
4952.503,309,298,254,313,-604,4812,15368,66,-42,-22
4956.687,310,297,254,313,-604,4812,15368,66,-42,-22
4963.433,309,297,255,313,-604,4812,15368,66,-42,-22
4969.294,310,297,256,313,-660,4832,15376,-89,-9,-18
4974.469,309,297,256,313,-660,4832,15376,-89,-9,-18
4984.085,309,296,256,313,-660,4832,15376,-89,-9,-18
4988.334,308,297,257,312,-660,4832,15376,-89,-9,-18
4990.8460000000005,308,296,258,314,-660,4832,15376,-89,-9,-18
4997.522,308,296,259,313,-660,4832,15376,-89,-9,-18
5001.884999999999,308,296,260,312,-660,4832,15376,-89,-9,-18
5007.706,308,296,259,313,-604,4824,15372,-8,17,10
5017.7519999999995,307,296,261,313,-604,4824,15372,-8,17,10
5020.042,307,296,260,312,-604,4824,15372,-8,17,10
5020.042,307,296,261,312,-604,4824,15372,-8,17,10
5027.281,307,296,262,313,-604,4824,15372,-8,17,10
5030.5289999999995,307,295,263,313,-604,4824,15372,-8,17,10
5039.472,307,295,263,312,-604,4824,15372,-8,17,10
5041.973,306,295,263,313,-604,4824,15372,-8,17,10
5052.487,306,295,263,313,-584,4852,15376,119,-35,10
5054.749,306,295,264,313,-584,4852,15376,119,-35,10
5054.749,305,295,264,312,-584,4852,15376,119,-35,10
5063.994,305,295,265,312,-584,4852,15376,119,-35,10
5074.687,306,295,265,313,-584,4852,15376,119,-35,10
5074.687,305,295,266,312,-584,4852,15376,119,-35,10
5085.398999999999,306,294,266,312,-584,4852,15376,119,-35,10
5085.398999999999,305,295,267,312,-640,4904,15316,92,-32,15
5095.813,306,294,267,313,-640,4904,15316,92,-32,15
5098.545,305,294,267,312,-640,4904,15316,92,-32,15
5104.795,305,294,268,312,-640,4904,15316,92,-32,15
5107.956999999999,305,294,269,313,-640,4904,15316,92,-32,15
5118.878,305,293,270,313,-640,4904,15316,92,-32,15
5119.627,305,293,269,313,-640,4904,15316,92,-32,15
5128.299,306,293,270,313,-592,4944,15352,100,-59,2
5130.374,306,293,271,313,-592,4944,15352,100,-59,2
5139.834,306,293,272,313,-592,4944,15352,100,-59,2
5140.907,306,293,272,312,-592,4944,15352,100,-59,2
5145.456,306,293,273,312,-592,4944,15352,100,-59,2
5152.714,306,293,274,313,-592,4944,15352,100,-59,2
5157.996,306,293,275,313,-592,4944,15352,100,-59,2
5163.184,306,293,275,313,-592,4944,15352,100,-59,2
5165.993,306,293,276,314,-580,4920,15320,77,-26,25
5175.119,306,293,278,314,-580,4920,15320,77,-26,25
5175.119,306,293,277,314,-580,4920,15320,77,-26,25
5185.846,306,294,278,313,-580,4920,15320,77,-26,25
5191.356,306,293,279,314,-580,4920,15320,77,-26,25
5196.202,306,294,280,315,-580,4920,15320,77,-26,25
5198.501,306,294,280,314,-580,4920,15320,77,-26,25
5208.723,306,294,280,315,-608,4932,15340,-28,-33,-30
5208.723,306,294,281,315,-608,4932,15340,-28,-33,-30
5219.454,307,294,281,314,-608,4932,15340,-28,-33,-30
5219.454,307,294,282,314,-608,4932,15340,-28,-33,-30
5229.934,307,295,282,314,-608,4932,15340,-28,-33,-30
5235.956,307,295,283,314,-608,4932,15340,-28,-33,-30
5240.838,307,295,282,314,-608,4932,15340,-28,-33,-30
5250.875,307,295,282,314,-592,4856,15332,-70,-39,-12
5252.917,308,295,283,314,-592,4856,15332,-70,-39,-12
5252.917,307,296,283,314,-592,4856,15332,-70,-39,-12
5263.563,308,296,283,314,-592,4856,15332,-70,-39,-12
5268.995,307,296,284,315,-592,4856,15332,-70,-39,-12
5274.433,307,296,283,314,-592,4856,15332,-70,-39,-12
5280.25,307,296,284,314,-592,4856,15332,-70,-39,-12
5285.567,307,297,284,314,-592,4856,15332,-70,-39,-12
5288.858,307,297,284,314,-600,4968,15320,35,-37,-13
5298.129,308,297,284,314,-600,4968,15320,35,-37,-13
5298.129,307,298,284,313,-600,4968,15320,35,-37,-13
5307.953,307,298,284,314,-600,4968,15320,35,-37,-13
5314.133,307,298,285,314,-600,4968,15320,35,-37,-13
5318.688,306,298,285,313,-600,4968,15320,35,-37,-13
5321.55,306,298,285,314,-600,4968,15320,35,-37,-13
5331.24,306,298,285,314,-620,4896,15324,-45,-49,6
5331.24,306,298,285,314,-620,4896,15324,-45,-49,6
5341.446,307,299,285,313,-620,4896,15324,-45,-49,6
5349.465,306,299,285,313,-620,4896,15324,-45,-49,6
5352.718000000001,306,299,286,314,-620,4896,15324,-45,-49,6
5360.76,306,300,286,313,-620,4896,15324,-45,-49,6
5363.585999999999,305,300,286,313,-620,4896,15324,-45,-49,6
5363.585999999999,305,300,287,313,-600,4888,15304,-22,-12,-39
5374.642,306,300,287,313,-600,4888,15304,-22,-12,-39
5379.079,305,300,287,312,-600,4888,15304,-22,-12,-39
5385.914,305,300,287,313,-600,4888,15304,-22,-12,-39
5385.914,305,299,287,313,-600,4888,15304,-22,-12,-39
5396.861000000001,304,299,288,313,-600,4888,15304,-22,-12,-39
5406.138,305,300,287,313,-600,4888,15304,-22,-12,-39
5408.0289999999995,304,299,288,313,-620,4888,15336,-110,-6,-28
5411.831,305,299,288,313,-620,4888,15336,-110,-6,-28
5419.561,305,299,288,313,-620,4888,15336,-110,-6,-28
5424.296,306,299,288,312,-620,4888,15336,-110,-6,-28
5429.991,305,299,288,313,-620,4888,15336,-110,-6,-28
5432.268,306,299,288,313,-620,4888,15336,-110,-6,-28
5442.044,305,299,288,312,-620,4888,15336,-110,-6,-28
5450.482,305,300,289,313,-620,4888,15336,-110,-6,-28
5452.496,305,300,290,314,-584,4940,15392,-108,-26,-16
5457.015,305,300,289,313,-584,4940,15392,-108,-26,-16
5463.061,305,300,289,312,-584,4940,15392,-108,-26,-16
5469.7,305,299,289,313,-584,4940,15392,-108,-26,-16
5474.622,305,300,289,313,-584,4940,15392,-108,-26,-16
5481.5019999999995,305,300,289,312,-584,4940,15392,-108,-26,-16
5486.223,305,300,289,313,-584,4944,15316,35,-16,-11
5496.165999999999,305,300,289,313,-584,4944,15316,35,-16,-11
5497.573,306,300,289,312,-584,4944,15316,35,-16,-11
5497.573,306,300,289,312,-584,4944,15316,35,-16,-11
5512.237,305,300,290,312,-584,4944,15316,35,-16,-11
5514.262000000001,305,300,289,312,-584,4944,15316,35,-16,-11
5519.205,305,300,289,312,-584,4944,15316,35,-16,-11
5522.71,305,301,289,312,-584,4944,15316,35,-16,-11
5531.152999999999,306,301,290,312,-628,5036,15388,-34,-12,-49
5539.775,304,301,290,312,-628,5036,15388,-34,-12,-49
5542.192,305,301,289,312,-628,5036,15388,-34,-12,-49
5547.116,304,301,290,312,-628,5036,15388,-34,-12,-49
5552.16,305,300,291,312,-628,5036,15388,-34,-12,-49
5559.166,304,301,290,311,-628,5036,15388,-34,-12,-49
5563.822,305,301,290,311,-628,5036,15388,-34,-12,-49
5567.754,304,301,291,312,-564,4968,15280,-39,-43,-27
5575.8060000000005,304,301,291,311,-564,4968,15280,-39,-43,-27
5585.336,303,300,291,311,-564,4968,15280,-39,-43,-27
5587.424,303,301,292,311,-564,4968,15280,-39,-43,-27
5587.424,304,300,292,311,-564,4968,15280,-39,-43,-27
5596.787,304,301,292,310,-564,4968,15280,-39,-43,-27
5604.242,303,301,292,310,-564,4968,15280,-39,-43,-27
5607.937,303,301,293,310,-616,4984,15348,-24,25,-46
5612.875,303,301,293,310,-616,4984,15348,-24,25,-46
5619.338,303,300,293,310,-616,4984,15348,-24,25,-46
5625.432,303,301,293,310,-616,4984,15348,-24,25,-46
5630.167,304,301,294,310,-616,4984,15348,-24,25,-46
5637.448,303,300,293,310,-616,4984,15348,-24,25,-46
5642.268999999999,302,300,293,309,-616,4984,15348,-24,25,-46
5649.135,303,300,294,309,-580,4896,15300,-94,-9,-39
5652.271,303,300,294,310,-580,4896,15300,-94,-9,-39
5663.838,302,300,294,309,-580,4896,15300,-94,-9,-39
5663.838,302,300,294,309,-580,4896,15300,-94,-9,-39
5669.9039999999995,302,300,295,309,-580,4896,15300,-94,-9,-39
5675.052,302,300,295,309,-580,4896,15300,-94,-9,-39
5681.719,302,299,295,309,-580,4896,15300,-94,-9,-39
5685.726,303,299,295,309,-580,4896,15300,-94,-9,-39
5696.928,302,299,296,309,-560,4888,15304,53,-43,-7
5698.182,302,300,295,308,-560,4888,15304,53,-43,-7
5698.182,302,300,296,307,-560,4888,15304,53,-43,-7
5708.881,302,299,296,308,-560,4888,15304,53,-43,-7
5715.112999999999,303,299,297,308,-560,4888,15304,53,-43,-7
5719.659,302,299,296,307,-560,4888,15304,53,-43,-7
5723.741999999999,302,299,297,307,-560,4888,15304,53,-43,-7
5730.708,303,299,297,308,-620,5040,15340,7,-10,-8
5730.708,303,300,297,308,-620,5040,15340,7,-10,-8
5741.149,302,300,297,307,-620,5040,15340,7,-10,-8
5749.268,302,300,297,307,-620,5040,15340,7,-10,-8
5752.883,302,300,298,308,-620,5040,15340,7,-10,-8
5752.883,302,300,297,307,-620,5040,15340,7,-10,-8
5761.624000000001,301,300,297,307,-620,5040,15340,7,-10,-8
5764.215,302,299,297,307,-620,5040,15340,7,-10,-8
5774.827,302,299,298,308,-592,4928,15240,-109,-13,-31
5774.827,302,300,297,307,-592,4928,15240,-109,-13,-31
5786.4800000000005,301,300,297,307,-592,4928,15240,-109,-13,-31
5786.4800000000005,302,299,297,308,-592,4928,15240,-109,-13,-31
5796.9710000000005,302,299,297,308,-592,4928,15240,-109,-13,-31
5796.9710000000005,302,299,296,307,-592,4928,15240,-109,-13,-31
5809.008000000001,302,299,296,308,-592,4928,15240,-109,-13,-31
5809.008000000001,302,300,297,309,-596,4888,15312,-78,-8,-40
5819.146,303,300,297,308,-596,4888,15312,-78,-8,-40
5819.146,303,299,297,308,-596,4888,15312,-78,-8,-40
5830.388,302,300,297,308,-596,4888,15312,-78,-8,-40
5830.388,303,300,297,308,-596,4888,15312,-78,-8,-40
5841.168,303,300,297,308,-596,4888,15312,-78,-8,-40
5846.179,303,300,298,308,-596,4888,15312,-78,-8,-40
5852.566000000001,303,300,298,309,-556,4964,15404,-45,-3,-7
5852.566000000001,303,301,298,308,-556,4964,15404,-45,-3,-7
5863.659000000001,303,300,298,308,-556,4964,15404,-45,-3,-7
5863.659000000001,303,300,298,308,-556,4964,15404,-45,-3,-7
5874.914000000001,303,301,298,309,-556,4964,15404,-45,-3,-7
5874.914000000001,302,301,297,308,-556,4964,15404,-45,-3,-7
5885.785,302,301,298,308,-556,4964,15404,-45,-3,-7
5893.846,303,301,298,309,-564,4968,15280,-98,2,-20
5896.956,303,300,298,309,-564,4968,15280,-98,2,-20
5901.588000000001,303,301,298,308,-564,4968,15280,-98,2,-20
5901.588000000001,304,301,297,308,-564,4968,15280,-98,2,-20
5909.102,303,301,298,309,-564,4968,15280,-98,2,-20
5915.883,303,301,298,309,-564,4968,15280,-98,2,-20
5919.493,302,301,297,309,-564,4968,15280,-98,2,-20
5930.251,302,300,298,309,-564,4968,15280,-98,2,-20
5931.811,302,301,298,310,-616,5000,15364,0,31,-43
5931.811,303,300,299,309,-616,5000,15364,0,31,-43
5942.291,303,300,298,309,-616,5000,15364,0,31,-43
5948.764,302,301,299,309,-616,5000,15364,0,31,-43
5953.065,302,301,299,309,-616,5000,15364,0,31,-43
5956.588,303,301,299,309,-616,5000,15364,0,31,-43
5963.1410000000005,302,301,299,308,-616,5000,15364,0,31,-43
5969.351,302,301,300,309,-596,4964,15304,-84,2,-47
5974.518,302,301,300,309,-596,4964,15304,-84,2,-47
5976.899,302,301,300,309,-596,4964,15304,-84,2,-47
5986.757,303,301,300,309,-596,4964,15304,-84,2,-47
5986.757,302,301,301,309,-596,4964,15304,-84,2,-47
5997.655,303,301,301,309,-596,4964,15304,-84,2,-47
6002.511,302,301,301,308,-596,4964,15304,-84,2,-47
6007.302000000001,302,301,301,309,-596,4964,15304,-84,2,-47
6007.302000000001,302,301,302,309,-596,4996,15296,-103,0,-24
6018.96,302,301,301,308,-596,4996,15296,-103,0,-24
6024.218,302,300,302,308,-596,4996,15296,-103,0,-24
6030.8060000000005,302,301,303,309,-596,4996,15296,-103,0,-24
6030.8060000000005,302,301,303,310,-596,4996,15296,-103,0,-24
6039.450000000001,303,301,303,309,-596,4996,15296,-103,0,-24
6041.711,303,301,303,309,-596,4996,15296,-103,0,-24
6052.39,303,301,303,309,-592,4892,15264,-28,0,-22
6052.39,303,301,303,309,-592,4892,15264,-28,0,-22
6064.191,303,301,304,309,-592,4892,15264,-28,0,-22
6064.191,302,301,304,310,-592,4892,15264,-28,0,-22
6071.122,302,301,305,310,-592,4892,15264,-28,0,-22
6074.703,303,301,304,309,-592,4892,15264,-28,0,-22
6085.6539999999995,303,300,304,309,-592,4892,15264,-28,0,-22
6085.6539999999995,303,301,305,309,-620,4896,15400,-92,37,-35
6096.902,303,301,305,309,-620,4896,15400,-92,37,-35
6096.902,303,300,305,308,-620,4896,15400,-92,37,-35
6104.476,303,301,305,308,-620,4896,15400,-92,37,-35
6107.954000000001,304,301,305,309,-620,4896,15400,-92,37,-35
6116.486,304,301,305,309,-620,4896,15400,-92,37,-35
6119.122,304,301,305,308,-620,4896,15400,-92,37,-35
6130.07,304,301,305,308,-620,4896,15400,-92,37,-35
6132.799,304,301,305,309,-584,4920,15320,-67,24,-35
6140.8009999999995,304,302,304,309,-584,4920,15320,-67,24,-35
6143.168000000001,304,302,304,309,-584,4920,15320,-67,24,-35
6149.155000000001,304,301,305,309,-584,4920,15320,-67,24,-35
6152.485000000001,305,302,304,309,-584,4920,15320,-67,24,-35
6163.2429999999995,305,302,304,309,-584,4920,15320,-67,24,-35
6163.2429999999995,305,301,304,309,-584,4920,15320,-67,24,-35
6174.635,304,302,305,310,-608,4852,15308,-52,-43,-10
6176.955000000001,304,302,304,309,-608,4852,15308,-52,-43,-10
6176.955000000001,304,302,304,308,-608,4852,15308,-52,-43,-10
6185.288,304,301,304,309,-608,4852,15308,-52,-43,-10
6196.933,306,301,304,309,-608,4852,15308,-52,-43,-10
6196.933,305,301,303,308,-608,4852,15308,-52,-43,-10
6207.885,305,302,304,308,-608,4852,15308,-52,-43,-10
6210.062,305,301,304,309,-548,4916,15332,-1,2,-22
6218.083,304,302,304,308,-548,4916,15332,-1,2,-22
6225.143,304,302,303,308,-548,4916,15332,-1,2,-22
6228.878,304,302,303,308,-548,4916,15332,-1,2,-22
6234.553,304,302,303,309,-548,4916,15332,-1,2,-22
6237.099999999999,304,301,303,308,-548,4916,15332,-1,2,-22
6245.795,304,301,302,308,-548,4916,15332,-1,2,-22
6246.900000000001,304,302,303,308,-548,4916,15332,-1,2,-22
6252.076,303,302,303,308,-640,4948,15348,-103,28,-11
6255.378000000001,304,302,303,308,-640,4948,15348,-103,28,-11
6264.168,304,302,303,308,-640,4948,15348,-103,28,-11
6267.572999999999,303,302,303,308,-640,4948,15348,-103,28,-11
6274.855,303,302,304,308,-640,4948,15348,-103,28,-11
6280.505,305,302,303,307,-640,4948,15348,-103,28,-11
6285.698,305,302,303,307,-640,4948,15348,-103,28,-11
6292.036999999999,304,302,304,308,-628,4924,15328,-73,-6,-14
6296.986000000001,304,303,303,307,-628,4924,15328,-73,-6,-14
6300.328,304,303,303,307,-628,4924,15328,-73,-6,-14
6308.661,304,303,304,307,-628,4924,15328,-73,-6,-14
6308.661,304,303,304,307,-628,4924,15328,-73,-6,-14
6319.285,304,303,303,307,-628,4924,15328,-73,-6,-14
6325.36,303,303,304,307,-628,4924,15328,-73,-6,-14
6330.003,303,303,304,307,-612,4956,15272,5,18,-44
6339.851000000001,305,302,303,307,-612,4956,15272,5,18,-44
6341.915,303,302,302,306,-612,4956,15272,5,18,-44
6341.915,304,303,303,307,-612,4956,15272,5,18,-44
6352.405,303,303,304,307,-612,4956,15272,5,18,-44
6358.955,304,303,303,306,-612,4956,15272,5,18,-44
6363.441,304,303,303,306,-612,4956,15272,5,18,-44
6366.342000000001,304,303,304,307,-612,4956,15272,5,18,-44
6375.597,304,303,304,308,-564,4940,15312,-35,29,-23
6375.597,304,303,303,306,-564,4940,15312,-35,29,-23
6383.764,303,303,303,306,-564,4940,15312,-35,29,-23
6385.995,304,303,304,307,-564,4940,15312,-35,29,-23
6397.42,304,303,304,307,-564,4940,15312,-35,29,-23
6397.42,304,303,303,306,-564,4940,15312,-35,29,-23
6408.438,304,303,304,306,-564,4940,15312,-35,29,-23
6411.817,304,303,304,307,-592,4976,15348,9,-17,-9
6411.817,305,303,303,306,-592,4976,15348,9,-17,-9
6420.0109999999995,303,303,303,306,-592,4976,15348,9,-17,-9
6428.032,304,303,303,306,-592,4976,15348,9,-17,-9
6430.528,304,303,304,307,-592,4976,15348,9,-17,-9
6436.285,304,303,303,306,-592,4976,15348,9,-17,-9
6441.995000000001,304,303,304,306,-592,4976,15348,9,-17,-9
6450.089,304,303,304,306,-592,4976,15348,9,-17,-9
6452.848999999999,305,303,304,306,-600,4956,15340,-34,7,-15
6456.12,305,303,304,305,-600,4956,15340,-34,7,-15
6463.718,305,303,304,305,-600,4956,15340,-34,7,-15
6468.712,304,303,304,306,-600,4956,15340,-34,7,-15
6474.249000000001,304,303,304,306,-600,4956,15340,-34,7,-15
6480.612,304,303,304,306,-600,4956,15340,-34,7,-15
6486.191,303,303,304,306,-600,4956,15340,-34,7,-15
6495.397,304,303,304,306,-624,4928,15332,-74,5,20
6497.442999999999,304,303,304,305,-624,4928,15332,-74,5,20
6501.333,304,303,304,305,-624,4928,15332,-74,5,20
6507.532,304,303,304,305,-624,4928,15332,-74,5,20
6507.532,304,303,305,306,-624,4928,15332,-74,5,20
6519.539,303,303,305,306,-624,4928,15332,-74,5,20
6519.539,303,303,305,305,-624,4928,15332,-74,5,20
6532.185,303,302,305,306,-624,4928,15332,-74,5,20
6533.76,304,303,305,306,-616,5044,15304,36,9,-17
6540.923000000001,304,302,304,305,-616,5044,15304,36,9,-17
6540.923000000001,304,302,304,305,-616,5044,15304,36,9,-17
6552.27,304,303,305,306,-616,5044,15304,36,9,-17
6554.815,304,303,304,306,-616,5044,15304,36,9,-17
6554.815,304,303,304,306,-616,5044,15304,36,9,-17
6564.431,304,303,304,306,-616,5044,15304,36,9,-17
6571.063,304,304,304,306,-544,4996,15320,-85,0,-37
6574.879,303,304,304,306,-544,4996,15320,-85,0,-37
6579.447,304,303,304,306,-544,4996,15320,-85,0,-37
6585.6320000000005,305,303,304,307,-544,4996,15320,-85,0,-37
6591.335,305,303,304,307,-544,4996,15320,-85,0,-37
6597.099,303,303,304,307,-544,4996,15320,-85,0,-37
6599.591,304,303,304,306,-544,4996,15320,-85,0,-37
6608.900000000001,304,303,304,306,-544,4996,15320,-85,0,-37
6608.900000000001,304,303,304,307,-616,4928,15292,-113,20,-2
6619.304999999999,304,303,304,306,-616,4928,15292,-113,20,-2
6619.304999999999,304,303,304,306,-616,4928,15292,-113,20,-2
6630.3330000000005,304,303,304,307,-616,4928,15292,-113,20,-2
6639.352,304,303,304,306,-616,4928,15292,-113,20,-2
6641.4130000000005,303,304,303,306,-616,4928,15292,-113,20,-2
6650.805,303,304,304,306,-616,4928,15292,-113,20,-2
6652.753,303,304,304,307,-544,4992,15288,9,-11,-29
6657.439,303,304,304,306,-544,4992,15288,9,-11,-29
6662.795,303,304,303,306,-544,4992,15288,9,-11,-29
6662.795,304,304,304,306,-544,4992,15288,9,-11,-29
6674.404,304,304,303,307,-544,4992,15288,9,-11,-29
6674.404,304,304,303,306,-544,4992,15288,9,-11,-29
6686.085,303,304,303,307,-544,4992,15288,9,-11,-29
6686.085,303,304,303,307,-544,4992,15288,9,-11,-29
6696.7970000000005,303,304,303,307,-568,4952,15312,-88,-20,-20
6697.312,303,304,303,306,-568,4952,15312,-88,-20,-20
6707.978,303,304,303,307,-568,4952,15312,-88,-20,-20
6716.063,304,304,303,307,-568,4952,15312,-88,-20,-20
6719.258,303,304,303,307,-568,4952,15312,-88,-20,-20
6721.986,304,304,302,306,-568,4952,15312,-88,-20,-20
6730.717000000001,302,303,303,307,-568,4952,15312,-88,-20,-20
6730.717000000001,303,304,303,307,-604,4988,15288,-45,-8,-53
6741.424,303,304,302,307,-604,4988,15288,-45,-8,-53
6750.483,303,304,302,306,-604,4988,15288,-45,-8,-53
6752.267,303,303,302,307,-604,4988,15288,-45,-8,-53
6752.267,304,303,302,307,-604,4988,15288,-45,-8,-53
6764.211,304,303,302,306,-604,4988,15288,-45,-8,-53
6767.268,303,303,302,307,-604,4988,15288,-45,-8,-53
6767.268,303,303,303,307,-632,4996,15336,-169,29,-71
6775.316,302,303,302,306,-632,4996,15336,-169,29,-71
6786.022,303,303,302,306,-632,4996,15336,-169,29,-71
6794.0560000000005,303,303,303,307,-632,4996,15336,-169,29,-71
6797.5070000000005,304,303,303,307,-632,4996,15336,-169,29,-71
6799.462,303,303,303,306,-632,4996,15336,-169,29,-71
6808.212,305,303,303,306,-632,4996,15336,-169,29,-71
6812.106,303,303,304,307,-600,5020,15352,-198,44,-62
6818.854,304,303,303,306,-600,5020,15352,-198,44,-62
6826.622,304,303,304,306,-600,5020,15352,-198,44,-62
6831.174,303,303,304,307,-600,5020,15352,-198,44,-62
6839.273999999999,304,303,304,307,-600,5020,15352,-198,44,-62
6844.027999999999,304,302,304,308,-600,5020,15352,-198,44,-62
6848.148,304,302,304,307,-600,5020,15352,-198,44,-62
6852.746,305,302,305,308,-568,4912,15296,-109,53,-12
6852.746,304,303,305,307,-568,4912,15296,-109,53,-12
6863.74,304,303,305,308,-568,4912,15296,-109,53,-12
6872.584,304,303,306,308,-568,4912,15296,-109,53,-12
6875.056,304,302,306,308,-568,4912,15296,-109,53,-12
6878.351000000001,305,303,305,307,-568,4912,15296,-109,53,-12
6885.789,304,303,305,307,-568,4912,15296,-109,53,-12
6890.577,305,303,306,308,-600,5024,15316,-8,24,-35
6897.674,305,303,305,307,-600,5024,15316,-8,24,-35
6902.235,305,303,305,306,-600,5024,15316,-8,24,-35
6907.94,305,303,304,307,-600,5024,15316,-8,24,-35
6910.764,305,303,304,307,-600,5024,15316,-8,24,-35
6919.342000000001,305,303,304,306,-600,5024,15316,-8,24,-35
6919.342000000001,305,303,304,306,-600,5024,15316,-8,24,-35
6930.2970000000005,306,303,305,307,-600,5024,15316,-8,24,-35
6935.907,306,304,304,307,-652,4852,15300,-142,-2,-14
6940.9349999999995,305,304,304,307,-652,4852,15300,-142,-2,-14
6943.504,305,303,304,307,-652,4852,15300,-142,-2,-14
6952.921,305,303,304,308,-652,4852,15300,-142,-2,-14
6952.921,305,304,303,307,-652,4852,15300,-142,-2,-14
6963.588,306,303,303,308,-652,4852,15300,-142,-2,-14
6968.809,306,304,302,307,-652,4852,15300,-142,-2,-14
6973.9529999999995,306,303,303,307,-616,5000,15340,-57,18,-30
6980.7519999999995,305,303,302,306,-616,5000,15340,-57,18,-30
6985.652,304,304,302,306,-616,5000,15340,-57,18,-30
6988.400000000001,305,303,303,306,-616,5000,15340,-57,18,-30
6997.747,305,304,302,307,-616,5000,15340,-57,18,-30
6997.747,305,304,302,306,-616,5000,15340,-57,18,-30
7008.088,306,303,302,306,-616,5000,15340,-57,18,-30
7008.088,306,304,302,306,-604,4896,15304,-132,-5,-28
7019.48,305,304,302,306,-604,4896,15304,-132,-5,-28
7028.2660000000005,305,304,301,306,-604,4896,15304,-132,-5,-28
7030.273,304,304,302,306,-604,4896,15304,-132,-5,-28
7030.273,304,304,302,306,-604,4896,15304,-132,-5,-28
7044.378,304,304,302,305,-604,4896,15304,-132,-5,-28
7046.058,304,304,302,306,-604,4896,15304,-132,-5,-28
7051.931,304,304,302,306,-612,4924,15320,-52,14,-6
7058.61,304,304,301,305,-612,4924,15320,-52,14,-6
7063.505,304,304,301,305,-612,4924,15320,-52,14,-6
7066.6359999999995,304,304,302,306,-612,4924,15320,-52,14,-6
7075.759,304,304,302,306,-612,4924,15320,-52,14,-6
7075.759,304,304,301,305,-612,4924,15320,-52,14,-6
7085.798,304,304,301,305,-612,4924,15320,-52,14,-6
7094.058999999999,304,303,302,306,-612,4924,15320,-52,14,-6
7097.848,304,303,301,305,-648,4968,15376,-103,19,-57
7097.848,304,304,301,305,-648,4968,15376,-103,19,-57
7108.763,304,304,301,305,-648,4968,15376,-103,19,-57
7111.103,304,304,301,306,-648,4968,15376,-103,19,-57
7118.7880000000005,304,304,301,305,-648,4968,15376,-103,19,-57
7123.3550000000005,304,304,301,305,-648,4968,15376,-103,19,-57
7130.0160000000005,304,304,301,305,-648,4968,15376,-103,19,-57
7130.0160000000005,305,303,301,305,-644,4904,15356,-197,42,-57
7141.395,305,303,301,305,-644,4904,15356,-197,42,-57
7141.395,305,303,301,305,-644,4904,15356,-197,42,-57
7153.092,305,303,301,306,-644,4904,15356,-197,42,-57
7156.7970000000005,304,303,300,305,-644,4904,15356,-197,42,-57
7163.252,305,303,300,304,-644,4904,15356,-197,42,-57
7168.876,306,303,300,305,-644,4904,15356,-197,42,-57
7174.162,308,303,301,304,-752,4944,15792,-175,177,11
7176.995,308,303,300,303,-752,4944,15792,-175,177,11
7186.754,309,302,300,303,-752,4944,15792,-175,177,11
7195.223,312,301,300,303,-752,4944,15792,-175,177,11
7197.762,312,300,300,301,-752,4944,15792,-175,177,11
7197.762,313,299,301,297,-752,4944,15792,-175,177,11
7208.188,315,297,303,298,-752,4944,15792,-175,177,11
7214.891,316,295,305,296,-340,5840,16308,251,669,-855
7219.369000000001,319,292,310,293,-340,5840,16308,251,669,-855
7222.519,321,289,316,291,-340,5840,16308,251,669,-855
7230.608,325,287,326,289,-340,5840,16308,251,669,-855
7239.788,331,283,340,287,-340,5840,16308,251,669,-855
7243.664,334,280,356,287,-340,5840,16308,251,669,-855
7248.813,339,276,372,288,-340,5840,16308,251,669,-855
7252.295,342,271,384,288,-188,8104,20304,526,3193,-2352
7259.493,348,265,395,287,-188,8104,20304,526,3193,-2352
7264.13,354,260,400,289,-188,8104,20304,526,3193,-2352
7271.825,359,254,401,289,-188,8104,20304,526,3193,-2352
7274.407,362,248,402,291,-188,8104,20304,526,3193,-2352
7285.7300000000005,363,242,397,294,-188,8104,20304,526,3193,-2352
7293.829,364,236,390,296,-188,8104,20304,526,3193,-2352
7297.915,365,229,378,297,2008,7988,24592,627,8363,-5637
7299.789,366,223,349,299,2008,7988,24592,627,8363,-5637
7307.947,366,219,316,302,2008,7988,24592,627,8363,-5637
7317.148,365,215,266,305,2008,7988,24592,627,8363,-5637
7319.183,365,214,210,305,2008,7988,24592,627,8363,-5637
7329.93,369,216,156,307,2008,7988,24592,627,8363,-5637
7329.93,375,224,103,309,-40,9620,25768,804,16363,-9421
7337.623,379,248,35,312,-40,9620,25768,804,16363,-9421
7341.148999999999,382,299,0,316,-40,9620,25768,804,16363,-9421
7349.442,384,379,0,321,-40,9620,25768,804,16363,-9421
7352.371,386,451,0,327,-40,9620,25768,804,16363,-9421
7363.4310000000005,385,500,0,334,-40,9620,25768,804,16363,-9421
7371.509,384,518,0,342,-40,9620,25768,804,16363,-9421
7374.545999999999,381,491,0,355,-760,9120,21916,1412,22720,-11694
7384.278,374,441,0,371,-760,9120,21916,1412,22720,-11694
7386.29,369,410,0,382,-760,9120,21916,1412,22720,-11694
7390.2789999999995,362,381,41,399,-760,9120,21916,1412,22720,-11694
7397.811,344,357,152,421,-760,9120,21916,1412,22720,-11694
7408.05,322,345,247,440,-760,9120,21916,1412,22720,-11694
7408.05,301,344,307,460,-760,9120,21916,1412,22720,-11694
7419.06,280,348,349,483,-724,7304,15076,3622,25621,-14043
7422.962,260,355,374,503,-724,7304,15076,3622,25621,-14043
7430.827,247,365,382,521,-724,7304,15076,3622,25621,-14043
7434.732,237,381,383,538,-724,7304,15076,3622,25621,-14043
7441.111,231,401,380,553,-724,7304,15076,3622,25621,-14043
7452.798,228,416,369,571,-724,7304,15076,3622,25621,-14043
7452.798,226,421,350,586,-2680,4832,10812,62,25432,-15024
7463.688,226,431,321,604,-2680,4832,10812,62,25432,-15024
7463.688,228,434,293,617,-2680,4832,10812,62,25432,-15024
7474.6990000000005,228,434,269,627,-2680,4832,10812,62,25432,-15024
7480.6,229,427,245,633,-2680,4832,10812,62,25432,-15024
7485.506,227,419,228,638,-2680,4832,10812,62,25432,-15024
7493.032,218,407,213,643,-5012,500,7592,-1245,23097,-15144
7497.804,205,399,204,643,-5012,500,7592,-1245,23097,-15144
7508.004,194,395,204,642,-5012,500,7592,-1245,23097,-15144
7513.621,175,390,214,642,-5012,500,7592,-1245,23097,-15144
7518.911,153,379,228,643,-5012,500,7592,-1245,23097,-15144
7524.96,132,365,245,646,-5012,500,7592,-1245,23097,-15144
7530.299,109,347,263,653,-5012,500,7592,-1245,23097,-15144
7537.205,88,325,279,656,-9004,-2112,6736,-3022,20076,-12617
7542.031,62,282,298,656,-9004,-2112,6736,-3022,20076,-12617
7556.565,40,247,317,655,-9004,-2112,6736,-3022,20076,-12617
7558.255,20,215,340,648,-9004,-2112,6736,-3022,20076,-12617
7563.214,6,191,362,640,-9004,-2112,6736,-3022,20076,-12617
7572.442,0,163,387,632,-9004,-2112,6736,-3022,20076,-12617
7580.849,0,139,406,624,-12040,-944,5324,-2867,18165,-9068
7585.2570000000005,0,109,431,616,-12040,-944,5324,-2867,18165,-9068
7592.5599999999995,0,91,455,613,-12040,-944,5324,-2867,18165,-9068
7597.994,0,64,494,608,-12040,-944,5324,-2867,18165,-9068
7597.994,0,39,530,606,-12040,-944,5324,-2867,18165,-9068
7608.322,0,21,573,606,-12040,-944,5324,-2867,18165,-9068
7617.187000000001,0,9,620,607,-13836,-3688,1976,-2489,15697,-5511
7619.505,0,3,667,607,-13836,-3688,1976,-2489,15697,-5511
7629.146000000001,0,0,712,606,-13836,-3688,1976,-2489,15697,-5511
7630.848,0,0,751,606,-13836,-3688,1976,-2489,15697,-5511
7639.541,0,0,784,601,-13836,-3688,1976,-2489,15697,-5511
7645.035,0,0,815,592,-13836,-3688,1976,-2489,15697,-5511
7652.508,0,0,844,583,-13836,-3688,1976,-2489,15697,-5511
7655.994,0,4,858,567,-14024,-1936,3012,-388,11601,-3248
7663.323,0,24,867,550,-14024,-1936,3012,-388,11601,-3248
7668.32,0,50,871,531,-14024,-1936,3012,-388,11601,-3248
7674.557,7,74,869,512,-14024,-1936,3012,-388,11601,-3248
7680.545,24,97,860,492,-14024,-1936,3012,-388,11601,-3248
7685.6669999999995,46,120,844,472,-14024,-1936,3012,-388,11601,-3248
7692.735,72,149,818,451,-12968,-1668,1556,288,7928,-1466
7698.148,91,174,783,431,-12968,-1668,1556,288,7928,-1466
7708.354,111,196,737,411,-12968,-1668,1556,288,7928,-1466
7716.364,131,219,684,390,-12968,-1668,1556,288,7928,-1466
7719.9580000000005,151,243,615,368,-12968,-1668,1556,288,7928,-1466
7721.729,162,258,553,354,-12968,-1668,1556,288,7928,-1466
7730.742,171,271,490,344,-12968,-1668,1556,288,7928,-1466
7739.830000000001,184,284,429,333,-14960,-780,3004,-1542,4112,-1900
7741.943,198,296,366,319,-14960,-780,3004,-1542,4112,-1900
7753.206999999999,206,304,316,308,-14960,-780,3004,-1542,4112,-1900
7761.275000000001,215,309,273,296,-14960,-780,3004,-1542,4112,-1900
7764.122,228,313,231,281,-14960,-780,3004,-1542,4112,-1900
7772.643999999999,242,316,202,269,-14960,-780,3004,-1542,4112,-1900
7775.316,259,316,175,253,-15176,424,4084,-966,1673,-2228
7785.817,274,317,159,240,-15176,424,4084,-966,1673,-2228
7785.817,293,318,147,225,-15176,424,4084,-966,1673,-2228
7798.206999999999,311,317,139,211,-15176,424,4084,-966,1673,-2228
7799.575,332,316,134,196,-15176,424,4084,-966,1673,-2228
7809.102,350,310,131,181,-15176,424,4084,-966,1673,-2228
7809.102,371,310,131,169,-15176,424,4084,-966,1673,-2228
7821.254,395,311,131,154,-16604,-324,5256,-2161,1874,-1849
7825.924,421,313,136,139,-16604,-324,5256,-2161,1874,-1849
7830.214,443,315,138,127,-16604,-324,5256,-2161,1874,-1849
7841.952,466,317,139,112,-16604,-324,5256,-2161,1874,-1849
7844.151,483,319,138,100,-16604,-324,5256,-2161,1874,-1849
7852.204000000001,502,322,139,90,-16604,-324,5256,-2161,1874,-1849
7856.492,520,326,139,77,-15936,20,4012,-755,2459,-1455
7863.861,533,327,138,67,-15936,20,4012,-755,2459,-1455
7863.861,544,330,138,60,-15936,20,4012,-755,2459,-1455
7874.666,554,334,136,51,-15936,20,4012,-755,2459,-1455
7883.072,563,336,133,42,-15936,20,4012,-755,2459,-1455
7886.068,572,338,131,35,-15936,20,4012,-755,2459,-1455
7894.905,579,338,130,27,-15936,20,4012,-755,2459,-1455
7898.235,584,338,127,19,-15864,-108,3412,-944,1782,-1449
7902.347,588,337,125,12,-15864,-108,3412,-944,1782,-1449
7911.21,589,338,124,7,-15864,-108,3412,-944,1782,-1449
7919.602,591,340,123,1,-15864,-108,3412,-944,1782,-1449
7919.602,591,344,123,0,-15864,-108,3412,-944,1782,-1449
7930.197999999999,592,348,124,0,-15864,-108,3412,-944,1782,-1449
7930.197999999999,594,352,125,0,-16004,-1080,3012,-1334,1030,-1458
7941.348,597,356,128,0,-16004,-1080,3012,-1334,1030,-1458
7948.257,599,357,130,0,-16004,-1080,3012,-1334,1030,-1458
7952.45,598,357,134,0,-16004,-1080,3012,-1334,1030,-1458
7959.699,599,357,136,0,-16004,-1080,3012,-1334,1030,-1458
7963.947,603,362,141,0,-16004,-1080,3012,-1334,1030,-1458
7974.474,606,364,145,0,-16004,-1080,3012,-1334,1030,-1458
7974.474,609,367,149,0,-15812,-1896,3656,-621,265,-966
7985.716,612,370,154,0,-15812,-1896,3656,-621,265,-966
7993.7699999999995,613,371,157,0,-15812,-1896,3656,-621,265,-966
7998.268,614,374,161,0,-15812,-1896,3656,-621,265,-966
7999.996,613,376,163,0,-15812,-1896,3656,-621,265,-966
8009.107,613,378,168,0,-15812,-1896,3656,-621,265,-966
8009.107,613,380,174,0,-15828,-1072,4012,-20,-153,-753
8019.625,612,383,178,1,-15828,-1072,4012,-20,-153,-753
8025.990999999999,611,384,183,3,-15828,-1072,4012,-20,-153,-753
8030.382,609,385,188,4,-15828,-1072,4012,-20,-153,-753
8037.005000000001,607,386,192,6,-15828,-1072,4012,-20,-153,-753
8042.158,603,385,197,9,-15828,-1072,4012,-20,-153,-753
8052.246999999999,600,386,203,13,-15828,-1072,4012,-20,-153,-753
8052.246999999999,596,386,209,17,-16036,-1152,4776,249,-363,-629
8063.815999999999,591,386,215,21,-16036,-1152,4776,249,-363,-629
8063.815999999999,587,387,220,24,-16036,-1152,4776,249,-363,-629
8075.186000000001,582,387,226,29,-16036,-1152,4776,249,-363,-629
8075.186000000001,577,387,231,31,-16036,-1152,4776,249,-363,-629
8085.775,572,386,237,36,-16036,-1152,4776,249,-363,-629
8091.858,566,387,242,42,-16036,-1152,4776,249,-363,-629
8098.346,558,387,247,46,-15664,-768,4208,215,-341,-540
8102.532,550,387,253,51,-15664,-768,4208,215,-341,-540
8107.804,546,386,259,55,-15664,-768,4208,215,-341,-540
8114.681,539,384,264,60,-15664,-768,4208,215,-341,-540
8119.871,533,382,269,64,-15664,-768,4208,215,-341,-540
8130.316000000001,528,381,275,69,-15664,-768,4208,215,-341,-540
8130.316000000001,523,380,280,74,-15664,-768,4208,215,-341,-540
8141.351000000001,517,378,284,78,-15984,-1204,4708,-587,-447,-288
8141.351000000001,511,375,288,83,-15984,-1204,4708,-587,-447,-288
8153.650000000001,505,373,293,88,-15984,-1204,4708,-587,-447,-288
8153.650000000001,499,371,296,93,-15984,-1204,4708,-587,-447,-288
8163.432999999999,494,369,300,97,-15984,-1204,4708,-587,-447,-288
8168.964000000001,490,366,303,101,-15984,-1204,4708,-587,-447,-288
8174.393999999999,486,365,306,107,-15940,-884,4392,-284,-483,-472
8180.517999999999,478,363,310,112,-15940,-884,4392,-284,-483,-472
8185.886999999999,474,361,313,116,-15940,-884,4392,-284,-483,-472
8193.369,469,357,316,123,-15940,-884,4392,-284,-483,-472
8198.432,463,354,319,126,-15940,-884,4392,-284,-483,-472
8207.995,460,352,322,131,-15940,-884,4392,-284,-483,-472
8216.035,456,349,326,136,-15940,-884,4392,-284,-483,-472
8219.341999999999,453,348,328,139,-15960,-1764,4480,-1573,-443,-377
8228.268,448,347,332,144,-15960,-1764,4480,-1573,-443,-377
8230.392,444,345,334,149,-15960,-1764,4480,-1573,-443,-377
8238.204,440,343,335,153,-15960,-1764,4480,-1573,-443,-377
8241.966,436,341,337,158,-15960,-1764,4480,-1573,-443,-377
8252.503,433,339,338,162,-15960,-1764,4480,-1573,-443,-377
8260.859999999999,430,337,340,167,-15804,-1604,4464,-2359,-395,-211
8263.701,425,334,340,171,-15804,-1604,4464,-2359,-395,-211
8273.544,420,333,342,176,-15804,-1604,4464,-2359,-395,-211
8275.432999999999,414,334,344,180,-15804,-1604,4464,-2359,-395,-211
8285.733,405,334,345,184,-15804,-1604,4464,-2359,-395,-211
8285.733,396,333,348,188,-15804,-1604,4464,-2359,-395,-211
8297.09,386,334,350,193,-15836,-1948,5104,-3208,-405,-178
8298.604,378,334,351,196,-15836,-1948,5104,-3208,-405,-178
8309.07,370,335,353,201,-15836,-1948,5104,-3208,-405,-178
8317.473,359,334,354,205,-15836,-1948,5104,-3208,-405,-178
8319.866,351,333,354,208,-15836,-1948,5104,-3208,-405,-178
8330.207,343,333,356,214,-15836,-1948,5104,-3208,-405,-178
8330.207,338,332,357,219,-15836,-1948,5104,-3208,-405,-178
8341.846,334,332,357,223,-15696,-1136,5548,-1228,-90,77
8341.846,330,328,358,227,-15696,-1136,5548,-1228,-90,77
8353.099,326,327,358,231,-15696,-1136,5548,-1228,-90,77
8353.099,324,325,358,234,-15696,-1136,5548,-1228,-90,77
8363.24,322,322,359,238,-15696,-1136,5548,-1228,-90,77
8369.563,321,320,360,243,-15696,-1136,5548,-1228,-90,77
8374.287,320,316,360,245,-15856,-1772,5020,-28,234,34
8381.693000000001,320,313,360,247,-15856,-1772,5020,-28,234,34
8385.709,322,313,361,251,-15856,-1772,5020,-28,234,34
8393.764,321,312,363,255,-15856,-1772,5020,-28,234,34
8398.922,322,309,363,257,-15856,-1772,5020,-28,234,34
8406.925,322,305,363,258,-15856,-1772,5020,-28,234,34
8408.636,324,305,364,262,-15856,-1772,5020,-28,234,34
8418.98,325,304,364,263,-15720,-1408,4820,108,172,275
8418.98,328,304,365,266,-15720,-1408,4820,108,172,275
8427.889000000001,329,302,365,269,-15720,-1408,4820,108,172,275
8430.626,331,300,365,270,-15720,-1408,4820,108,172,275
8441.216,332,299,365,272,-15720,-1408,4820,108,172,275
8449.296,333,298,364,273,-15720,-1408,4820,108,172,275
8452.868,334,296,365,275,-15720,-1408,4820,108,172,275
8461.526,336,296,364,277,-15736,-1664,4944,-204,163,561
8463.91,339,293,365,278,-15736,-1664,4944,-204,163,561
8467.931999999999,338,291,364,280,-15736,-1664,4944,-204,163,561
8474.719000000001,339,292,364,281,-15736,-1664,4944,-204,163,561
8485.984999999999,339,291,363,283,-15736,-1664,4944,-204,163,561
8487.514,340,291,362,284,-15736,-1664,4944,-204,163,561
8487.514,340,291,361,286,-15736,-1664,4944,-204,163,561
8498.894999999999,339,291,361,286,-15780,-1288,4820,-182,236,439
8504.49,338,292,358,287,-15780,-1288,4820,-182,236,439
8508.051,337,293,358,290,-15780,-1288,4820,-182,236,439
8518.957999999999,336,292,357,290,-15780,-1288,4820,-182,236,439
8527.026,334,294,355,292,-15780,-1288,4820,-182,236,439
8530.25,333,294,355,293,-15780,-1288,4820,-182,236,439
8532.556,330,295,354,294,-15756,-1368,4516,98,77,369
8541.826000000001,329,296,354,295,-15756,-1368,4516,98,77,369
8541.826000000001,327,297,353,296,-15756,-1368,4516,98,77,369
8552.451,326,297,353,297,-15756,-1368,4516,98,77,369
8552.451,323,298,351,297,-15756,-1368,4516,98,77,369
8563.677,320,300,351,298,-15756,-1368,4516,98,77,369
8572.786,318,300,350,298,-15756,-1368,4516,98,77,369
8576.53,316,301,349,300,-15788,-1108,4796,329,137,137
8579.100999999999,313,301,348,299,-15788,-1108,4796,329,137,137
8585.83,311,302,346,300,-15788,-1108,4796,329,137,137
8596.909,310,303,346,302,-15788,-1108,4796,329,137,137
8598.922999999999,307,303,344,302,-15788,-1108,4796,329,137,137
8608.2,305,303,342,302,-15788,-1108,4796,329,137,137
8608.2,304,303,341,303,-15788,-1108,4796,329,137,137
8617.637999999999,302,305,340,303,-15832,-980,4816,382,198,294
8620.178,301,306,338,304,-15832,-980,4816,382,198,294
8629.83,300,306,337,305,-15832,-980,4816,382,198,294
8630.298,299,306,335,305,-15832,-980,4816,382,198,294
8641.137,295,306,332,304,-15832,-980,4816,382,198,294
8641.137,294,306,332,305,-15832,-980,4816,382,198,294
8652.860999999999,295,306,331,305,-15832,-980,4816,382,198,294
8652.860999999999,294,306,329,304,-15736,-1100,5056,-78,236,20
8663.458999999999,295,306,330,304,-15736,-1100,5056,-78,236,20
8668.312,295,306,331,306,-15736,-1100,5056,-78,236,20
8674.277999999998,296,305,332,307,-15736,-1100,5056,-78,236,20
8680.476,295,305,332,307,-15736,-1100,5056,-78,236,20
8685.652,296,304,329,307,-15736,-1100,5056,-78,236,20
8688.25,296,305,331,308,-15736,-1100,5056,-78,236,20
8699.118999999999,296,304,331,307,-15876,-760,4548,-689,20,121
8706.239,298,303,332,308,-15876,-760,4548,-689,20,121
8708.319,299,304,332,309,-15876,-760,4548,-689,20,121
8714.346000000001,300,304,333,309,-15876,-760,4548,-689,20,121
8718.952,300,304,331,308,-15876,-760,4548,-689,20,121
8725.135,299,304,330,308,-15876,-760,4548,-689,20,121
8730.525,300,305,331,310,-15876,-760,4548,-689,20,121
8737.911,298,305,330,310,-15912,-1620,4336,-654,-163,145
8741.296999999999,297,306,331,310,-15912,-1620,4336,-654,-163,145
8752.665,296,307,330,312,-15912,-1620,4336,-654,-163,145
8760.774,295,308,329,311,-15912,-1620,4336,-654,-163,145
8763.707,295,308,329,312,-15912,-1620,4336,-654,-163,145
8772.525,293,308,328,311,-15912,-1620,4336,-654,-163,145
8774.781,291,307,327,312,-15912,-1620,4336,-654,-163,145
8779.153,290,309,327,312,-15776,-728,4564,50,-249,-114
8785.213,290,308,327,312,-15776,-728,4564,50,-249,-114
8791.487,289,308,326,312,-15776,-728,4564,50,-249,-114
8799.161,289,309,326,313,-15776,-728,4564,50,-249,-114
8802.947,289,308,326,314,-15776,-728,4564,50,-249,-114
8808.216,289,308,326,314,-15776,-728,4564,50,-249,-114
8816.294,287,308,325,314,-15900,-1404,4596,5,-245,209
8819.078,288,309,325,314,-15900,-1404,4596,5,-245,209
8830.125,287,308,325,315,-15900,-1404,4596,5,-245,209
8830.125,286,307,324,315,-15900,-1404,4596,5,-245,209
8841.939999999999,286,307,323,315,-15900,-1404,4596,5,-245,209
8841.939999999999,287,308,322,315,-15900,-1404,4596,5,-245,209
8852.746,286,308,323,316,-15900,-1404,4596,5,-245,209
8855.692,286,308,322,316,-15760,-1260,4548,609,-238,185
8855.692,287,309,322,317,-15760,-1260,4548,609,-238,185
8863.619999999999,286,309,321,317,-15760,-1260,4548,609,-238,185
8875.301,286,308,321,317,-15760,-1260,4548,609,-238,185
8883.390000000001,286,308,321,318,-15760,-1260,4548,609,-238,185
8886.586,286,308,321,317,-15760,-1260,4548,609,-238,185
8895.237,286,308,322,319,-15760,-1260,4548,609,-238,185
8899.443,285,308,321,318,-15668,-1188,5020,182,-153,68
8901.024,283,309,320,318,-15668,-1188,5020,182,-153,68
8908.372,283,309,320,319,-15668,-1188,5020,182,-153,68
8918.97,281,309,321,319,-15668,-1188,5020,182,-153,68
8921.983,280,310,321,319,-15668,-1188,5020,182,-153,68
8921.983,278,310,320,320,-15668,-1188,5020,182,-153,68
8931.36,278,310,319,320,-15668,-1188,5020,182,-153,68
8941.376999999999,277,310,318,319,-15776,-1064,4512,255,-397,-6
8949.452000000001,276,310,316,319,-15776,-1064,4512,255,-397,-6
8953.039999999999,276,310,315,320,-15776,-1064,4512,255,-397,-6
8961.528,276,311,316,321,-15776,-1064,4512,255,-397,-6
8964.914999999999,276,311,316,322,-15776,-1064,4512,255,-397,-6
8973.323,276,310,316,322,-15776,-1064,4512,255,-397,-6
8977.779,276,310,316,322,-15776,-1064,4512,255,-397,-6
8977.779,277,309,315,321,-15888,-1160,4744,-75,-554,146
8984.934000000001,277,308,316,322,-15888,-1160,4744,-75,-554,146
8991.469000000001,277,308,316,323,-15888,-1160,4744,-75,-554,146
8999.532000000001,279,307,315,323,-15888,-1160,4744,-75,-554,146
9003.817,278,305,315,323,-15888,-1160,4744,-75,-554,146
9008.523000000001,279,305,315,324,-15888,-1160,4744,-75,-554,146
9016.537,280,305,314,323,-15840,-968,4864,23,-482,196
9019.413,282,305,315,324,-15840,-968,4864,23,-482,196
9030.249,281,304,316,325,-15840,-968,4864,23,-482,196
9030.249,283,303,316,325,-15840,-968,4864,23,-482,196
9041.642,282,303,315,324,-15840,-968,4864,23,-482,196
9044.698,283,304,316,325,-15840,-968,4864,23,-482,196
9052.759,284,304,316,325,-15840,-968,4864,23,-482,196
9056.532000000001,285,303,316,326,-15752,-1000,5168,362,-221,196
9063.188,285,302,315,324,-15752,-1000,5168,362,-221,196
9069.736,287,303,315,327,-15752,-1000,5168,362,-221,196
9074.726,289,302,316,327,-15752,-1000,5168,362,-221,196
9084.352,289,302,314,326,-15752,-1000,5168,362,-221,196
9087.566,289,302,314,328,-15752,-1000,5168,362,-221,196
9090.103,290,301,315,328,-15752,-1000,5168,362,-221,196
9099.847,291,301,314,328,-15668,-844,5196,246,56,26
9107.860999999999,292,299,313,328,-15668,-844,5196,246,56,26
9109.402,292,299,313,328,-15668,-844,5196,246,56,26
9114.689,293,299,313,328,-15668,-844,5196,246,56,26
9119.418,294,299,313,328,-15668,-844,5196,246,56,26
9127.565,294,299,313,328,-15668,-844,5196,246,56,26
9130.234,295,299,314,329,-15668,-844,5196,246,56,26
9141.664999999999,296,299,314,329,-15812,-960,4896,102,117,40
9141.664999999999,297,298,314,329,-15812,-960,4896,102,117,40
9148.021,298,298,314,329,-15812,-960,4896,102,117,40
9152.744999999999,298,298,315,330,-15812,-960,4896,102,117,40
9159.860999999999,298,298,315,329,-15812,-960,4896,102,117,40
9164.396,298,299,315,329,-15812,-960,4896,102,117,40
9171.987,298,298,315,329,-15812,-960,4896,102,117,40
9174.981000000002,299,297,314,329,-15820,-896,4796,-190,58,29
9185.455,299,298,315,329,-15820,-896,4796,-190,58,29
9188.042,299,298,314,329,-15820,-896,4796,-190,58,29
9188.042,299,299,314,329,-15820,-896,4796,-190,58,29
9199.956,299,299,313,328,-15820,-896,4796,-190,58,29
9205.076000000001,299,299,314,328,-15820,-896,4796,-190,58,29
9208.176,299,300,314,329,-15820,-896,4796,-190,58,29
9218.989000000001,298,300,314,329,-15800,-1168,4796,-328,-41,113
9227.114,299,300,313,329,-15800,-1168,4796,-328,-41,113
9230.102,299,299,313,329,-15800,-1168,4796,-328,-41,113
9239.369,299,300,313,329,-15800,-1168,4796,-328,-41,113
9241.626999999999,300,300,313,329,-15800,-1168,4796,-328,-41,113
9245.305999999999,300,301,313,330,-15800,-1168,4796,-328,-41,113
9252.496000000001,300,300,312,329,-15800,-1168,4796,-328,-41,113
9258.101,300,300,311,328,-15872,-1012,4652,78,-66,-10
9263.115000000002,301,301,312,329,-15872,-1012,4652,78,-66,-10
9269.788,301,301,313,330,-15872,-1012,4652,78,-66,-10
9274.984,301,300,313,329,-15872,-1012,4652,78,-66,-10
9281.965,300,300,312,329,-15872,-1012,4652,78,-66,-10
9285.968,300,300,313,329,-15872,-1012,4652,78,-66,-10
9296.973,300,299,312,328,-15872,-1012,4652,78,-66,-10
9299.989,299,299,310,328,-15672,-896,4948,-149,-74,79
9308.761,300,302,312,329,-15672,-896,4948,-149,-74,79
9308.761,299,302,312,330,-15672,-896,4948,-149,-74,79
9316.251,299,302,312,330,-15672,-896,4948,-149,-74,79
9319.082,298,302,312,329,-15672,-896,4948,-149,-74,79
9330.25,298,303,311,329,-15672,-896,4948,-149,-74,79
9338.302,297,304,311,329,-15672,-896,4948,-149,-74,79
9341.735999999999,297,304,311,329,-15696,-928,5092,69,11,33
9343.577,297,303,310,329,-15696,-928,5092,69,11,33
9352.591999999999,296,303,309,329,-15696,-928,5092,69,11,33
9355.610999999999,297,304,310,328,-15696,-928,5092,69,11,33
9355.610999999999,297,303,310,327,-15696,-928,5092,69,11,33
9369.893,297,303,311,328,-15696,-928,5092,69,11,33
9374.786,297,302,311,328,-15696,-928,5092,69,11,33
9374.786,296,302,309,328,-15796,-968,4832,196,-77,-7
9385.945,295,303,311,328,-15796,-968,4832,196,-77,-7
9388.804,296,303,311,328,-15796,-968,4832,196,-77,-7
9388.804,296,302,311,328,-15796,-968,4832,196,-77,-7
9400.087,296,301,311,328,-15796,-968,4832,196,-77,-7
9407.994999999999,297,302,311,329,-15796,-968,4832,196,-77,-7
9407.994999999999,296,301,310,328,-15796,-968,4832,196,-77,-7
9418.751,298,301,309,328,-15796,-968,4832,196,-77,-7
9421.776,298,302,309,327,-15724,-788,4900,588,-49,2
9431.457999999999,298,302,311,328,-15724,-788,4900,588,-49,2
9431.457999999999,298,303,311,329,-15724,-788,4900,588,-49,2
9438.274,299,303,309,327,-15724,-788,4900,588,-49,2
9441.271,299,303,309,327,-15724,-788,4900,588,-49,2
9452.188,299,302,310,327,-15724,-788,4900,588,-49,2
9452.188,299,302,310,327,-15724,-788,4900,588,-49,2
9463.474,300,303,311,327,-15788,-1260,4408,23,-241,121
9466.011,300,303,312,328,-15788,-1260,4408,23,-241,121
9475.51,300,302,312,327,-15788,-1260,4408,23,-241,121
9478.583999999999,301,301,313,327,-15788,-1260,4408,23,-241,121
9485.735,301,300,313,326,-15788,-1260,4408,23,-241,121
9485.735,302,301,315,328,-15788,-1260,4408,23,-241,121
9497.471000000001,302,301,314,328,-15788,-1260,4408,23,-241,121
9499.984,302,301,314,328,-15804,-880,5036,-75,-234,310
9508.715,300,300,315,329,-15804,-880,5036,-75,-234,310
9517.434,299,300,315,328,-15804,-880,5036,-75,-234,310
9519.641,299,301,314,327,-15804,-880,5036,-75,-234,310
9530.483,299,302,314,326,-15804,-880,5036,-75,-234,310
9530.483,299,302,315,329,-15804,-880,5036,-75,-234,310
9537.006,299,302,314,328,-15588,-792,4992,119,-192,128
9541.404,299,303,313,327,-15588,-792,4992,119,-192,128
9548.906,299,303,314,328,-15588,-792,4992,119,-192,128
9552.783,299,303,314,328,-15588,-792,4992,119,-192,128
9563.294000000002,299,303,315,327,-15588,-792,4992,119,-192,128
9571.729,298,303,313,326,-15588,-792,4992,119,-192,128
9574.626,299,303,315,328,-15588,-792,4992,119,-192,128
9576.599999999999,300,303,316,328,-15732,-880,4896,201,-60,8
9586.07,299,303,316,329,-15732,-880,4896,201,-60,8
9586.07,300,304,316,329,-15732,-880,4896,201,-60,8
9596.101,298,304,315,328,-15732,-880,4896,201,-60,8
9601.443,297,305,315,328,-15732,-880,4896,201,-60,8
9608.249,296,304,313,328,-15732,-880,4896,201,-60,8
9608.249,297,304,314,328,-15732,-880,4896,201,-60,8
9617.168,297,305,315,329,-15700,-920,5100,146,-45,-82
9621.665,299,306,314,328,-15700,-920,5100,146,-45,-82
9630.298,299,306,315,328,-15700,-920,5100,146,-45,-82
9634.291,298,304,312,327,-15700,-920,5100,146,-45,-82
9641.012999999999,299,305,312,327,-15700,-920,5100,146,-45,-82
9642.734,300,305,312,327,-15700,-920,5100,146,-45,-82
9652.891,299,304,311,326,-15700,-920,5100,146,-45,-82
9661.599,300,305,311,325,-15828,-1372,4376,-572,-370,106
9663.836,301,305,313,326,-15828,-1372,4376,-572,-370,106
9672.636,300,305,313,327,-15828,-1372,4376,-572,-370,106
9674.484,301,305,312,326,-15828,-1372,4376,-572,-370,106
9685.22,300,305,313,326,-15828,-1372,4376,-572,-370,106
9685.22,300,305,313,326,-15828,-1372,4376,-572,-370,106
9697.09,300,305,313,325,-15828,-1372,4376,-572,-370,106
9699.752,300,305,313,325,-15672,-636,5288,184,-290,173
9709.11,301,305,313,326,-15672,-636,5288,184,-290,173
9709.11,301,306,312,325,-15672,-636,5288,184,-290,173
9719.637999999999,300,306,312,325,-15672,-636,5288,184,-290,173
9725.15,300,307,311,324,-15672,-636,5288,184,-290,173
9729.967999999999,301,307,312,325,-15672,-636,5288,184,-290,173
9739.903999999999,300,306,310,324,-15672,-636,5288,184,-290,173
9742.654,300,307,309,324,-15756,-744,5140,-8,-209,35
9750.777,301,307,309,325,-15756,-744,5140,-8,-209,35
9753.309,301,307,309,324,-15756,-744,5140,-8,-209,35
9758.196999999998,300,307,308,323,-15756,-744,5140,-8,-209,35
9762.974,300,308,309,324,-15756,-744,5140,-8,-209,35
9769.437999999998,300,307,310,325,-15756,-744,5140,-8,-209,35
9774.744999999999,300,308,309,324,-15756,-744,5140,-8,-209,35
9784.057,300,307,310,324,-15652,-864,5124,-75,-212,79
9786.146,301,306,311,325,-15652,-864,5124,-75,-212,79
9795.112,300,306,312,325,-15652,-864,5124,-75,-212,79
9799.616,300,304,312,324,-15652,-864,5124,-75,-212,79
9807.787,299,304,313,324,-15652,-864,5124,-75,-212,79
9807.787,298,305,314,324,-15652,-864,5124,-75,-212,79
9815.36,298,305,313,323,-15652,-864,5124,-75,-212,79
9819.056,298,306,314,323,-15656,-1132,5252,-293,-167,101
9827.41,298,305,314,322,-15656,-1132,5252,-293,-167,101
9830.304,300,306,314,323,-15656,-1132,5252,-293,-167,101
9841.257000000001,298,305,313,321,-15656,-1132,5252,-293,-167,101
9846.749000000002,299,306,314,323,-15656,-1132,5252,-293,-167,101
9852.346000000001,299,306,316,324,-15656,-1132,5252,-293,-167,101
9855.6,299,306,315,323,-15748,-840,4876,-262,-329,214
9864.592,299,304,314,322,-15748,-840,4876,-262,-329,214
9872.989,299,304,315,323,-15748,-840,4876,-262,-329,214
9875.598,301,304,316,323,-15748,-840,4876,-262,-329,214
9885.534,301,304,316,322,-15748,-840,4876,-262,-329,214
9885.534,302,303,316,323,-15748,-840,4876,-262,-329,214
9897.432,301,303,316,322,-15748,-840,4876,-262,-329,214
9899.948,302,304,314,322,-15740,-856,5276,57,-167,36
9905.210000000001,302,302,315,321,-15740,-856,5276,57,-167,36
9908.158,303,301,314,321,-15740,-856,5276,57,-167,36
9919.678,304,303,313,321,-15740,-856,5276,57,-167,36
9919.678,304,304,312,321,-15740,-856,5276,57,-167,36
9930.526,305,303,312,321,-15740,-856,5276,57,-167,36
9933.538,304,304,311,321,-15740,-856,5276,57,-167,36
9941.234,304,305,310,320,-15728,-852,4916,-266,-164,96
9945.520999999999,304,304,311,321,-15728,-852,4916,-266,-164,96
9952.93,304,304,311,320,-15728,-852,4916,-266,-164,96
9957.651,305,305,312,321,-15728,-852,4916,-266,-164,96
9963.431,305,304,312,321,-15728,-852,4916,-266,-164,96
9973.020999999999,305,304,312,321,-15728,-852,4916,-266,-164,96
9974.993,304,304,312,321,-15728,-852,4916,-266,-164,96
9978.947,304,304,310,319,-15756,-932,5388,-398,-89,156
9986.333,304,305,312,320,-15756,-932,5388,-398,-89,156
9996.528,304,304,311,319,-15756,-932,5388,-398,-89,156
9999.931999999999,304,304,311,319,-15756,-932,5388,-398,-89,156
10008.873,304,304,310,319,-15756,-932,5388,-398,-89,156
10008.873,304,303,310,319,-15756,-932,5388,-398,-89,156
10015.712000000001,304,303,311,319,-15756,-932,5388,-398,-89,156
10019.505000000001,303,303,310,318,-15704,-632,5088,-330,-130,92
10030.186,303,304,312,320,-15704,-632,5088,-330,-130,92
10038.63,303,303,312,319,-15704,-632,5088,-330,-130,92
10041.478,303,302,311,318,-15704,-632,5088,-330,-130,92
10043.853000000001,303,302,312,319,-15704,-632,5088,-330,-130,92
10053.302,304,303,313,320,-15704,-632,5088,-330,-130,92
10053.302,304,302,312,320,-15704,-632,5088,-330,-130,92
10063.578,304,303,312,319,-15628,-620,5120,66,-72,-58
10063.578,304,302,312,320,-15628,-620,5120,66,-72,-58
10075.077000000001,305,304,313,320,-15628,-620,5120,66,-72,-58
10081.991,304,304,311,319,-15628,-620,5120,66,-72,-58
10086.321999999998,305,304,311,319,-15628,-620,5120,66,-72,-58
10089.494,305,304,312,319,-15628,-620,5120,66,-72,-58
10099.861,305,305,312,320,-15628,-620,5120,66,-72,-58
10099.861,305,304,312,320,-15700,-672,4920,248,-46,-51
10111.779999999999,305,305,312,320,-15700,-672,4920,248,-46,-51
10117.2,305,305,312,320,-15700,-672,4920,248,-46,-51
10119.279,305,305,311,320,-15700,-672,4920,248,-46,-51
10128.189,305,305,312,320,-15700,-672,4920,248,-46,-51
10129.759,305,305,312,320,-15700,-672,4920,248,-46,-51
10138.197999999999,305,307,311,320,-15700,-672,4920,248,-46,-51
10141.276,305,307,311,320,-15600,-700,5136,39,-4,-97
10152.414999999999,304,307,310,321,-15600,-700,5136,39,-4,-97
10155.049,303,307,309,321,-15600,-700,5136,39,-4,-97
10155.049,303,307,309,320,-15600,-700,5136,39,-4,-97
10164.881,303,307,310,321,-15600,-700,5136,39,-4,-97
10171.314,304,307,310,321,-15600,-700,5136,39,-4,-97
10174.761,303,307,310,321,-15600,-700,5136,39,-4,-97
10186.156,304,306,309,319,-15704,-1028,5172,-8,-75,31
10186.156,303,306,310,320,-15704,-1028,5172,-8,-75,31
10195.048999999999,303,308,311,321,-15704,-1028,5172,-8,-75,31
10200.169,304,308,310,321,-15704,-1028,5172,-8,-75,31
10200.169,303,308,309,320,-15704,-1028,5172,-8,-75,31
10208.739,303,307,309,320,-15704,-1028,5172,-8,-75,31
10216.564,303,306,309,320,-15704,-1028,5172,-8,-75,31
10219.324999999999,304,306,310,321,-15656,-916,5216,-2,41,151
10229.551000000001,304,306,311,322,-15656,-916,5216,-2,41,151
10232.071,303,306,311,320,-15656,-916,5216,-2,41,151
10240.091,303,306,312,321,-15656,-916,5216,-2,41,151
10242.421999999999,303,306,311,321,-15656,-916,5216,-2,41,151
10250.67,304,305,311,321,-15656,-916,5216,-2,41,151
10252.564,304,305,311,321,-15656,-916,5216,-2,41,151
10263.673999999999,304,303,312,320,-15728,-620,5300,84,7,66
10265.012999999999,304,303,311,320,-15728,-620,5300,84,7,66
10265.012999999999,305,304,312,321,-15728,-620,5300,84,7,66
10275.659,306,304,312,320,-15728,-620,5300,84,7,66
10282.178,306,304,312,320,-15728,-620,5300,84,7,66
10285.932,306,304,313,320,-15728,-620,5300,84,7,66
10290.514,306,304,313,321,-15728,-620,5300,84,7,66
10300.243999999999,307,304,312,320,-15728,-620,5300,84,7,66
10304.361,307,304,312,320,-15740,-724,5096,161,20,4
10308.805,307,303,313,321,-15740,-724,5096,161,20,4
10317.289,308,300,312,320,-15740,-724,5096,161,20,4
10320.464,307,298,312,318,-15740,-724,5096,161,20,4
10325.694,308,300,313,319,-15740,-724,5096,161,20,4
10330.276,308,301,314,321,-15740,-724,5096,161,20,4
10335.142,308,301,312,319,-15740,-724,5096,161,20,4
10341.034,309,302,313,320,-15656,-888,5060,-183,-92,35
10341.034,309,300,313,320,-15656,-888,5060,-183,-92,35
10352.684,308,300,313,320,-15656,-888,5060,-183,-92,35
10352.684,309,302,312,319,-15656,-888,5060,-183,-92,35
10363.568000000001,309,304,312,318,-15656,-888,5060,-183,-92,35
10363.568000000001,308,304,312,320,-15656,-888,5060,-183,-92,35
10373.725,308,304,312,320,-15656,-888,5060,-183,-92,35
10379.939999999999,308,305,312,320,-15680,-948,5092,-162,-327,33
10385.412,307,304,311,320,-15680,-948,5092,-162,-327,33
10392.084,308,304,312,320,-15680,-948,5092,-162,-327,33
10397.031,308,304,312,320,-15680,-948,5092,-162,-327,33
10406.234,307,304,312,320,-15680,-948,5092,-162,-327,33
10408.41,307,305,313,321,-15680,-948,5092,-162,-327,33
10418.462,306,304,310,318,-15680,-948,5092,-162,-327,33
10418.462,306,304,310,319,-15628,-832,5044,-80,-400,30
10430.887,306,304,310,320,-15628,-832,5044,-80,-400,30
10430.887,307,305,310,321,-15628,-832,5044,-80,-400,30
10438.663999999999,306,307,309,320,-15628,-832,5044,-80,-400,30
10441.578,306,307,310,320,-15628,-832,5044,-80,-400,30
10452.512999999999,304,306,309,319,-15628,-832,5044,-80,-400,30
10452.512999999999,305,305,309,319,-15628,-832,5044,-80,-400,30
10461.528,304,306,309,320,-15708,-1020,4972,-492,-505,35
10473.359999999999,304,304,310,320,-15708,-1020,4972,-492,-505,35
10475.228,305,304,310,320,-15708,-1020,4972,-492,-505,35
10483.863,305,305,310,319,-15708,-1020,4972,-492,-505,35
10486.292000000001,305,306,311,319,-15708,-1020,4972,-492,-505,35
10491.893,304,306,312,319,-15708,-1020,4972,-492,-505,35
10500.705,304,307,311,319,-15708,-1020,4972,-492,-505,35
10502.655,304,307,311,318,-15552,-748,5560,28,-285,133
10508.101999999999,303,306,311,319,-15552,-748,5560,28,-285,133
10515.933,304,306,310,318,-15552,-748,5560,28,-285,133
10519.033,304,306,310,318,-15552,-748,5560,28,-285,133
10530.127999999999,304,306,310,318,-15552,-748,5560,28,-285,133
10530.127999999999,302,306,309,317,-15552,-748,5560,28,-285,133
10542.028999999999,303,308,310,318,-15552,-748,5560,28,-285,133
10542.028999999999,303,308,310,317,-15576,-676,5276,140,-130,-155
10552.67,303,309,310,318,-15576,-676,5276,140,-130,-155
10556.252,303,307,310,318,-15576,-676,5276,140,-130,-155
10564.557999999999,303,307,309,317,-15576,-676,5276,140,-130,-155
10564.557999999999,303,309,310,318,-15576,-676,5276,140,-130,-155
10574.555,304,307,309,317,-15576,-676,5276,140,-130,-155
10581.082999999999,303,308,310,318,-15700,-944,5248,-176,-212,52
10585.901,303,307,312,318,-15700,-944,5248,-176,-212,52
10589.427,303,307,312,319,-15700,-944,5248,-176,-212,52
10597.324999999999,304,306,311,317,-15700,-944,5248,-176,-212,52
10606.310000000001,305,307,311,318,-15700,-944,5248,-176,-212,52
10608.475,305,306,311,318,-15700,-944,5248,-176,-212,52
10619.386,304,306,310,317,-15700,-944,5248,-176,-212,52
10619.386,303,303,310,316,-15648,-956,5248,21,-150,138
10632.215,304,304,311,317,-15648,-956,5248,21,-150,138
10633.962,304,304,310,317,-15648,-956,5248,21,-150,138
10633.962,304,305,309,316,-15648,-956,5248,21,-150,138
10642.633,304,305,310,316,-15648,-956,5248,21,-150,138
10652.452000000001,305,305,311,317,-15648,-956,5248,21,-150,138
10652.452000000001,305,305,310,317,-15648,-956,5248,21,-150,138
10663.442,304,305,309,315,-15692,-1100,5400,-382,-221,186
10672.582,304,305,311,317,-15692,-1100,5400,-382,-221,186
10674.886,304,307,311,317,-15692,-1100,5400,-382,-221,186
10680.011,304,306,311,317,-15692,-1100,5400,-382,-221,186
10685.792,305,305,312,317,-15692,-1100,5400,-382,-221,186
10694.979,305,304,313,317,-15692,-1100,5400,-382,-221,186
10701.026,305,304,313,316,-15692,-1100,5400,-382,-221,186
10704.035,304,305,313,317,-15560,-552,5328,340,-108,188
10708.198,304,303,314,318,-15560,-552,5328,340,-108,188
10719.003,303,304,313,317,-15560,-552,5328,340,-108,188
10719.048,304,303,313,317,-15560,-552,5328,340,-108,188
10731.006000000001,303,302,313,317,-15560,-552,5328,340,-108,188
10739.08,305,303,312,316,-15560,-552,5328,340,-108,188
10741.583999999999,305,304,312,316,-15528,-152,5628,452,-61,1
10741.583999999999,303,304,312,317,-15528,-152,5628,452,-61,1
10752.421999999999,304,305,311,316,-15528,-152,5628,452,-61,1
10758.065999999999,304,306,311,317,-15528,-152,5628,452,-61,1
10763.591,305,306,311,317,-15528,-152,5628,452,-61,1
10765.269999999999,305,306,311,317,-15528,-152,5628,452,-61,1
10774.438999999998,306,305,311,316,-15528,-152,5628,452,-61,1
10774.438999999998,305,305,310,316,-15528,-152,5628,452,-61,1
10786.279999999999,306,305,310,316,-15696,-976,4900,-124,-209,48
10786.279999999999,306,304,311,318,-15696,-976,4900,-124,-209,48
10796.972,305,305,310,317,-15696,-976,4900,-124,-209,48
10800.999,305,306,310,316,-15696,-976,4900,-124,-209,48
10807.08,306,307,311,318,-15696,-976,4900,-124,-209,48
10814.178,306,306,310,316,-15696,-976,4900,-124,-209,48
10819.095000000001,306,305,309,316,-15696,-976,4900,-124,-209,48
10822.392,305,307,310,317,-15604,-852,5396,63,-175,34
10830.578,305,306,310,317,-15604,-852,5396,63,-175,34
10839.686,305,305,309,316,-15604,-852,5396,63,-175,34
10841.735,306,306,308,316,-15604,-852,5396,63,-175,34
10847.654999999999,306,305,307,315,-15604,-852,5396,63,-175,34
10852.426,306,307,307,315,-15604,-852,5396,63,-175,34
10860.312,306,306,306,315,-15604,-852,5396,63,-175,34
10863.748,306,307,306,314,-15584,-568,5576,173,-141,-68
10871.824999999999,306,307,306,316,-15584,-568,5576,173,-141,-68
10874.813,306,308,306,315,-15584,-568,5576,173,-141,-68
10886.556,306,308,306,315,-15584,-568,5576,173,-141,-68
10886.556,306,308,306,316,-15584,-568,5576,173,-141,-68
10897.767,306,307,305,314,-15584,-568,5576,173,-141,-68
10901.282,306,306,305,315,-15680,-888,5028,-29,-249,45
10908.177,307,306,305,314,-15680,-888,5028,-29,-249,45
10913.128,306,306,306,315,-15680,-888,5028,-29,-249,45
10919.0,306,307,307,315,-15680,-888,5028,-29,-249,45
10920.831,305,305,307,315,-15680,-888,5028,-29,-249,45
10931.035,305,304,307,315,-15680,-888,5028,-29,-249,45
10939.85,305,305,307,315,-15680,-888,5028,-29,-249,45
10941.891,305,305,307,315,-15636,-816,5820,-109,-205,121
10950.381,305,305,307,315,-15636,-816,5820,-109,-205,121
10952.308,306,306,307,315,-15636,-816,5820,-109,-205,121
10957.908,306,306,307,315,-15636,-816,5820,-109,-205,121
10963.247000000001,306,307,306,316,-15636,-816,5820,-109,-205,121
10970.496000000001,306,307,306,316,-15636,-816,5820,-109,-205,121
10975.398000000001,306,307,304,313,-15636,-816,5820,-109,-205,121
10981.971,307,307,305,314,-15576,-612,5256,186,-270,31
10985.693,307,307,306,316,-15576,-612,5256,186,-270,31
10996.944,309,308,306,315,-15576,-612,5256,186,-270,31
11001.46,308,306,305,313,-15576,-612,5256,186,-270,31
11009.485,308,306,307,315,-15576,-612,5256,186,-270,31
11009.485,307,303,306,315,-15576,-612,5256,186,-270,31
11020.163,306,303,306,313,-15576,-612,5256,186,-270,31
11024.706,308,304,308,315,-15552,-696,5544,-42,-351,56
11029.959,309,305,309,316,-15552,-696,5544,-42,-351,56
11034.94,309,306,309,315,-15552,-696,5544,-42,-351,56
11040.962,310,304,308,315,-15552,-696,5544,-42,-351,56
11040.962,309,304,308,316,-15552,-696,5544,-42,-351,56
11052.804,309,303,308,315,-15552,-696,5544,-42,-351,56
11056.067000000001,309,304,307,314,-15552,-696,5544,-42,-351,56
11063.986,310,305,307,315,-15476,-500,6084,158,-121,135
11063.986,310,304,306,315,-15476,-500,6084,158,-121,135
11074.476,311,305,305,313,-15476,-500,6084,158,-121,135
11080.771,312,305,306,314,-15476,-500,6084,158,-121,135
11085.651,311,305,307,315,-15476,-500,6084,158,-121,135
11092.712000000001,311,306,306,316,-15476,-500,6084,158,-121,135
11102.892,311,306,306,315,-15476,-500,6084,158,-121,135
11108.041,311,305,307,314,-15640,-912,5180,-135,-336,173
11108.964,311,303,307,314,-15640,-912,5180,-135,-336,173
11118.76,310,303,307,314,-15640,-912,5180,-135,-336,173
11118.76,311,304,309,314,-15640,-912,5180,-135,-336,173
11130.475,311,304,311,315,-15640,-912,5180,-135,-336,173
11130.475,311,304,311,315,-15640,-912,5180,-135,-336,173
11144.409,311,305,311,314,-15600,-776,5448,-188,-314,362
11147.259999999998,311,304,312,314,-15600,-776,5448,-188,-314,362
11152.989,310,304,312,314,-15600,-776,5448,-188,-314,362
11161.735999999999,312,305,312,314,-15600,-776,5448,-188,-314,362
11163.201000000001,312,305,313,314,-15600,-776,5448,-188,-314,362
11170.369,312,304,312,315,-15600,-776,5448,-188,-314,362
11174.774,310,304,311,314,-15600,-776,5448,-188,-314,362
11185.44,310,304,310,312,-15476,-536,5696,304,-371,204
11193.847,311,304,311,314,-15476,-536,5696,304,-371,204
11196.929,311,304,311,314,-15476,-536,5696,304,-371,204
11202.457,310,304,310,314,-15476,-536,5696,304,-371,204
11207.758,313,306,311,315,-15476,-536,5696,304,-371,204
11211.345,312,306,311,314,-15476,-536,5696,304,-371,204
11220.675,311,305,311,313,-15476,-536,5696,304,-371,204
11220.675,310,306,311,314,-15516,-412,5644,84,-242,74
11230.366,311,306,311,313,-15516,-412,5644,84,-242,74
11236.992,311,305,311,313,-15516,-412,5644,84,-242,74
11241.654999999999,311,305,311,313,-15516,-412,5644,84,-242,74
11244.125,312,306,311,314,-15516,-412,5644,84,-242,74
11253.269,311,306,311,314,-15516,-412,5644,84,-242,74
11253.269,311,306,310,313,-15516,-412,5644,84,-242,74
11263.546,310,306,308,310,-15504,-588,5824,-114,-210,55
11269.49,309,307,309,312,-15504,-588,5824,-114,-210,55
11274.286,310,308,309,313,-15504,-588,5824,-114,-210,55
11280.919000000002,309,308,309,313,-15504,-588,5824,-114,-210,55
11286.272,310,308,309,314,-15504,-588,5824,-114,-210,55
11293.916,310,308,309,314,-15504,-588,5824,-114,-210,55
11303.75,309,308,308,313,-15504,-588,5824,-114,-210,55
11307.892,308,309,308,312,-15444,-328,5940,7,-97,-61
11309.87,307,307,308,313,-15444,-328,5940,7,-97,-61
11319.462,306,306,307,312,-15444,-328,5940,7,-97,-61
11319.462,306,306,308,312,-15444,-328,5940,7,-97,-61
11326.28,307,306,308,313,-15444,-328,5940,7,-97,-61
11330.814999999999,308,307,308,313,-15444,-328,5940,7,-97,-61
11341.226,307,305,307,312,-15444,-328,5940,7,-97,-61
11341.226,307,307,308,312,-15540,-708,5528,66,18,-34
11352.447,307,307,307,312,-15540,-708,5528,66,18,-34
11352.447,306,306,306,311,-15540,-708,5528,66,18,-34
11359.159,306,307,307,312,-15540,-708,5528,66,18,-34
11363.882,306,307,308,312,-15540,-708,5528,66,18,-34
11371.488,307,307,308,312,-15540,-708,5528,66,18,-34
11374.591,307,307,306,310,-15540,-708,5528,66,18,-34
11385.884,306,307,307,311,-15528,-452,5528,79,-42,-83
11385.884,307,307,308,312,-15528,-452,5528,79,-42,-83
11392.139000000001,307,308,308,312,-15528,-452,5528,79,-42,-83
11397.072,306,306,307,311,-15528,-452,5528,79,-42,-83
11403.926,307,306,307,310,-15528,-452,5528,79,-42,-83
11408.238000000001,307,305,307,311,-15528,-452,5528,79,-42,-83
11418.977,307,304,307,310,-15528,-452,5528,79,-42,-83
11418.977,308,305,306,311,-15524,-676,5432,-167,-93,2
11429.976999999999,308,306,307,311,-15524,-676,5432,-167,-93,2
11429.976999999999,307,306,306,311,-15524,-676,5432,-167,-93,2
11441.191,308,307,306,310,-15524,-676,5432,-167,-93,2
11445.027,308,308,307,311,-15524,-676,5432,-167,-93,2
11445.027,308,308,307,312,-15524,-676,5432,-167,-93,2
11453.774,307,307,307,311,-15524,-676,5432,-167,-93,2
11463.559,307,307,307,311,-15524,-676,5432,-167,-93,2
11463.559,307,307,308,311,-15600,-596,5608,92,-48,41
11474.713,306,308,308,311,-15600,-596,5608,92,-48,41
11474.713,306,308,307,309,-15600,-596,5608,92,-48,41
11481.622,306,309,307,309,-15600,-596,5608,92,-48,41
11486.304,306,308,307,310,-15600,-596,5608,92,-48,41
11496.909,306,308,307,310,-15600,-596,5608,92,-48,41
11496.909,305,308,306,310,-15600,-596,5608,92,-48,41
11508.044,306,307,306,310,-15460,-584,5928,41,63,-142
11508.044,304,307,306,311,-15460,-584,5928,41,63,-142
11519.640000000001,303,307,305,309,-15460,-584,5928,41,63,-142
11519.640000000001,304,307,304,308,-15460,-584,5928,41,63,-142
11528.320000000002,304,307,305,309,-15460,-584,5928,41,63,-142
11537.542,305,307,305,308,-15460,-584,5928,41,63,-142
11539.377999999999,304,307,304,308,-15460,-584,5928,41,63,-142
11545.99,304,307,304,307,-15520,-660,5620,807,206,-297
11553.785,305,307,306,309,-15520,-660,5620,807,206,-297
11556.846,305,307,306,309,-15520,-660,5620,807,206,-297
11563.639000000001,304,307,307,307,-15520,-660,5620,807,206,-297
11567.696,304,306,308,308,-15520,-660,5620,807,206,-297
11574.408,305,308,307,307,-15520,-660,5620,807,206,-297
11580.676000000001,304,308,308,308,-15520,-660,5620,807,206,-297
11585.809,306,306,309,309,-15452,-56,5652,1021,268,-489
11592.116,305,306,308,308,-15452,-56,5652,1021,268,-489
11597.723,305,307,307,307,-15452,-56,5652,1021,268,-489
11603.253,306,308,308,308,-15452,-56,5652,1021,268,-489
11608.37,306,309,308,308,-15452,-56,5652,1021,268,-489
11619.274000000001,307,309,308,308,-15452,-56,5652,1021,268,-489
11621.066,306,309,306,308,-15452,-56,5652,1021,268,-489
11630.876,308,309,305,308,-15628,-632,5488,250,175,-162
11630.876,308,309,304,308,-15628,-632,5488,250,175,-162
11641.37,308,311,304,308,-15628,-632,5488,250,175,-162
11641.37,308,310,304,309,-15628,-632,5488,250,175,-162
11652.428,309,310,305,309,-15628,-632,5488,250,175,-162
11656.091,309,310,303,308,-15628,-632,5488,250,175,-162
11664.362000000001,308,309,303,308,-15580,-1028,5500,-142,57,-65
11672.918,309,308,303,309,-15580,-1028,5500,-142,57,-65
11674.894999999999,308,308,303,309,-15580,-1028,5500,-142,57,-65
11683.730000000001,308,307,303,308,-15580,-1028,5500,-142,57,-65
11685.658,308,306,303,308,-15580,-1028,5500,-142,57,-65
11691.001999999999,307,305,303,309,-15580,-1028,5500,-142,57,-65
11696.614,307,306,304,309,-15580,-1028,5500,-142,57,-65
11703.830999999998,307,305,305,310,-15544,-564,5784,-371,-81,126
11708.438,306,305,305,310,-15544,-564,5784,-371,-81,126
11716.073,307,306,305,310,-15544,-564,5784,-371,-81,126
11719.166,306,304,305,309,-15544,-564,5784,-371,-81,126
11729.933,305,304,305,310,-15544,-564,5784,-371,-81,126
11738.306,305,304,306,310,-15544,-564,5784,-371,-81,126
11741.279,305,305,305,310,-15544,-564,5784,-371,-81,126
11743.629,305,304,305,310,-15460,-348,5736,78,-42,-27
11753.868,304,304,306,311,-15460,-348,5736,78,-42,-27
11753.868,305,303,305,311,-15460,-348,5736,78,-42,-27
11764.388,305,303,304,311,-15460,-348,5736,78,-42,-27
11768.342,304,303,303,309,-15460,-348,5736,78,-42,-27
11774.83,304,303,304,311,-15460,-348,5736,78,-42,-27
11774.83,304,304,305,311,-15460,-348,5736,78,-42,-27
11785.821,303,304,306,312,-15572,-500,5524,42,35,-75
11785.821,303,304,307,313,-15572,-500,5524,42,35,-75
11796.941,304,304,307,312,-15572,-500,5524,42,35,-75
11803.524,305,304,307,312,-15572,-500,5524,42,35,-75
11807.781,303,303,308,313,-15572,-500,5524,42,35,-75
11815.836,303,303,307,312,-15572,-500,5524,42,35,-75
11819.195,303,304,307,312,-15572,-500,5524,42,35,-75
11819.195,304,303,307,313,-15464,-320,5760,349,203,-161
11830.106,303,303,305,311,-15464,-320,5760,349,203,-161
11834.349,303,304,305,311,-15464,-320,5760,349,203,-161
11842.57,304,304,306,312,-15464,-320,5760,349,203,-161
11842.57,304,305,306,312,-15464,-320,5760,349,203,-161
11852.39,304,304,306,313,-15464,-320,5760,349,203,-161
11860.829000000002,304,305,305,313,-15464,-320,5760,349,203,-161
11865.153,304,305,305,313,-15628,-708,5392,77,16,-173
11873.706,304,306,305,313,-15628,-708,5392,77,16,-173
11877.845000000001,304,306,305,313,-15628,-708,5392,77,16,-173
11885.785,304,306,305,312,-15628,-708,5392,77,16,-173
11887.119,304,304,305,313,-15628,-708,5392,77,16,-173
11887.119,304,305,305,312,-15628,-708,5392,77,16,-173
11897.344000000001,303,304,304,311,-15628,-708,5392,77,16,-173
11904.114,304,305,306,312,-15572,-804,5352,81,-57,-23
11908.065,304,306,306,313,-15572,-804,5352,81,-57,-23
11916.881,304,306,304,312,-15572,-804,5352,81,-57,-23
11921.82,304,305,303,311,-15572,-804,5352,81,-57,-23
11929.805999999999,305,305,303,311,-15572,-804,5352,81,-57,-23
11929.805999999999,306,305,303,311,-15572,-804,5352,81,-57,-23
11936.173999999999,307,306,302,311,-15572,-804,5352,81,-57,-23
11941.609,305,305,301,310,-15448,-480,5640,261,-47,77
11948.702000000001,306,306,302,311,-15448,-480,5640,261,-47,77
11953.122000000001,306,306,302,312,-15448,-480,5640,261,-47,77
11963.582,306,305,302,311,-15448,-480,5640,261,-47,77
11963.582,305,304,302,311,-15448,-480,5640,261,-47,77
11974.227,307,305,301,310,-15448,-480,5640,261,-47,77
11974.227,307,306,302,310,-15448,-480,5640,261,-47,77
11981.823,307,306,303,311,-15448,-480,5640,261,-47,77
11986.507,307,306,303,312,-15436,-272,5528,317,167,-57
11996.758,306,305,303,309,-15436,-272,5528,317,167,-57
12004.83,306,305,303,310,-15436,-272,5528,317,167,-57
12008.189,306,304,303,310,-15436,-272,5528,317,167,-57
12008.189,306,304,303,310,-15436,-272,5528,317,167,-57
12019.507000000001,307,305,303,309,-15436,-272,5528,317,167,-57
12022.703,307,305,302,309,-15436,-272,5528,317,167,-57
12030.301,306,305,303,309,-15488,-428,5704,30,235,12
12034.973,306,305,303,309,-15488,-428,5704,30,235,12
12041.141,306,304,302,309,-15488,-428,5704,30,235,12
12042.963,306,304,302,308,-15488,-428,5704,30,235,12
12052.906,305,303,302,308,-15488,-428,5704,30,235,12
12052.906,306,303,303,308,-15488,-428,5704,30,235,12
12064.215,307,302,303,308,-15488,-428,5704,30,235,12
12064.215,306,302,304,309,-15580,-496,5040,-210,-101,44
12074.681999999999,306,303,305,309,-15580,-496,5040,-210,-101,44
12082.770999999999,306,303,306,309,-15580,-496,5040,-210,-101,44
12085.403,306,303,306,309,-15580,-496,5040,-210,-101,44
12087.773000000001,306,303,308,309,-15580,-496,5040,-210,-101,44
12097.758,307,304,308,309,-15580,-496,5040,-210,-101,44
12105.998,306,303,308,309,-15580,-496,5040,-210,-101,44
12108.029999999999,306,303,309,309,-15480,-340,5824,-236,-30,23
12118.581,306,304,309,309,-15480,-340,5824,-236,-30,23
12118.581,306,304,307,308,-15480,-340,5824,-236,-30,23
12125.697,306,304,307,308,-15480,-340,5824,-236,-30,23
12130.119,306,304,307,308,-15480,-340,5824,-236,-30,23
12137.556,306,305,306,308,-15480,-340,5824,-236,-30,23
12141.875,306,304,305,308,-15480,-340,5824,-236,-30,23
12149.556999999999,306,304,303,307,-15564,-456,5344,96,41,-122
12152.543,307,305,302,307,-15564,-456,5344,96,41,-122
12164.039,306,306,304,308,-15564,-456,5344,96,41,-122
12165.762,306,305,304,308,-15564,-456,5344,96,41,-122
12165.762,306,305,303,308,-15564,-456,5344,96,41,-122
12175.508,305,304,302,306,-15564,-456,5344,96,41,-122
12182.597,306,305,303,307,-15564,-456,5344,96,41,-122
12186.125,306,305,302,307,-15512,-748,5584,-23,70,5
12196.581,306,305,302,307,-15512,-748,5584,-23,70,5
12196.581,306,304,302,307,-15512,-748,5584,-23,70,5
12205.056,306,305,302,307,-15512,-748,5584,-23,70,5
12207.688,305,305,302,307,-15512,-748,5584,-23,70,5
12215.636,305,305,302,308,-15512,-748,5584,-23,70,5
12219.078,306,304,300,306,-15512,-748,5584,-23,70,5
12229.913,306,304,301,307,-15540,-124,5916,229,191,-77
12229.913,307,304,299,307,-15540,-124,5916,229,191,-77
12240.880000000001,307,304,299,306,-15540,-124,5916,229,191,-77
12243.415,307,305,300,307,-15540,-124,5916,229,191,-77
12243.415,307,305,299,307,-15540,-124,5916,229,191,-77
12253.064,307,304,298,306,-15540,-124,5916,229,191,-77
12260.72,307,305,297,305,-15540,-124,5916,229,191,-77
12263.712,308,305,296,305,-15580,-828,5448,-130,64,-34
12274.671,308,306,297,305,-15580,-828,5448,-130,64,-34
12274.671,308,306,296,305,-15580,-828,5448,-130,64,-34
12285.762,309,306,297,304,-15580,-828,5448,-130,64,-34
12288.226,309,306,297,305,-15580,-828,5448,-130,64,-34
12296.925,309,306,297,305,-15580,-828,5448,-130,64,-34
12300.49,310,306,299,305,-15580,-828,5448,-130,64,-34
12307.841,310,305,301,306,-15612,-928,4932,-124,-299,166
12313.644,310,305,302,306,-15612,-928,4932,-124,-299,166
12318.774,311,306,302,305,-15612,-928,4932,-124,-299,166
12321.368,311,305,303,305,-15612,-928,4932,-124,-299,166
12330.449,310,306,304,305,-15612,-928,4932,-124,-299,166
12339.626,310,305,304,304,-15612,-928,4932,-124,-299,166
12341.524,310,306,305,305,-15612,-928,4932,-124,-299,166
12346.785,309,305,306,305,-15672,-1000,4968,181,-565,446
12352.963000000002,310,305,307,306,-15672,-1000,4968,181,-565,446
12363.804,308,305,307,305,-15672,-1000,4968,181,-565,446
12366.642,308,305,308,306,-15672,-1000,4968,181,-565,446
12375.856,307,305,308,305,-15672,-1000,4968,181,-565,446
12375.856,306,305,310,304,-15672,-1000,4968,181,-565,446
12385.776,306,305,311,306,-15708,-1672,3868,468,-1167,1006
12394.859,305,305,312,308,-15708,-1672,3868,468,-1167,1006
12396.573,304,304,313,308,-15708,-1672,3868,468,-1167,1006
12406.42,303,305,314,308,-15708,-1672,3868,468,-1167,1006
12409.157000000001,302,305,315,309,-15708,-1672,3868,468,-1167,1006
12417.335,301,304,317,308,-15708,-1672,3868,468,-1167,1006
12419.404,299,304,319,308,-15708,-1672,3868,468,-1167,1006
12430.459,298,303,320,308,-15904,-2844,1656,128,-3468,2986
12439.37,298,302,322,307,-15904,-2844,1656,128,-3468,2986
12441.254,298,302,325,306,-15904,-2844,1656,128,-3468,2986
12448.541000000001,297,300,327,307,-15904,-2844,1656,128,-3468,2986
12453.349,296,301,330,306,-15904,-2844,1656,128,-3468,2986
12463.485,296,300,334,305,-15904,-2844,1656,128,-3468,2986
12463.485,295,298,337,304,-15772,-3296,1096,-615,-7039,5249
12475.149,290,296,341,302,-15772,-3296,1096,-615,-7039,5249
12484.157,280,293,345,299,-15772,-3296,1096,-615,-7039,5249
12486.217999999999,266,290,349,299,-15772,-3296,1096,-615,-7039,5249
12494.921,250,288,354,299,-15772,-3296,1096,-615,-7039,5249
12497.382,226,285,359,298,-15772,-3296,1096,-615,-7039,5249
12507.574,202,282,364,298,-14712,-3052,1644,-246,-10865,7242
12509.893999999998,174,279,367,299,-14712,-3052,1644,-246,-10865,7242
12519.092999999999,146,278,370,302,-14712,-3052,1644,-246,-10865,7242
12522.0,111,277,371,307,-14712,-3052,1644,-246,-10865,7242
12531.337000000001,80,278,370,312,-14712,-3052,1644,-246,-10865,7242
12539.935,53,280,367,315,-14712,-3052,1644,-246,-10865,7242
12545.143,21,281,363,323,-14712,-3052,1644,-246,-10865,7242
12552.123,2,282,357,328,-13060,-2620,2084,1970,-15419,9701
12552.123,0,283,346,325,-13060,-2620,2084,1970,-15419,9701
12563.88,0,285,338,322,-13060,-2620,2084,1970,-15419,9701
12572.669,0,289,331,318,-13060,-2620,2084,1970,-15419,9701
12574.961,0,297,320,314,-13060,-2620,2084,1970,-15419,9701
12585.309000000001,0,304,311,310,-13060,-2620,2084,1970,-15419,9701
12587.508,0,312,300,306,-10836,-488,3376,2550,-18938,11457
12597.242,0,317,291,303,-10836,-488,3376,2550,-18938,11457
12599.751,2,321,281,301,-10836,-488,3376,2550,-18938,11457
12608.144,6,324,273,297,-10836,-488,3376,2550,-18938,11457
12612.314,16,326,263,292,-10836,-488,3376,2550,-18938,11457
12618.482,28,328,254,287,-10836,-488,3376,2550,-18938,11457
12625.152999999998,40,329,244,279,-8376,1092,7116,393,-20918,12649
12630.388,53,328,234,269,-8376,1092,7116,393,-20918,12649
12636.824,66,330,226,257,-8376,1092,7116,393,-20918,12649
12641.876,82,330,221,245,-8376,1092,7116,393,-20918,12649
12649.792,100,332,212,237,-8376,1092,7116,393,-20918,12649
12652.336,122,338,202,232,-8376,1092,7116,393,-20918,12649
12663.507,146,341,193,229,-8376,1092,7116,393,-20918,12649
12672.82,173,345,182,230,-6024,3956,10408,-1745,-21822,11835
12678.793000000001,202,350,169,236,-6024,3956,10408,-1745,-21822,11835
12678.793000000001,228,348,159,245,-6024,3956,10408,-1745,-21822,11835
12685.957,259,341,150,260,-6024,3956,10408,-1745,-21822,11835
12697.169,285,339,144,270,-6024,3956,10408,-1745,-21822,11835
12702.803,309,341,137,282,-6024,3956,10408,-1745,-21822,11835
12707.689,325,340,130,294,-3784,6512,11404,-2392,-21145,10383
12719.417,342,342,126,309,-3784,6512,11404,-2392,-21145,10383
12723.039999999999,353,348,123,317,-3784,6512,11404,-2392,-21145,10383
12730.698999999999,362,357,123,321,-3784,6512,11404,-2392,-21145,10383
12735.016,370,373,126,321,-3784,6512,11404,-2392,-21145,10383
12741.188,376,388,131,323,-3784,6512,11404,-2392,-21145,10383
12752.129,378,390,136,325,-2852,6564,15276,-6309,-19965,9321
12752.129,374,389,142,325,-2852,6564,15276,-6309,-19965,9321
12763.662,366,388,147,326,-2852,6564,15276,-6309,-19965,9321
12767.704,353,389,134,331,-2852,6564,15276,-6309,-19965,9321
12774.343,344,389,124,332,-2852,6564,15276,-6309,-19965,9321
12785.602,334,386,115,334,-2852,6564,15276,-6309,-19965,9321
12785.602,329,382,108,334,-1472,4612,15764,-7296,-18116,7026
12796.797,322,377,96,335,-1472,4612,15764,-7296,-18116,7026
12801.019999999999,319,370,76,339,-1472,4612,15764,-7296,-18116,7026
12808.301,314,360,59,344,-1472,4612,15764,-7296,-18116,7026
12812.586,306,349,43,353,-1472,4612,15764,-7296,-18116,7026
12819.015,300,341,33,362,-1472,4612,15764,-7296,-18116,7026
12825.922999999999,295,333,19,369,-716,5180,16096,-5636,-16296,3764
12830.619999999999,292,326,2,377,-716,5180,16096,-5636,-16296,3764
12838.279,287,323,0,384,-716,5180,16096,-5636,-16296,3764
12841.812,283,329,0,390,-716,5180,16096,-5636,-16296,3764
12852.786999999998,278,321,15,396,-716,5180,16096,-5636,-16296,3764
12852.786999999998,271,313,31,400,-716,5180,16096,-5636,-16296,3764
12864.053,264,299,44,409,-716,5180,16096,-5636,-16296,3764
12870.465,257,297,61,414,-932,2752,18260,-8596,-15194,4733
12875.178,249,295,106,420,-932,2752,18260,-8596,-15194,4733
12882.358,242,293,159,424,-932,2752,18260,-8596,-15194,4733
12886.362000000001,235,294,221,429,-932,2752,18260,-8596,-15194,4733
12897.046,228,296,289,431,-932,2752,18260,-8596,-15194,4733
12905.578,218,300,383,435,-932,2752,18260,-8596,-15194,4733
12908.302000000001,208,307,470,439,-3932,-7064,32511,-7238,-15122,6387
12916.467,201,320,572,440,-3932,-7064,32511,-7238,-15122,6387
12919.07,201,336,657,438,-3932,-7064,32511,-7238,-15122,6387
12930.151,207,356,744,438,-3932,-7064,32511,-7238,-15122,6387
12938.245,213,376,813,433,-3932,-7064,32511,-7238,-15122,6387
12941.421,223,391,861,431,-3932,-7064,32511,-7238,-15122,6387
12948.366,240,400,903,432,-3436,-5716,1588,26897,2684,-4139
12952.72,265,402,930,434,-3436,-5716,1588,26897,2684,-4139
12963.31,290,404,947,437,-3436,-5716,1588,26897,2684,-4139
12971.321,319,403,962,440,-3436,-5716,1588,26897,2684,-4139
12974.618,344,402,979,439,-3436,-5716,1588,26897,2684,-4139
12983.762,368,401,994,436,-3436,-5716,1588,26897,2684,-4139
12985.896,385,398,1000,432,-1756,1924,15596,-2277,-3136,2317
12995.127999999999,401,395,995,424,-1756,1924,15596,-2277,-3136,2317
12997.095,413,391,980,413,-1756,1924,15596,-2277,-3136,2317
13006.509,422,387,958,403,-1756,1924,15596,-2277,-3136,2317
13016.636,430,382,924,390,-1756,1924,15596,-2277,-3136,2317
13019.068000000001,434,377,891,379,-1756,1924,15596,-2277,-3136,2317
13029.113000000001,440,373,858,368,-1756,1924,15596,-2277,-3136,2317
13032.234,448,368,818,359,-864,5724,14952,209,1408,-981
13040.567,457,363,783,352,-864,5724,14952,209,1408,-981
13044.979,465,357,751,345,-864,5724,14952,209,1408,-981
13052.908000000001,472,354,726,340,-864,5724,14952,209,1408,-981
13055.395,482,350,698,334,-864,5724,14952,209,1408,-981
13064.359,492,346,668,328,-864,5724,14952,209,1408,-981
13064.359,502,342,638,322,-1340,3824,14908,1176,-1386,-303
13074.823,514,337,605,316,-1340,3824,14908,1176,-1386,-303
13074.823,526,332,579,309,-1340,3824,14908,1176,-1386,-303
13085.555,534,327,555,304,-1340,3824,14908,1176,-1386,-303
13093.953000000001,543,323,531,301,-1340,3824,14908,1176,-1386,-303
13096.190999999999,553,318,507,296,-1340,3824,14908,1176,-1386,-303
13106.38,560,314,485,292,-1340,3824,14908,1176,-1386,-303
13107.887,568,310,465,290,-596,2892,15932,403,-1097,273
13116.371,573,306,446,286,-596,2892,15932,403,-1097,273
13119.195,577,301,427,284,-596,2892,15932,403,-1097,273
13130.187,580,296,413,283,-596,2892,15932,403,-1097,273
13130.187,581,292,396,281,-596,2892,15932,403,-1097,273
13141.600999999999,580,287,378,279,-596,2892,15932,403,-1097,273
13141.600999999999,578,284,363,277,-596,2892,15932,403,-1097,273
13152.287,575,281,348,276,-796,5048,16276,2726,162,-502
13157.432999999999,570,278,331,274,-796,5048,16276,2726,162,-502
13163.289999999999,566,276,317,273,-796,5048,16276,2726,162,-502
13170.532,560,275,304,273,-796,5048,16276,2726,162,-502
13174.318,556,274,293,272,-796,5048,16276,2726,162,-502
13177.527,549,274,281,270,-796,5048,16276,2726,162,-502
13186.821,542,274,270,270,-792,4360,14840,661,-9,-185
13191.965,534,273,258,269,-792,4360,14840,661,-9,-185
13197.835,529,272,251,269,-792,4360,14840,661,-9,-185
13197.835,520,273,243,268,-792,4360,14840,661,-9,-185
13208.303,511,273,235,268,-792,4360,14840,661,-9,-185
13215.368,501,274,228,268,-792,4360,14840,661,-9,-185
13219.382,492,275,220,267,-792,4360,14840,661,-9,-185
13226.959,480,276,213,267,-1124,4444,15868,-65,207,14
13230.320000000002,470,278,206,267,-1124,4444,15868,-65,207,14
13241.458,462,279,202,267,-1124,4444,15868,-65,207,14
13241.458,454,281,198,267,-1124,4444,15868,-65,207,14
13250.554,445,281,194,268,-1124,4444,15868,-65,207,14
13252.812,437,282,190,268,-1124,4444,15868,-65,207,14
13259.909,430,282,188,268,-1124,4444,15868,-65,207,14
13263.72,421,282,186,269,-1124,4444,15868,-65,207,14
13274.504,414,284,185,268,-544,4152,15492,-578,-761,190
13274.504,406,286,183,267,-544,4152,15492,-578,-761,190
13285.601,400,286,183,268,-544,4152,15492,-578,-761,190
13285.601,393,287,181,268,-544,4152,15492,-578,-761,190
13297.324,386,287,178,267,-544,4152,15492,-578,-761,190
13300.554,379,287,176,267,-544,4152,15492,-578,-761,190
13308.628999999999,373,287,176,269,-768,4516,15440,580,244,-227
13312.300000000001,366,288,175,270,-768,4516,15440,580,244,-227
13318.719,361,289,175,269,-768,4516,15440,580,244,-227
13320.798,355,289,176,269,-768,4516,15440,580,244,-227
13330.829,350,290,176,270,-768,4516,15440,580,244,-227
13339.908,346,291,177,270,-768,4516,15440,580,244,-227
13342.045,341,291,178,271,-768,4516,15440,580,244,-227
13345.881000000001,337,290,180,273,-828,4476,15680,327,165,-18
13352.153,332,292,182,272,-828,4476,15680,327,165,-18
13358.35,326,292,183,272,-828,4476,15680,327,165,-18
13363.479,322,291,185,273,-828,4476,15680,327,165,-18
13370.166,317,291,187,273,-828,4476,15680,327,165,-18
13375.802,315,291,188,273,-828,4476,15680,327,165,-18
13384.0,313,290,190,274,-828,4476,15680,327,165,-18
13386.283000000001,310,290,193,275,-828,4476,15680,327,165,-18
13396.956,308,290,194,276,-768,4444,15228,590,131,-121
13396.956,306,290,196,275,-768,4444,15228,590,131,-121
13403.380000000001,305,290,201,276,-768,4444,15228,590,131,-121
13408.321,304,289,202,278,-768,4444,15228,590,131,-121
13414.831,304,288,203,278,-768,4444,15228,590,131,-121
13419.643,303,287,207,278,-768,4444,15228,590,131,-121
13423.473,303,286,211,280,-984,4524,15504,-236,-23,-2
13431.229,302,285,214,280,-984,4524,15504,-236,-23,-2
13441.858,303,285,216,281,-984,4524,15504,-236,-23,-2
13443.302,302,284,219,282,-984,4524,15504,-236,-23,-2
13451.316,302,283,222,283,-984,4524,15504,-236,-23,-2
13452.738,302,282,224,283,-984,4524,15504,-236,-23,-2
13459.749,303,281,227,283,-984,4524,15504,-236,-23,-2
13463.608,303,280,229,285,-984,4524,15504,-236,-23,-2
13474.837000000001,303,279,232,286,-668,4504,15140,231,-219,22
13474.837000000001,303,278,234,287,-668,4504,15140,231,-219,22
13483.879,302,278,235,287,-668,4504,15140,231,-219,22
13483.879,302,277,237,288,-668,4504,15140,231,-219,22
13495.276,302,277,237,288,-668,4504,15140,231,-219,22
13503.278,302,276,239,289,-668,4504,15140,231,-219,22
13506.884,302,275,241,289,-668,4504,15140,231,-219,22
13513.795999999998,304,274,242,291,-804,4412,15368,303,230,-184
13519.778,303,273,244,290,-804,4412,15368,303,230,-184
13522.064999999999,304,274,247,291,-804,4412,15368,303,230,-184
13531.027999999998,302,273,249,292,-804,4412,15368,303,230,-184
13531.027999999998,302,272,251,292,-804,4412,15368,303,230,-184
13541.344000000001,302,272,252,292,-804,4412,15368,303,230,-184
13541.344000000001,302,272,254,293,-804,4412,15368,303,230,-184
13551.607,303,271,256,293,-672,4940,15652,212,174,-132
13554.148,302,271,256,293,-672,4940,15652,212,174,-132
13563.502,302,271,258,294,-672,4940,15652,212,174,-132
13573.033000000001,303,271,260,296,-672,4940,15652,212,174,-132
13575.116,303,272,261,296,-672,4940,15652,212,174,-132
13578.492,304,272,263,296,-672,4940,15652,212,174,-132
13585.457,304,272,264,297,-672,4940,15652,212,174,-132
13591.777,305,272,264,297,-844,4428,15212,-92,69,-176
13596.882000000001,306,272,266,296,-844,4428,15212,-92,69,-176
13603.161999999998,306,272,267,298,-844,4428,15212,-92,69,-176
13608.314999999999,308,273,269,298,-844,4428,15212,-92,69,-176
13611.288999999999,307,274,269,298,-844,4428,15212,-92,69,-176
13619.780999999999,308,275,272,298,-844,4428,15212,-92,69,-176
13630.674,308,276,274,299,-844,4428,15212,-92,69,-176
13630.674,308,276,274,299,-864,4812,15592,-61,117,8
13637.95,309,277,276,298,-864,4812,15592,-61,117,8
13641.550000000001,310,277,278,299,-864,4812,15592,-61,117,8
13644.765,310,277,279,300,-864,4812,15592,-61,117,8
13652.885,311,278,280,299,-864,4812,15592,-61,117,8
13652.885,311,279,281,299,-864,4812,15592,-61,117,8
13663.693000000001,311,279,281,301,-864,4812,15592,-61,117,8
13669.733,312,279,282,301,-772,4608,15232,222,-92,-66
13674.583,312,280,281,301,-772,4608,15232,222,-92,-66
13681.701000000001,312,280,282,301,-772,4608,15232,222,-92,-66
13686.269,312,281,283,301,-772,4608,15232,222,-92,-66
13689.707999999999,312,281,284,301,-772,4608,15232,222,-92,-66
13698.464,311,281,284,301,-772,4608,15232,222,-92,-66
13704.168,311,282,285,302,-772,4608,15232,222,-92,-66
13708.091,311,282,286,302,-828,4516,15464,7,74,-102
13716.168,310,283,286,302,-828,4516,15464,7,74,-102
13718.293,310,283,286,301,-828,4516,15464,7,74,-102
13722.127999999999,311,283,286,302,-828,4516,15464,7,74,-102
13730.320000000002,312,283,287,302,-828,4516,15464,7,74,-102
13730.320000000002,311,284,286,301,-828,4516,15464,7,74,-102
13741.673999999999,311,284,286,301,-828,4516,15464,7,74,-102
13747.372000000001,310,284,286,303,-828,4516,15464,7,74,-102
13752.048999999999,311,284,286,303,-792,4524,15256,20,42,-79
13754.759999999998,310,284,284,302,-792,4524,15256,20,42,-79
13764.258,310,284,284,303,-792,4524,15256,20,42,-79
13764.258,311,284,285,304,-792,4524,15256,20,42,-79
