Time (ms),EMG1,EMG2,EMG3,EMG4,AccX,AccY,AccZ,GyroX,GyroY,GyroZ
1552.125,0,0,0,0,0,0,0,0,0,0
1552.125,0,0,0,0,0,0,0,0,0,0
1552.125,311,301,299,308,0,0,0,0,0,0
1552.125,311,301,299,309,0,0,0,0,0,0
1564.964,311,301,300,309,0,0,0,0,0,0
1565.407,311,301,299,309,0,0,0,0,0,0
1571.794,311,301,300,309,0,0,0,0,0,0
1576.783,313,301,299,309,0,0,0,0,0,0
1579.819,313,301,299,308,0,0,0,0,0,0
1579.819,315,301,299,308,0,0,0,0,0,0
1579.819,315,301,299,309,0,0,0,0,0,0
1588.106,316,302,299,309,0,0,0,0,0,0
1591.43,317,301,299,308,0,0,0,0,0,0
1597.761,317,302,298,308,0,0,0,0,0,0
1599.147,318,302,298,308,980,6652,14600,-40,6,-22
1610.203,320,302,299,309,980,6652,14600,-40,6,-22
1610.677,320,302,298,308,980,6652,14600,-40,6,-22
1615.401,322,303,298,308,980,6652,14600,-40,6,-22
1621.162,323,303,298,308,980,6652,14600,-40,6,-22
1631.189,323,303,299,309,980,6652,14600,-40,6,-22
1633.601,324,302,299,309,980,6652,14600,-40,6,-22
1633.601,324,303,298,308,980,6652,14600,-40,6,-22
1643.889,325,302,298,308,976,6772,14668,-97,3,-13
1649.299,324,302,299,309,976,6772,14668,-97,3,-13
1654.316,324,302,298,308,976,6772,14668,-97,3,-13
1656.385,324,302,298,308,976,6772,14668,-97,3,-13
1667.124,323,302,298,308,976,6772,14668,-97,3,-13
1667.124,323,302,299,308,976,6772,14668,-97,3,-13
1675.853,323,302,298,308,976,6772,14668,-97,3,-13
1677.57,322,302,297,308,976,6772,14668,-97,3,-13
1688.061,321,302,298,308,964,6676,14588,-110,16,-24
1688.061,320,303,298,308,964,6676,14588,-110,16,-24
1698.682,320,303,297,308,964,6676,14588,-110,16,-24
1698.682,319,303,298,308,964,6676,14588,-110,16,-24
1708.707,318,303,298,308,964,6676,14588,-110,16,-24
1714.138,317,303,298,308,964,6676,14588,-110,16,-24
1721.316,316,303,297,307,964,6676,14588,-110,16,-24
1722.199,315,302,297,308,956,6688,14580,-75,19,-34
1732.619,314,303,297,308,956,6688,14580,-75,19,-34
1734.71,314,303,297,307,956,6688,14580,-75,19,-34
1734.71,312,303,297,307,956,6688,14580,-75,19,-34
1744.777,311,303,297,307,956,6688,14580,-75,19,-34
1753.416,309,303,297,307,956,6688,14580,-75,19,-34
1755.027,309,303,297,307,956,6688,14580,-75,19,-34
1759.418,308,303,296,307,964,6644,14592,-94,-5,-35
1765.61,306,304,297,308,964,6644,14592,-94,-5,-35
1771.09,305,304,296,307,964,6644,14592,-94,-5,-35
1776.982,304,304,296,307,964,6644,14592,-94,-5,-35
1786.596,303,304,296,307,964,6644,14592,-94,-5,-35
1788.359,302,304,296,307,964,6644,14592,-94,-5,-35
1792.561,301,303,296,306,964,6644,14592,-94,-5,-35
1800.287,301,303,296,306,964,6644,14592,-94,-5,-35
1805.553,300,303,296,307,972,6716,14648,-60,15,3
1809.796,298,303,296,307,972,6716,14648,-60,15,3
1809.796,297,303,296,306,972,6716,14648,-60,15,3
1822.234,297,303,296,306,972,6716,14648,-60,15,3
1824.564,296,303,296,306,972,6716,14648,-60,15,3
1831.589,295,303,296,306,972,6716,14648,-60,15,3
1832.433,295,303,296,306,972,6716,14648,-60,15,3
1843.625,295,303,295,306,972,6716,14648,-60,15,3
1843.625,294,303,296,306,988,6660,14636,-100,5,-30
1849.892,295,304,296,306,988,6660,14636,-100,5,-30
1854.71,294,304,295,306,988,6660,14636,-100,5,-30
1864.319,295,303,295,306,988,6660,14636,-100,5,-30
1866.232,295,304,295,306,988,6660,14636,-100,5,-30
1876.162,295,304,295,306,988,6660,14636,-100,5,-30
1877.827,296,303,294,305,988,6660,14636,-100,5,-30
1881.782,297,303,295,306,988,6744,14644,-12,4,-11
1887.898,297,303,295,306,988,6744,14644,-12,4,-11
1893.806,297,303,295,306,988,6744,14644,-12,4,-11
1899.627,297,303,294,305,988,6744,14644,-12,4,-11
1899.627,297,303,295,306,988,6744,14644,-12,4,-11
1910.495,296,303,295,306,988,6744,14644,-12,4,-11
1915.86,296,304,294,305,988,6744,14644,-12,4,-11
1921.069,297,304,294,305,988,6744,14644,-12,4,-11
1922.779,295,304,295,306,940,6648,14648,-89,-21,-14
1932.206,295,303,295,306,940,6648,14648,-89,-21,-14
1934.86,296,304,295,305,940,6648,14648,-89,-21,-14
1943.33,295,304,295,305,940,6648,14648,-89,-21,-14
1947.544,294,304,295,306,940,6648,14648,-89,-21,-14
1954.909,294,304,296,305,940,6648,14648,-89,-21,-14
1956.209,294,304,295,305,940,6648,14648,-89,-21,-14
1965.389,295,303,296,305,952,6688,14580,-61,22,2
1965.389,295,302,296,306,952,6688,14580,-61,22,2
1973.071,295,303,296,305,952,6688,14580,-61,22,2
1982.085,294,302,296,304,952,6688,14580,-61,22,2
1987.012,294,302,297,305,952,6688,14580,-61,22,2
1988.459,293,303,297,305,952,6688,14580,-61,22,2
1993.366,293,303,296,305,952,6688,14580,-61,22,2
1999.544,293,303,296,305,952,6688,14580,-61,22,2
2005.61,293,303,297,305,976,6628,14592,-96,3,11
2009.592,292,302,298,305,976,6628,14592,-96,3,11
2013.541,292,303,297,305,976,6628,14592,-96,3,11
2022.523,293,303,297,305,976,6628,14592,-96,3,11
2022.523,292,303,298,305,976,6628,14592,-96,3,11
2031.725,292,302,298,306,976,6628,14592,-96,3,11
2032.482,293,302,297,305,976,6628,14592,-96,3,11
2044.102,293,302,297,305,976,6628,14592,-96,3,11
2044.102,294,302,297,305,976,6716,14640,-68,12,-36
2053.004,294,302,298,305,976,6716,14640,-68,12,-36
2055.021,295,302,297,305,976,6716,14640,-68,12,-36
2064.745,295,302,297,305,976,6716,14640,-68,12,-36
2066.732,295,302,297,306,976,6716,14640,-68,12,-36
2076.523,296,303,297,305,976,6716,14640,-68,12,-36
2078.104,296,303,297,305,976,6716,14640,-68,12,-36
2078.104,297,303,297,306,1012,6656,14684,-79,-2,-11
2087.803,297,303,297,306,1012,6656,14684,-79,-2,-11
2097.837,298,303,297,305,1012,6656,14684,-79,-2,-11
2099.412,299,303,296,305,1012,6656,14684,-79,-2,-11
2109.603,299,303,297,306,1012,6656,14684,-79,-2,-11
2111.323,299,303,297,306,1012,6656,14684,-79,-2,-11
2111.323,300,303,297,305,1012,6656,14684,-79,-2,-11
2122.114,300,303,297,305,928,6704,14628,-100,9,-31
2127.686,300,303,297,306,928,6704,14628,-100,9,-31
2132.553,301,302,297,306,928,6704,14628,-100,9,-31
2142.345,301,302,297,305,928,6704,14628,-100,9,-31
2144.622,301,302,297,306,928,6704,14628,-100,9,-31
2144.622,301,303,297,306,928,6704,14628,-100,9,-31
2155.019,302,303,297,306,928,6704,14628,-100,9,-31
2160.544,303,303,296,306,928,6704,14628,-100,9,-31
2165.469,302,303,297,306,924,6660,14636,-66,15,-52
2165.469,303,302,297,307,924,6660,14636,-66,15,-52
2177.445,305,302,297,306,924,6660,14636,-66,15,-52
2177.445,305,302,297,306,924,6660,14636,-66,15,-52
2187.432,304,302,297,306,924,6660,14636,-66,15,-52
2188.138,305,302,297,306,924,6660,14636,-66,15,-52
2199.582,305,303,296,306,924,6660,14636,-66,15,-52
2199.582,305,302,297,306,964,6632,14652,-107,-6,-25
2210.794,305,302,297,307,964,6632,14652,-107,-6,-25
2210.794,306,302,296,306,964,6632,14652,-107,-6,-25
2220.723,306,302,296,306,964,6632,14652,-107,-6,-25
2221.455,307,302,297,306,964,6632,14652,-107,-6,-25
2232.605,306,302,297,307,964,6632,14652,-107,-6,-25
2232.605,308,302,296,306,964,6632,14652,-107,-6,-25
2244.127,308,302,296,307,964,6632,14652,-107,-6,-25
2246.106,308,302,297,307,960,6648,14564,-88,12,-34
2253.472,309,302,296,306,960,6648,14564,-88,12,-34
2254.879,310,302,296,306,960,6648,14564,-88,12,-34
2265.237,311,302,297,307,960,6648,14564,-88,12,-34
2265.951,312,302,297,307,960,6648,14564,-88,12,-34
2276.656,312,302,296,306,960,6648,14564,-88,12,-34
2278.835,313,301,296,306,960,6648,14564,-88,12,-34
2286.42,313,301,296,307,968,6628,14628,-74,10,-40
2287.93,314,301,296,306,968,6628,14628,-74,10,-40
2297.975,315,302,296,306,968,6628,14628,-74,10,-40
2299.497,315,301,296,306,968,6628,14628,-74,10,-40
2310.014,317,301,297,307,968,6628,14628,-74,10,-40
2311.842,317,302,297,306,968,6628,14628,-74,10,-40
2311.842,317,301,296,306,968,6628,14628,-74,10,-40
2321.974,317,302,297,306,944,6624,14600,-94,-9,-38
2331.022,318,302,297,307,944,6624,14600,-94,-9,-38
2332.742,318,303,297,306,944,6624,14600,-94,-9,-38
2343.047,317,302,297,306,944,6624,14600,-94,-9,-38
2344.812,318,302,298,307,944,6624,14600,-94,-9,-38
2344.812,319,302,298,306,944,6624,14600,-94,-9,-38
2355.004,318,303,298,306,944,6624,14600,-94,-9,-38
2361.23,317,302,298,306,944,6624,14600,-94,-9,-38
2366.006,317,301,299,307,964,6660,14600,-70,-2,-28
2368.908,316,302,299,306,964,6660,14600,-70,-2,-28
2376.786,316,301,299,306,964,6660,14600,-70,-2,-28
2381.29,315,301,299,306,964,6660,14600,-70,-2,-28
2387.879,314,302,300,307,964,6660,14600,-70,-2,-28
2387.879,314,302,300,306,964,6660,14600,-70,-2,-28
2398.915,314,302,299,306,964,6660,14600,-70,-2,-28
2398.915,311,303,300,306,972,6692,14640,-78,12,-20
2410.315,310,303,301,307,972,6692,14640,-78,12,-20
2414.677,310,303,301,306,972,6692,14640,-78,12,-20
2421.421,309,304,301,306,972,6692,14640,-78,12,-20
2422.708,308,303,301,306,972,6692,14640,-78,12,-20
2432.489,307,303,302,306,972,6692,14640,-78,12,-20
2432.489,307,303,301,306,972,6692,14640,-78,12,-20
2443.773,307,303,302,306,972,6692,14640,-78,12,-20
2447.011,305,303,303,306,940,6708,14644,-94,11,-6
2453.886,304,304,303,306,940,6708,14644,-94,11,-6
2454.675,304,303,302,305,940,6708,14644,-94,11,-6
2465.479,303,303,302,306,940,6708,14644,-94,11,-6
2465.479,303,304,303,306,940,6708,14644,-94,11,-6
2471.365,303,304,303,306,940,6708,14644,-94,11,-6
2476.419,303,304,303,305,940,6708,14644,-94,11,-6
2486.57,302,304,303,306,932,6632,14612,-64,18,-7
2490.337,302,304,304,306,932,6632,14612,-64,18,-7
2493.133,301,305,304,305,932,6632,14612,-64,18,-7
2499.091,301,305,303,305,932,6632,14612,-64,18,-7
2505.604,300,304,304,305,932,6632,14612,-64,18,-7
2509.803,301,305,304,305,932,6632,14612,-64,18,-7
2512.4,300,305,304,305,932,6632,14612,-64,18,-7
2521.135,301,304,304,305,932,6632,14612,-64,18,-7
2521.135,301,304,304,305,908,6636,14644,-23,-3,15
2531.97,301,304,304,305,908,6636,14644,-23,-3,15
2532.933,300,304,304,305,908,6636,14644,-23,-3,15
2543.724,300,304,304,305,908,6636,14644,-23,-3,15
2543.724,298,304,304,305,908,6636,14644,-23,-3,15
2554.786,299,304,304,305,908,6636,14644,-23,-3,15
2557.136,298,305,303,304,908,6636,14644,-23,-3,15
2564.584,298,304,304,305,908,6636,14644,-23,-3,15
2565.614,297,304,304,305,912,6672,14592,-107,5,-26
2576.79,298,305,303,304,912,6672,14592,-107,5,-26
2577.181,298,305,303,304,912,6672,14592,-107,5,-26
2582.045,298,305,303,305,912,6672,14592,-107,5,-26
2587.474,299,305,303,305,912,6672,14592,-107,5,-26
2597.65,300,305,302,305,912,6672,14592,-107,5,-26
2599.527,300,305,301,305,912,6672,14592,-107,5,-26
2609.537,302,304,302,305,984,6748,14652,-33,17,-19
2610.855,303,304,301,305,984,6748,14652,-33,17,-19
2610.855,305,305,300,304,984,6748,14652,-33,17,-19
2620.584,305,305,300,304,984,6748,14652,-33,17,-19
2627.45,306,305,301,305,984,6748,14652,-33,17,-19
2632.473,306,305,300,304,984,6748,14652,-33,17,-19
2642.165,306,305,300,304,984,6748,14652,-33,17,-19
2644.128,306,305,300,304,988,6608,14624,-59,-15,-12
2644.128,306,304,300,305,988,6608,14624,-59,-15,-12
2654.525,307,305,299,304,988,6608,14624,-59,-15,-12
2660.3,307,305,299,304,988,6608,14624,-59,-15,-12
2665.216,306,305,300,305,988,6608,14624,-59,-15,-12
2665.216,306,305,300,305,988,6608,14624,-59,-15,-12
2677.32,306,305,299,304,988,6608,14624,-59,-15,-12
2677.32,306,305,299,304,988,6608,14624,-59,-15,-12
2688.053,306,305,299,305,980,6744,14648,-21,2,-4
2693.467,307,304,300,304,980,6744,14648,-21,2,-4
2698.666,307,304,299,304,980,6744,14648,-21,2,-4
2700.801,307,304,300,305,980,6744,14648,-21,2,-4
2709.771,306,304,301,305,980,6744,14648,-21,2,-4
2712.967,305,303,300,305,980,6744,14648,-21,2,-4
2720.444,305,303,299,304,980,6744,14648,-21,2,-4
2722.676,305,304,300,305,1008,6660,14628,-90,-15,-24
2732.56,304,303,300,305,1008,6660,14628,-90,-15,-24
2732.975,304,304,300,304,1008,6660,14628,-90,-15,-24
2743.336,303,303,300,304,1008,6660,14628,-90,-15,-24
2743.336,303,304,300,305,1008,6660,14628,-90,-15,-24
2753.476,302,304,300,305,1008,6660,14628,-90,-15,-24
2755.238,302,303,300,304,1008,6660,14628,-90,-15,-24
2764.955,301,303,300,304,1008,6660,14628,-90,-15,-24
2765.719,301,303,301,305,972,6664,14608,-57,14,-22
2776.704,303,303,300,304,972,6664,14608,-57,14,-22
2776.704,302,302,300,304,972,6664,14608,-57,14,-22
2784.225,302,302,300,305,972,6664,14608,-57,14,-22
2788.11,302,302,300,305,972,6664,14608,-57,14,-22
2798.799,303,303,300,305,972,6664,14608,-57,14,-22
2800.565,303,303,299,305,972,6664,14608,-57,14,-22
2809.669,303,303,300,305,944,6688,14668,-69,10,-15
2809.669,303,303,299,305,944,6688,14668,-69,10,-15
2815.491,304,303,298,305,944,6688,14668,-69,10,-15
2820.821,304,303,299,305,944,6688,14668,-69,10,-15
2830.732,304,303,299,305,944,6688,14668,-69,10,-15
2832.618,304,304,299,305,944,6688,14668,-69,10,-15
2842.724,304,304,298,305,944,6688,14668,-69,10,-15
2844.21,305,303,299,306,976,6692,14560,-83,-3,-27
2848.286,305,303,299,306,976,6692,14560,-83,-3,-27
2854.177,306,304,299,305,976,6692,14560,-83,-3,-27
2854.177,306,303,299,305,976,6692,14560,-83,-3,-27
2865.716,306,303,299,306,976,6692,14560,-83,-3,-27
2865.716,305,303,299,306,976,6692,14560,-83,-3,-27
2876.905,305,303,299,305,976,6692,14560,-83,-3,-27
2876.905,304,303,299,305,976,6692,14560,-83,-3,-27
2886.98,304,303,300,306,932,6692,14636,-78,33,-39
2889.509,304,303,299,305,932,6692,14636,-78,33,-39
2899.257,304,303,299,305,932,6692,14636,-78,33,-39
2899.257,304,303,299,306,932,6692,14636,-78,33,-39
2910.71,305,303,299,306,932,6692,14636,-78,33,-39
2910.71,304,303,299,305,932,6692,14636,-78,33,-39
2921.446,304,303,299,305,932,6692,14636,-78,33,-39
2921.446,304,303,300,306,940,6676,14580,-97,-2,-19
2932.425,305,303,300,306,940,6676,14580,-97,-2,-19
2932.425,305,303,299,305,940,6676,14580,-97,-2,-19
2940.215,305,303,300,306,940,6676,14580,-97,-2,-19
2943.426,306,303,300,306,940,6676,14580,-97,-2,-19
2953.845,306,303,300,306,940,6676,14580,-97,-2,-19
2954.657,306,303,300,305,940,6676,14580,-97,-2,-19
2965.618,305,303,300,305,940,6676,14580,-97,-2,-19
2967.342,305,303,301,306,952,6644,14612,-29,8,-36
2967.342,306,304,300,305,952,6644,14612,-29,8,-36
2977.182,306,303,300,305,952,6644,14612,-29,8,-36
2986.56,306,303,301,305,952,6644,14612,-29,8,-36
2988.445,306,303,301,306,952,6644,14612,-29,8,-36
2992.982,308,303,301,305,952,6644,14612,-29,8,-36
2999.227,307,303,301,305,952,6644,14612,-29,8,-36
3006.955,308,303,301,305,1024,6688,14608,-74,6,-20
3009.907,308,303,301,306,1024,6688,14608,-74,6,-20
3012.211,309,304,301,305,1024,6688,14608,-74,6,-20
3021.2,309,303,301,305,1024,6688,14608,-74,6,-20
3021.2,310,304,301,306,1024,6688,14608,-74,6,-20
3032.89,311,303,301,305,1024,6688,14608,-74,6,-20
3037.798,312,303,301,305,1024,6688,14608,-74,6,-20
3043.717,312,303,301,305,1024,6688,14608,-74,6,-20
3045.243,312,303,302,306,952,6692,14600,-70,8,1
3056.037,312,303,302,305,952,6692,14600,-70,8,1
3056.06,312,303,301,304,952,6692,14600,-70,8,1
3064.401,312,304,302,305,952,6692,14600,-70,8,1
3066.281,311,304,302,305,952,6692,14600,-70,8,1
3076.228,310,304,302,305,952,6692,14600,-70,8,1
3077.845,310,304,302,304,952,6692,14600,-70,8,1
3077.845,309,304,302,305,952,6692,14600,-70,8,1
3088.19,307,304,303,305,908,6668,14668,-110,40,-4
3096.265,305,304,303,305,908,6668,14668,-110,40,-4
3099.43,304,304,303,305,908,6668,14668,-110,40,-4
3102.186,302,304,303,305,908,6668,14668,-110,40,-4
3109.781,300,304,304,306,908,6668,14668,-110,40,-4
3114.754,299,304,304,306,908,6668,14668,-110,40,-4
3121.095,298,303,304,306,908,6668,14668,-110,40,-4
3121.095,295,303,305,306,996,6636,14596,-116,43,69
3132.788,292,303,306,306,996,6636,14596,-116,43,69
3132.788,290,303,307,306,996,6636,14596,-116,43,69
3143.47,289,303,307,306,996,6636,14596,-116,43,69
3147.691,286,303,309,307,996,6636,14596,-116,43,69
3155.007,283,303,309,307,996,6636,14596,-116,43,69
3156.519,281,302,310,306,996,6636,14596,-116,43,69
3166.587,279,302,310,306,996,6636,14596,-116,43,69
3166.587,277,302,311,307,936,6556,14616,-142,36,9
3173.583,275,302,311,306,936,6556,14616,-142,36,9
3176.767,273,302,311,307,936,6556,14616,-142,36,9
3187.267,271,303,312,307,936,6556,14616,-142,36,9
3187.99,270,303,312,307,936,6556,14616,-142,36,9
3193.333,269,304,312,307,936,6556,14616,-142,36,9
3198.681,269,304,312,307,936,6556,14616,-142,36,9
3207.163,269,305,312,307,944,6676,14636,-188,67,-43
3210.285,268,305,311,306,944,6676,14636,-188,67,-43
3220.511,268,305,311,306,944,6676,14636,-188,67,-43
3221.85,268,305,311,306,944,6676,14636,-188,67,-43
3231.988,268,306,311,307,944,6676,14636,-188,67,-43
3232.403,269,306,310,306,944,6676,14636,-188,67,-43
3236.886,269,306,310,306,944,6676,14636,-188,67,-43
3243.213,270,306,309,307,944,6676,14636,-188,67,-43
3249.597,272,306,309,306,1008,6636,14628,-153,66,-18
3255.043,274,306,306,306,1008,6636,14628,-153,66,-18
3264.854,275,306,306,306,1008,6636,14628,-153,66,-18
3266.455,275,307,306,306,1008,6636,14628,-153,66,-18
3270.095,277,307,304,306,1008,6636,14628,-153,66,-18
3276.672,278,307,303,306,1008,6636,14628,-153,66,-18
3283.457,280,307,303,306,1008,6636,14628,-153,66,-18
3288.611,282,307,302,306,988,6648,14584,-124,54,-36
3297.703,285,307,301,305,988,6648,14584,-124,54,-36
3299.446,285,306,300,305,988,6648,14584,-124,54,-36
3309.61,286,307,300,306,988,6648,14584,-124,54,-36
3311.553,287,307,299,305,988,6648,14584,-124,54,-36
3311.553,288,307,298,305,988,6648,14584,-124,54,-36
3321.424,290,306,298,305,988,6648,14584,-124,54,-36
3321.424,290,306,297,306,896,6640,14692,-143,42,-79
3332.762,293,306,296,305,896,6640,14692,-143,42,-79
3332.762,293,306,295,304,896,6640,14692,-143,42,-79
3343.579,294,306,295,305,896,6640,14692,-143,42,-79
3343.579,295,306,295,305,896,6640,14692,-143,42,-79
3355.007,297,306,294,304,896,6640,14692,-143,42,-79
3355.007,298,306,293,304,896,6640,14692,-143,42,-79
3367.855,300,305,293,305,980,6568,14616,-187,78,-66
3375.623,302,305,292,305,980,6568,14616,-187,78,-66
3376.811,304,305,292,304,980,6568,14616,-187,78,-66
3380.844,306,304,292,304,980,6568,14616,-187,78,-66
3388.324,309,304,291,304,980,6568,14616,-187,78,-66
3393.019,311,305,291,304,980,6568,14616,-187,78,-66
3398.642,313,304,291,304,980,6568,14616,-187,78,-66
3407.17,314,304,291,304,980,6568,14616,-187,78,-66
3411.153,317,303,291,304,1032,6608,14644,-60,-11,-30
3420.386,319,303,291,303,1032,6608,14644,-60,-11,-30
3422.037,320,303,291,303,1032,6608,14644,-60,-11,-30
3422.037,321,302,291,304,1032,6608,14644,-60,-11,-30
3431.942,322,302,290,303,1032,6608,14644,-60,-11,-30
3438.192,321,302,290,303,1032,6608,14644,-60,-11,-30
3443.707,322,302,291,303,1032,6608,14644,-60,-11,-30
3453.743,323,302,291,304,952,6636,14656,-73,22,-36
3454.842,324,301,291,302,952,6636,14656,-73,22,-36
3454.842,324,301,291,303,952,6636,14656,-73,22,-36
3465.759,326,301,291,304,952,6636,14656,-73,22,-36
3471.841,326,301,291,303,952,6636,14656,-73,22,-36
3477.152,326,301,291,303,952,6636,14656,-73,22,-36
3479.085,326,301,291,303,952,6636,14656,-73,22,-36
3488.266,326,300,291,303,948,6632,14636,-66,20,-72
3488.266,327,301,291,303,948,6632,14636,-66,20,-72
3499.271,327,301,291,303,948,6632,14636,-66,20,-72
3505.073,326,301,292,303,948,6632,14636,-66,20,-72
3509.917,327,300,292,304,948,6632,14636,-66,20,-72
3509.917,326,300,292,303,948,6632,14636,-66,20,-72
3522.305,325,300,292,303,948,6632,14636,-66,20,-72
3527.037,324,301,294,303,956,6620,14652,-98,7,1
3531.248,324,301,294,303,956,6620,14652,-98,7,1
3532.7,323,301,295,303,956,6620,14652,-98,7,1
3543.442,322,301,296,303,956,6620,14652,-98,7,1
3544.831,322,301,297,304,956,6620,14652,-98,7,1
3544.831,321,301,297,304,956,6620,14652,-98,7,1
3555.647,321,301,298,303,956,6620,14652,-98,7,1
3563.7,320,301,299,304,956,6620,14652,-98,7,1
3566.109,317,301,301,304,944,6588,14632,-12,13,-10
3566.109,317,301,301,304,944,6588,14632,-12,13,-10
3576.77,316,301,301,304,944,6588,14632,-12,13,-10
3581.896,315,301,303,304,944,6588,14632,-12,13,-10
3587.476,315,301,303,305,944,6588,14632,-12,13,-10
3587.476,315,302,303,304,944,6588,14632,-12,13,-10
3599.355,315,302,304,304,944,6588,14632,-12,13,-10
3599.355,314,303,304,304,944,6588,14632,-12,13,-10
3609.193,314,303,305,305,956,6668,14676,-46,0,-47
3610.535,314,303,304,304,956,6668,14676,-46,0,-47
3621.215,314,303,304,304,956,6668,14676,-46,0,-47
3621.215,314,303,305,305,956,6668,14676,-46,0,-47
3632.349,315,303,305,305,956,6668,14676,-46,0,-47
3634.392,315,303,305,304,956,6668,14676,-46,0,-47
3642.432,316,303,305,305,956,6668,14676,-46,0,-47
3643.921,318,303,305,305,956,6668,14676,-46,0,-47
3653.674,318,303,305,305,916,6656,14640,-30,13,-79
3655.78,320,303,305,304,916,6656,14640,-30,13,-79
3659.66,321,303,305,305,916,6656,14640,-30,13,-79
3665.161,323,303,306,305,916,6656,14640,-30,13,-79
3671.504,324,303,306,305,916,6656,14640,-30,13,-79
3676.839,326,303,305,304,916,6656,14640,-30,13,-79
3687.031,328,302,305,305,916,6656,14640,-30,13,-79
3688.261,329,302,305,305,916,6636,14648,-20,29,-34
3691.845,330,303,305,304,916,6636,14648,-20,29,-34
3698.596,331,303,305,304,916,6636,14648,-20,29,-34
3707.147,332,302,306,305,916,6636,14648,-20,29,-34
3710.241,332,301,306,305,916,6636,14648,-20,29,-34
3710.241,333,301,305,304,916,6636,14648,-20,29,-34
3721.909,333,301,306,304,916,6636,14648,-20,29,-34
3721.909,333,301,307,305,904,6616,14560,21,-24,7
3731.765,332,300,307,304,904,6616,14560,21,-24,7
3732.462,330,300,306,304,904,6616,14560,21,-24,7
3743.525,329,301,307,304,904,6616,14560,21,-24,7
3743.525,328,300,307,305,904,6616,14560,21,-24,7
3749.813,327,300,307,304,904,6616,14560,21,-24,7
3754.634,325,300,306,304,904,6616,14560,21,-24,7
3764.415,323,300,308,304,904,6616,14560,21,-24,7
3765.81,322,300,307,305,888,6628,14636,1,-2,-2
3770.531,320,300,307,304,888,6628,14636,1,-2,-2
3777.502,319,300,307,304,888,6628,14636,1,-2,-2
3782.789,318,300,308,304,888,6628,14636,1,-2,-2
3787.952,317,300,308,304,888,6628,14636,1,-2,-2
3790.276,315,300,307,304,888,6628,14636,1,-2,-2
3798.634,314,300,307,304,888,6628,14636,1,-2,-2
3800.141,313,299,308,304,888,6628,14636,1,-2,-2
3809.435,311,299,308,304,904,6688,14644,3,-3,16
3810.177,310,300,308,304,904,6688,14644,3,-3,16
3815.609,309,299,307,304,904,6688,14644,3,-3,16
3820.997,306,300,308,304,904,6688,14644,3,-3,16
3827.118,305,300,308,305,904,6688,14644,3,-3,16
3833.042,304,300,308,304,904,6688,14644,3,-3,16
3833.042,302,299,308,304,904,6688,14644,3,-3,16
3843.266,301,299,308,304,904,6688,14644,3,-3,16
3848.007,300,299,309,305,960,6524,14652,-50,-2,8
3854.378,299,299,308,305,960,6524,14652,-50,-2,8
3855.979,298,300,308,304,960,6524,14652,-50,-2,8
3855.979,295,300,309,305,960,6524,14652,-50,-2,8
3866.336,295,300,309,305,960,6524,14652,-50,-2,8
3875.348,294,300,308,305,960,6524,14652,-50,-2,8
3876.249,293,300,309,305,960,6524,14652,-50,-2,8
3887.352,292,301,309,306,960,6524,14652,-50,-2,8
3888.225,292,301,309,305,952,6620,14624,-47,1,-64
3892.764,292,302,308,305,952,6620,14624,-47,1,-64
3898.639,292,302,308,305,952,6620,14624,-47,1,-64
3907.667,292,303,308,305,952,6620,14624,-47,1,-64
3910.694,291,304,308,306,952,6620,14624,-47,1,-64
3910.694,291,304,308,305,952,6620,14624,-47,1,-64
3920.48,291,304,308,305,952,6620,14624,-47,1,-64
3921.809,291,305,308,306,952,6620,14624,-47,1,-64
3932.37,291,305,308,306,960,6648,14620,-45,-12,-16
3940.402,293,305,307,306,960,6648,14620,-45,-12,-16
3943.585,293,306,307,306,960,6648,14620,-45,-12,-16
3943.585,292,306,307,306,960,6648,14620,-45,-12,-16
3955.033,292,307,307,306,960,6648,14620,-45,-12,-16
3958.671,292,307,307,305,960,6648,14620,-45,-12,-16
3965.868,292,308,307,306,960,6648,14620,-45,-12,-16
3966.972,292,308,307,306,944,6624,14660,-23,-9,-32
3977.154,293,308,306,306,944,6624,14660,-23,-9,-32
3977.154,293,308,306,306,944,6624,14660,-23,-9,-32
3987.896,293,307,307,307,944,6624,14660,-23,-9,-32
3991.34,293,307,307,307,944,6624,14660,-23,-9,-32
3998.684,293,308,306,306,944,6624,14660,-23,-9,-32
4000.264,294,308,306,307,944,6624,14660,-23,-9,-32
4009.726,294,308,307,308,912,6688,14660,-114,11,-38
4010.563,295,308,306,307,912,6688,14660,-114,11,-38
4017.746,296,308,306,306,912,6688,14660,-114,11,-38
4021.311,296,308,306,307,912,6688,14660,-114,11,-38
4031.443,297,307,305,307,912,6688,14660,-114,11,-38
4034.581,297,307,305,306,912,6688,14660,-114,11,-38
4042.799,298,307,305,307,912,6688,14660,-114,11,-38
4043.466,299,306,305,307,912,6688,14660,-114,11,-38
4054.169,300,306,304,307,920,6548,14588,-42,12,-23
4054.169,302,306,304,307,920,6548,14588,-42,12,-23
4054.169,301,306,304,307,920,6548,14588,-42,12,-23
4066.177,302,306,304,307,920,6548,14588,-42,12,-23
4075.705,303,305,303,307,920,6548,14588,-42,12,-23
4077.054,303,306,303,307,920,6548,14588,-42,12,-23
4082.07,303,306,303,307,920,6548,14588,-42,12,-23
4087.289,303,306,302,307,888,6696,14608,-64,-1,-26
4093.704,304,307,302,307,888,6696,14608,-64,-1,-26
4099.344,304,307,301,307,888,6696,14608,-64,-1,-26
4109.07,304,306,302,307,888,6696,14608,-64,-1,-26
4111.49,304,307,301,307,888,6696,14608,-64,-1,-26
4111.49,305,307,300,307,888,6696,14608,-64,-1,-26
4121.336,305,307,301,307,888,6696,14608,-64,-1,-26
4127.541,305,307,301,307,888,6696,14608,-64,-1,-26
4132.622,306,308,299,307,936,6700,14616,-128,-2,-52
4132.622,306,309,299,307,936,6700,14616,-128,-2,-52
4143.969,307,309,299,307,936,6700,14616,-128,-2,-52
4143.969,308,309,299,307,936,6700,14616,-128,-2,-52
4155.25,308,310,298,306,936,6700,14616,-128,-2,-52
4159.869,309,310,298,307,936,6700,14616,-128,-2,-52
4165.372,308,311,298,307,936,6700,14616,-128,-2,-52
4167.291,309,311,298,307,968,6692,14616,-130,14,-32
4176.828,309,312,297,306,968,6692,14616,-130,14,-32
4176.828,309,313,297,307,968,6692,14616,-130,14,-32
4188.463,309,313,297,307,968,6692,14616,-130,14,-32
4193.599,309,314,297,307,968,6692,14616,-130,14,-32
4199.39,310,314,296,307,968,6692,14616,-130,14,-32
4200.513,310,315,297,307,968,6692,14616,-130,14,-32
4210.427,310,316,297,307,928,6580,14636,-142,-26,-17
4218.532,310,316,296,307,928,6580,14636,-142,-26,-17
4221.033,310,317,296,307,928,6580,14636,-142,-26,-17
4221.033,311,317,297,307,928,6580,14636,-142,-26,-17
4232.818,311,317,297,307,928,6580,14636,-142,-26,-17
4238.373,312,318,296,307,928,6580,14636,-142,-26,-17
4243.229,312,318,296,307,928,6580,14636,-142,-26,-17
4245.591,313,318,295,308,892,6616,14656,-79,20,-13
4255.259,313,318,294,307,892,6616,14656,-79,20,-13
4255.259,313,317,294,307,892,6616,14656,-79,20,-13
4266.486,314,317,294,308,892,6616,14656,-79,20,-13
4266.486,314,317,293,307,892,6616,14656,-79,20,-13
4276.832,315,316,293,307,892,6616,14656,-79,20,-13
4284.833,315,316,293,306,892,6616,14656,-79,20,-13
4287.985,315,315,294,307,892,6616,14656,-79,20,-13
4287.985,314,315,294,306,1008,6680,14656,-92,-4,-38
4299.082,314,315,293,306,1008,6680,14656,-92,-4,-38
4302.637,314,314,294,306,1008,6680,14656,-92,-4,-38
4309.886,312,313,295,306,1008,6680,14656,-92,-4,-38
4311.45,312,312,294,305,1008,6680,14656,-92,-4,-38
4321.429,312,311,293,305,1008,6680,14656,-92,-4,-38
4321.429,312,311,294,306,1008,6680,14656,-92,-4,-38
4332.447,312,311,293,305,852,6584,14648,-179,27,-47
4332.447,311,310,292,304,852,6584,14648,-179,27,-47
4342.312,312,310,292,304,852,6584,14648,-179,27,-47
4343.828,311,309,292,304,852,6584,14648,-179,27,-47
4353.989,312,308,291,303,852,6584,14648,-179,27,-47
4353.989,312,308,290,302,852,6584,14648,-179,27,-47
4365.939,312,307,290,302,852,6584,14648,-179,27,-47
4365.939,311,307,290,302,960,6636,14572,-34,6,39
4375.579,311,306,289,301,960,6636,14572,-34,6,39
4377.215,310,305,289,300,960,6636,14572,-34,6,39
4387.184,309,305,289,300,960,6636,14572,-34,6,39
4388.621,308,304,289,300,960,6636,14572,-34,6,39
4392.875,308,304,287,299,960,6636,14572,-34,6,39
4398.74,307,303,287,299,960,6636,14572,-34,6,39
4405.467,306,303,286,299,960,6636,14572,-34,6,39
4410.256,306,302,285,298,920,6668,14688,-103,-21,-51
4420.266,306,302,284,297,920,6668,14688,-103,-21,-51
4421.896,306,302,283,297,920,6668,14688,-103,-21,-51
4421.896,305,302,282,297,920,6668,14688,-103,-21,-51
4432.566,306,302,281,296,920,6668,14688,-103,-21,-51
4439.076,306,301,280,295,920,6668,14688,-103,-21,-51
4443.487,307,301,279,295,920,6668,14688,-103,-21,-51
4446.233,308,301,278,295,960,6640,14596,31,-16,37
4455.519,308,300,277,294,960,6640,14596,31,-16,37
4455.519,308,299,277,294,960,6640,14596,31,-16,37
4466.054,308,300,278,295,960,6640,14596,31,-16,37
4472.06,308,299,277,294,960,6640,14596,31,-16,37
4476.977,308,299,277,295,960,6640,14596,31,-16,37
4476.977,308,298,278,295,960,6640,14596,31,-16,37
4488.149,308,298,278,296,960,6640,14596,31,-16,37
4490.361,308,297,278,295,936,6680,14648,-160,26,-40
4498.198,308,296,279,295,936,6680,14648,-160,26,-40
4499.077,307,296,279,296,936,6680,14648,-160,26,-40
4510.193,307,296,280,296,936,6680,14648,-160,26,-40
4510.193,307,296,280,296,936,6680,14648,-160,26,-40
4521.884,307,296,282,297,936,6680,14648,-160,26,-40
4523.84,308,295,283,298,936,6680,14648,-160,26,-40
4523.84,309,295,284,298,916,6604,14560,-83,55,-4
4534.092,309,294,285,298,916,6604,14560,-83,55,-4
4542.926,310,294,287,298,916,6604,14560,-83,55,-4
4546.794,310,294,289,299,916,6604,14560,-83,55,-4
4555.088,309,294,290,299,916,6604,14560,-83,55,-4
4555.088,310,294,292,299,916,6604,14560,-83,55,-4
4560.664,309,294,294,300,916,6604,14560,-83,55,-4
4565.962,308,294,296,301,916,6604,14560,-83,55,-4
4575.74,308,293,298,301,944,6608,14620,-111,2,16
4577.335,307,293,299,301,944,6608,14620,-111,2,16
4580.771,306,293,301,303,944,6608,14620,-111,2,16
4587.648,304,294,302,303,944,6608,14620,-111,2,16
4593.855,302,294,303,303,944,6608,14620,-111,2,16
4599.368,300,295,304,303,944,6608,14620,-111,2,16
4604.483,298,294,306,304,944,6608,14620,-111,2,16
4612.277,296,295,307,304,896,6656,14636,-93,23,-18
4616.416,294,295,308,305,896,6656,14636,-93,23,-18
4621.086,293,295,309,305,896,6656,14636,-93,23,-18
4625.71,290,295,310,305,896,6656,14636,-93,23,-18
4632.515,289,295,310,306,896,6656,14636,-93,23,-18
4632.515,286,296,310,306,896,6656,14636,-93,23,-18
4644.09,285,297,311,307,896,6656,14636,-93,23,-18
4644.09,283,297,312,308,896,6656,14636,-93,23,-18
4653.725,282,298,312,307,980,6656,14620,-134,19,-20
4656.924,281,298,313,308,980,6656,14620,-134,19,-20
4665.746,280,298,314,308,980,6656,14620,-134,19,-20
4665.746,278,299,314,309,980,6656,14620,-134,19,-20
4677.251,278,300,314,309,980,6656,14620,-134,19,-20
4678.792,276,299,314,309,980,6656,14620,-134,19,-20
4687.297,275,300,315,309,980,6656,14620,-134,19,-20
4688.842,276,300,316,309,936,6556,14680,-169,8,-3
4698.432,276,301,315,309,936,6556,14680,-169,8,-3
4698.721,277,301,316,309,936,6556,14680,-169,8,-3
4710.469,277,301,317,310,936,6556,14680,-169,8,-3
4710.469,278,301,317,310,936,6556,14680,-169,8,-3
4715.919,280,302,317,310,936,6556,14680,-169,8,-3
4721.51,281,303,318,311,936,6556,14680,-169,8,-3
4731.357,282,303,318,311,936,6556,14680,-169,8,-3
4732.98,284,303,317,311,952,6640,14640,-86,1,-31
4732.98,285,303,317,311,952,6640,14640,-86,1,-31
4744.157,288,303,317,311,952,6640,14640,-86,1,-31
4744.157,288,303,317,311,952,6640,14640,-86,1,-31
4754.22,290,304,316,311,952,6640,14640,-86,1,-31
4756.849,293,304,316,311,952,6640,14640,-86,1,-31
4765.896,294,304,316,311,952,6640,14640,-86,1,-31
4769.854,295,304,316,311,932,6656,14632,-130,29,-49
4776.222,297,305,315,311,932,6656,14632,-130,29,-49
4776.941,299,304,315,311,932,6656,14632,-130,29,-49
4788.048,300,304,315,311,932,6656,14632,-130,29,-49
4788.048,302,304,314,310,932,6656,14632,-130,29,-49
4799.336,303,304,314,310,932,6656,14632,-130,29,-49
4802.36,305,304,313,311,932,6656,14632,-130,29,-49
4810.065,305,304,313,311,932,6656,14632,-130,29,-49
4812.113,306,304,312,310,928,6612,14628,-89,10,-44
4821.277,307,304,312,310,928,6612,14628,-89,10,-44
4821.277,307,304,312,310,928,6612,14628,-89,10,-44
4832.463,308,304,312,310,928,6612,14628,-89,10,-44
4834.544,309,304,311,309,928,6612,14628,-89,10,-44
4843.221,309,303,312,310,928,6612,14628,-89,10,-44
4845.093,309,304,312,310,928,6612,14628,-89,10,-44
4854.024,309,304,311,309,952,6564,14640,-69,10,-60
4854.754,310,303,311,309,952,6564,14640,-69,10,-60
4865.802,309,303,312,309,952,6564,14640,-69,10,-60
4867.3,309,303,312,310,952,6564,14640,-69,10,-60
4867.3,310,303,312,309,952,6564,14640,-69,10,-60
4877.566,309,303,312,309,952,6564,14640,-69,10,-60
4886.82,309,303,313,310,952,6564,14640,-69,10,-60
4888.624,309,304,314,310,916,6640,14620,-122,-4,-42
4899.1,309,304,314,309,916,6640,14620,-122,-4,-42
4900.351,309,304,314,309,916,6640,14620,-122,-4,-42
4900.351,310,304,315,310,916,6640,14620,-122,-4,-42
4911.063,310,305,314,309,916,6640,14620,-122,-4,-42
4919.852,312,305,314,309,916,6640,14620,-122,-4,-42
4921.711,312,305,314,309,916,6640,14620,-122,-4,-42
4931.602,313,305,313,309,916,6640,14620,-122,-4,-42
4933.201,313,305,313,309,904,6580,14596,-42,-23,-39
4936.965,313,306,313,308,904,6580,14596,-42,-23,-39
4943.142,314,306,312,308,904,6580,14596,-42,-23,-39
4950.304,315,306,312,308,904,6580,14596,-42,-23,-39
4955.07,315,306,310,307,904,6580,14596,-42,-23,-39
4964.534,315,306,310,307,904,6580,14596,-42,-23,-39
4965.99,316,306,309,307,904,6580,14596,-42,-23,-39
4965.99,316,307,308,306,880,6636,14652,-75,-25,-26
4976.768,316,307,307,305,880,6636,14652,-75,-25,-26
4984.836,316,307,306,305,880,6636,14652,-75,-25,-26
4987.012,316,307,306,305,880,6636,14652,-75,-25,-26
4997.988,316,308,304,304,880,6636,14652,-75,-25,-26
4999.412,317,307,304,304,880,6636,14652,-75,-25,-26
4999.412,317,306,304,304,880,6636,14652,-75,-25,-26
5010.87,316,306,303,304,940,6624,14648,-64,9,-13
5015.923,316,306,302,303,940,6624,14648,-64,9,-13
5020.947,314,306,301,303,940,6624,14648,-64,9,-13
5020.947,314,306,301,303,940,6624,14648,-64,9,-13
5033.376,314,305,300,303,940,6624,14648,-64,9,-13
5033.376,313,305,300,302,940,6624,14648,-64,9,-13
5042.914,312,305,300,302,940,6624,14648,-64,9,-13
5043.65,311,304,300,302,940,6624,14648,-64,9,-13
5054.475,311,305,299,301,924,6552,14688,-115,24,-16
5058.884,310,305,299,302,924,6552,14688,-115,24,-16
5065.773,309,305,299,302,924,6552,14688,-115,24,-16
5068.056,308,305,299,301,924,6552,14688,-115,24,-16
5076.812,308,304,299,301,924,6552,14688,-115,24,-16
5078.487,307,304,299,301,924,6552,14688,-115,24,-16
5087.728,308,304,300,302,924,6552,14688,-115,24,-16
5088.967,307,304,300,301,900,6636,14636,-33,-1,-19
5099.317,306,303,299,301,900,6636,14636,-33,-1,-19
5099.317,306,303,300,301,900,6636,14636,-33,-1,-19
5105.649,304,304,300,302,900,6636,14636,-33,-1,-19
5110.55,304,303,300,301,900,6636,14636,-33,-1,-19
5120.563,303,304,300,301,900,6636,14636,-33,-1,-19
5121.542,303,304,301,302,900,6636,14636,-33,-1,-19
5132.727,302,303,301,302,900,6636,14636,-33,-1,-19
5134.306,303,304,301,301,980,6656,14688,-80,6,-14
5134.306,303,304,301,302,980,6656,14688,-80,6,-14
5143.322,303,304,301,302,980,6656,14688,-80,6,-14
5153.121,302,304,301,302,980,6656,14688,-80,6,-14
5154.726,302,303,301,302,980,6656,14688,-80,6,-14
5158.936,302,304,301,302,980,6656,14688,-80,6,-14
5166.063,302,303,301,303,980,6656,14688,-80,6,-14
5171.379,303,304,302,302,948,6572,14612,-64,11,-21
5177.059,303,304,301,302,948,6572,14612,-64,11,-21
5178.906,302,303,302,303,948,6572,14612,-64,11,-21
5188.432,302,303,302,303,948,6572,14612,-64,11,-21
5188.432,302,303,301,303,948,6572,14612,-64,11,-21
5199.561,302,304,302,303,948,6572,14612,-64,11,-21
5204.207,302,304,302,303,948,6572,14612,-64,11,-21
5209.872,303,304,302,303,948,6572,14612,-64,11,-21
5211.786,303,304,301,303,944,6664,14608,-76,11,-20
5221.598,303,304,302,303,944,6664,14608,-76,11,-20
5221.598,302,304,302,304,944,6664,14608,-76,11,-20
5231.271,302,304,302,304,944,6664,14608,-76,11,-20
5232.815,302,304,301,303,944,6664,14608,-76,11,-20
5243.382,301,304,302,304,944,6664,14608,-76,11,-20
5244.361,301,304,302,304,944,6664,14608,-76,11,-20
5254.99,301,303,302,304,932,6608,14660,-65,-2,-8
5254.99,301,303,302,304,932,6608,14660,-65,-2,-8
5254.99,301,303,303,304,932,6608,14660,-65,-2,-8
5266.228,301,303,303,305,932,6608,14660,-65,-2,-8
5276.179,301,304,303,304,932,6608,14660,-65,-2,-8
5277.07,300,304,303,304,932,6608,14660,-65,-2,-8
5277.07,300,304,303,305,932,6608,14660,-65,-2,-8
5291.78,300,304,304,305,932,6608,14660,-65,-2,-8
5296.04,300,305,304,305,920,6636,14616,-39,-6,-17
5299.314,301,305,304,305,920,6636,14616,-39,-6,-17
5308.634,300,304,305,305,920,6636,14616,-39,-6,-17
5310.096,300,305,305,305,920,6636,14616,-39,-6,-17
5314.27,301,305,305,305,920,6636,14616,-39,-6,-17
5320.913,300,304,305,306,920,6636,14616,-39,-6,-17
5326.361,299,305,305,306,920,6636,14616,-39,-6,-17
5331.897,300,304,305,306,956,6612,14648,-67,-5,-15
5331.897,300,305,305,306,956,6612,14648,-67,-5,-15
5344.47,300,304,305,306,956,6612,14648,-67,-5,-15
5344.47,300,304,305,306,956,6612,14648,-67,-5,-15
5353.996,299,305,305,306,956,6612,14648,-67,-5,-15
5354.727,300,305,305,306,956,6612,14648,-67,-5,-15
5366.271,299,305,305,307,956,6612,14648,-67,-5,-15
5366.271,300,305,305,306,956,6612,14648,-67,-5,-15
5376.899,300,305,305,306,948,6640,14676,-82,39,-32
5379.241,300,305,305,306,948,6640,14676,-82,39,-32
5387.452,301,305,305,307,948,6640,14676,-82,39,-32
5388.323,301,305,305,306,948,6640,14676,-82,39,-32
5398.86,301,305,305,306,948,6640,14676,-82,39,-32
5399.661,302,305,305,306,948,6640,14676,-82,39,-32
5410.546,302,305,305,307,948,6640,14676,-82,39,-32
5412.553,301,305,304,306,928,6568,14612,-40,32,-9
5412.553,302,305,304,306,928,6568,14612,-40,32,-9
5423.234,302,305,304,307,928,6568,14612,-40,32,-9
5431.465,303,305,305,307,928,6568,14612,-40,32,-9
5433.026,304,305,304,306,928,6568,14612,-40,32,-9
5438.897,303,305,303,306,928,6568,14612,-40,32,-9
5444.028,304,305,305,307,928,6568,14612,-40,32,-9
5449.154,304,306,304,306,928,6568,14612,-40,32,-9
5454.686,304,306,304,306,896,6668,14588,-65,-6,-34
5454.686,304,305,304,306,896,6668,14588,-65,-6,-34
5465.985,305,305,304,307,896,6668,14588,-65,-6,-34
5470.223,307,305,303,306,896,6668,14588,-65,-6,-34
5477.352,306,305,303,306,896,6668,14588,-65,-6,-34
5481.756,306,305,303,307,896,6668,14588,-65,-6,-34
5487.571,306,304,304,307,896,6668,14588,-65,-6,-34
5487.571,307,304,303,307,940,6620,14588,-74,4,-36
5499.143,307,305,303,306,940,6620,14588,-74,4,-36
5502.678,307,304,304,307,940,6620,14588,-74,4,-36
5509.811,307,305,303,307,940,6620,14588,-74,4,-36
5511.587,307,305,303,306,940,6620,14588,-74,4,-36
5520.885,308,305,303,306,940,6620,14588,-74,4,-36
5520.885,308,305,304,307,940,6620,14588,-74,4,-36
5528.199,308,305,304,307,940,6620,14588,-74,4,-36
5532.4,309,306,304,306,936,6568,14636,-54,18,-15
5543.01,308,305,304,307,936,6568,14636,-54,18,-15
5544.521,308,305,304,307,936,6568,14636,-54,18,-15
5554.338,308,305,304,307,936,6568,14636,-54,18,-15
5555.9,308,304,304,307,936,6568,14636,-54,18,-15
5555.9,308,305,304,307,936,6568,14636,-54,18,-15
5570.944,307,304,305,307,936,6568,14636,-54,18,-15
5572.146,307,304,304,307,936,6580,14680,-52,3,-17
5577.258,306,304,304,306,936,6580,14680,-52,3,-17
5577.258,306,305,305,307,936,6580,14680,-52,3,-17
5588.016,306,304,304,307,936,6580,14680,-52,3,-17
5592.922,306,304,304,306,936,6580,14680,-52,3,-17
5599.231,306,304,304,306,936,6580,14680,-52,3,-17
5600.751,306,304,304,307,936,6580,14680,-52,3,-17
5611.276,306,304,303,306,936,6580,14680,-52,3,-17
5611.276,306,304,303,305,932,6624,14632,-41,-9,-5
5620.393,305,305,303,306,932,6624,14632,-41,-9,-5
5628.206,305,305,303,306,932,6624,14632,-41,-9,-5
5631.82,305,304,303,306,932,6624,14632,-41,-9,-5
5636.504,305,305,302,305,932,6624,14632,-41,-9,-5
5644.173,305,304,303,305,932,6624,14632,-41,-9,-5
5645.496,304,305,302,305,932,6624,14632,-41,-9,-5
5645.496,304,305,302,305,876,6588,14636,-22,-15,-26
5655.589,304,304,301,305,876,6588,14636,-22,-15,-26
5664.853,304,305,302,305,876,6588,14636,-22,-15,-26
5665.591,304,305,301,305,876,6588,14636,-22,-15,-26
5676.619,304,305,301,305,876,6588,14636,-22,-15,-26
5676.619,304,305,301,304,876,6588,14636,-22,-15,-26
5683.731,305,305,301,305,876,6588,14636,-22,-15,-26
5688.009,305,305,301,305,876,6588,14636,-22,-15,-26
5697.761,305,305,300,304,968,6596,14664,-45,-34,-32
5699.021,306,305,300,305,968,6596,14664,-45,-34,-32
5710.19,306,305,300,305,968,6596,14664,-45,-34,-32
5711.603,307,305,299,304,968,6596,14664,-45,-34,-32
5711.603,307,305,299,304,968,6596,14664,-45,-34,-32
5721.928,307,305,299,305,968,6596,14664,-45,-34,-32
5728.169,308,304,299,304,968,6596,14664,-45,-34,-32
5732.73,310,304,298,303,976,6560,14636,34,-39,1
5742.673,309,304,298,304,976,6560,14636,34,-39,1
5744.634,309,304,298,304,976,6560,14636,34,-39,1
5744.634,310,305,297,304,976,6560,14636,34,-39,1
5754.821,310,305,296,303,976,6560,14636,34,-39,1
5762.873,310,304,296,303,976,6560,14636,34,-39,1
5765.83,310,304,296,303,976,6560,14636,34,-39,1
5765.83,309,304,296,303,976,6560,14636,34,-39,1
5776.068,310,304,295,302,936,6580,14656,-1,-3,31
5776.749,310,303,295,302,936,6580,14656,-1,-3,31
5788.026,310,303,295,302,936,6580,14656,-1,-3,31
5788.026,309,302,295,302,936,6580,14656,-1,-3,31
5794.685,308,302,294,301,936,6580,14656,-1,-3,31
5799.049,309,302,294,302,936,6580,14656,-1,-3,31
5806.131,308,302,295,302,936,6580,14656,-1,-3,31
5810.438,308,301,294,301,968,6664,14660,22,8,2
5813.711,308,300,294,301,968,6664,14660,22,8,2
5821.153,308,300,294,301,968,6664,14660,22,8,2
5821.873,307,300,295,301,968,6664,14660,22,8,2
5832.502,307,301,294,301,968,6664,14660,22,8,2
5832.502,307,300,294,301,968,6664,14660,22,8,2
5839.271,307,300,295,301,968,6664,14660,22,8,2
5843.56,306,299,296,301,968,6664,14660,22,8,2
5853.588,306,299,295,301,968,6664,14660,22,8,2
5855.194,306,299,295,301,1000,6604,14624,-29,5,-19
5855.194,307,299,296,301,1000,6604,14624,-29,5,-19
5865.942,306,299,297,301,1000,6604,14624,-29,5,-19
5872.54,306,299,296,301,1000,6604,14624,-29,5,-19
5877.036,306,299,296,300,1000,6604,14624,-29,5,-19
5879.379,305,299,296,301,1000,6604,14624,-29,5,-19
5888.526,305,299,296,301,1000,6604,14624,-29,5,-19
5894.67,305,299,296,301,924,6616,14624,-20,-18,-19
5899.377,305,299,296,300,924,6616,14624,-20,-18,-19
5904.713,305,299,296,301,924,6616,14624,-20,-18,-19
5909.773,305,299,296,301,924,6616,14624,-20,-18,-19
5912.079,305,300,296,300,924,6616,14624,-20,-18,-19
5922.275,304,300,296,300,924,6616,14624,-20,-18,-19
5922.275,304,300,296,301,924,6616,14624,-20,-18,-19
5932.523,303,300,296,301,952,6676,14600,-88,-5,-56
5938.346,303,300,295,300,952,6676,14600,-88,-5,-56
5943.272,304,300,296,301,952,6676,14600,-88,-5,-56
5944.977,304,301,295,301,952,6676,14600,-88,-5,-56
5954.309,304,301,295,300,952,6676,14600,-88,-5,-56
5954.309,304,301,294,300,952,6676,14600,-88,-5,-56
5964.694,304,302,295,301,952,6676,14600,-88,-5,-56
5966.208,305,302,294,301,952,6676,14600,-88,-5,-56
5976.639,306,302,294,300,960,6608,14688,-82,-6,-67
5976.639,307,302,294,301,960,6608,14688,-82,-6,-67
5987.878,308,302,294,301,960,6608,14688,-82,-6,-67
5987.878,308,302,293,301,960,6608,14688,-82,-6,-67
5994.663,309,303,293,301,960,6608,14688,-82,-6,-67
5999.226,310,303,293,301,960,6608,14688,-82,-6,-67
6009.945,311,304,293,301,960,6608,14688,-82,-6,-67
6011.653,312,304,293,301,960,6660,14600,-126,17,-43
6021.217,313,305,292,301,960,6660,14600,-126,17,-43
6021.522,313,305,292,302,960,6660,14600,-126,17,-43
6021.522,315,305,292,302,960,6660,14600,-126,17,-43
6032.683,315,305,291,301,960,6660,14600,-126,17,-43
6042.34,315,305,292,302,960,6660,14600,-126,17,-43
6043.891,314,305,292,302,960,6660,14600,-126,17,-43
6054.333,315,305,292,302,960,6660,14600,-126,17,-43
6055.755,315,305,292,301,936,6632,14692,-102,28,-41
6055.755,315,305,293,302,936,6632,14692,-102,28,-41
6066.166,315,305,293,302,936,6632,14692,-102,28,-41
6075.399,316,304,293,301,936,6632,14692,-102,28,-41
6078.562,316,304,293,301,936,6632,14692,-102,28,-41
6086.705,316,304,294,302,936,6632,14692,-102,28,-41
6088.13,315,303,294,302,936,6632,14692,-102,28,-41
6099.053,315,303,294,301,920,6700,14636,-111,62,-58
6099.281,314,303,295,302,920,6700,14636,-111,62,-58
6099.281,314,303,295,302,920,6700,14636,-111,62,-58
6110.245,314,303,295,301,920,6700,14636,-111,62,-58
6117.16,313,303,295,301,920,6700,14636,-111,62,-58
6121.808,312,302,296,301,920,6700,14636,-111,62,-58
6131.91,311,302,296,301,920,6700,14636,-111,62,-58
6133.727,310,302,296,301,924,6604,14684,-173,29,-48
6133.727,309,302,296,301,924,6604,14684,-173,29,-48
6143.647,308,302,297,301,924,6604,14684,-173,29,-48
6150.248,307,302,297,301,924,6604,14684,-173,29,-48
6154.995,307,302,297,300,924,6604,14684,-173,29,-48
6164.94,306,301,297,300,924,6604,14684,-173,29,-48
6166.326,305,301,297,301,924,6604,14684,-173,29,-48
6169.837,303,301,297,301,936,6544,14668,-142,55,-42
6176.573,302,301,297,300,936,6544,14668,-142,55,-42
6182.669,301,301,298,301,936,6544,14668,-142,55,-42
6188.151,300,301,298,301,936,6544,14668,-142,55,-42
6197.719,299,301,298,300,936,6544,14668,-142,55,-42
6199.354,298,301,298,300,936,6544,14668,-142,55,-42
6203.576,297,301,299,300,936,6544,14668,-142,55,-42
6210.669,296,300,299,300,936,6544,14668,-142,55,-42
6214.835,294,300,298,299,908,6344,14744,-45,227,-3
6220.832,292,300,300,300,908,6344,14744,-45,227,-3
6220.832,291,300,300,301,908,6344,14744,-45,227,-3
6232.814,289,300,301,301,908,6344,14744,-45,227,-3
6232.814,287,299,302,301,908,6344,14744,-45,227,-3
6244.484,285,300,304,302,908,6344,14744,-45,227,-3
6244.484,283,299,306,302,908,6344,14744,-45,227,-3
6254.545,281,299,308,302,1008,7164,14572,724,145,-11
6262.606,279,299,312,303,1008,7164,14572,724,145,-11
6265.917,278,299,315,303,1008,7164,14572,724,145,-11
6268.164,277,299,318,304,1008,7164,14572,724,145,-11
6277.043,276,299,321,304,1008,7164,14572,724,145,-11
6277.043,276,299,325,305,1008,7164,14572,724,145,-11
6288.034,274,299,328,305,1008,7164,14572,724,145,-11
6294.455,273,299,331,305,688,6100,15268,77,228,-242
6299.036,272,298,334,306,688,6100,15268,77,228,-242
6301.289,270,299,336,306,688,6100,15268,77,228,-242
6310.143,269,299,337,306,688,6100,15268,77,228,-242
6310.143,269,299,339,306,688,6100,15268,77,228,-242
6321.466,269,299,341,305,688,6100,15268,77,228,-242
6326.452,269,299,342,307,688,6100,15268,77,228,-242
6332.199,268,299,342,306,688,6100,15268,77,228,-242
6332.199,268,299,342,307,944,6700,15212,289,695,-326
6343.176,267,300,343,308,944,6700,15212,289,695,-326
6352.961,266,301,344,308,944,6700,15212,289,695,-326
6354.898,265,301,343,308,944,6700,15212,289,695,-326
6354.898,264,302,343,309,944,6700,15212,289,695,-326
6365.699,264,302,343,310,944,6700,15212,289,695,-326
6370.832,264,303,341,308,944,6700,15212,289,695,-326
6376.355,265,304,339,307,920,7524,16124,801,1506,-868
6376.355,265,305,336,307,920,7524,16124,801,1506,-868
6388.244,265,306,336,307,920,7524,16124,801,1506,-868
6398.158,265,307,332,308,920,7524,16124,801,1506,-868
6399.404,266,309,331,312,920,7524,16124,801,1506,-868
6407.407,265,311,327,317,920,7524,16124,801,1506,-868
6409.712,265,313,323,320,920,7524,16124,801,1506,-868
6415.989,264,315,319,325,1652,9516,18592,886,3502,-1580
6421.669,262,316,314,330,1652,9516,18592,886,3502,-1580
6431.15,262,316,311,331,1652,9516,18592,886,3502,-1580
6432.581,262,316,306,333,1652,9516,18592,886,3502,-1580
6443.544,261,314,302,335,1652,9516,18592,886,3502,-1580
6451.621,258,312,299,337,1652,9516,18592,886,3502,-1580
6454.412,256,310,293,337,2000,10340,22468,2186,7513,-4304
6463.423,255,310,289,338,2000,10340,22468,2186,7513,-4304
6465.996,254,312,306,338,2000,10340,22468,2186,7513,-4304
6476.131,254,315,328,337,2000,10340,22468,2186,7513,-4304
6477.012,256,320,345,337,2000,10340,22468,2186,7513,-4304
6488.259,259,325,358,339,2000,10340,22468,2186,7513,-4304
6488.259,262,338,364,340,2000,10340,22468,2186,7513,-4304
6499.146,271,369,360,339,520,11204,20920,2399,14653,-7577
6499.146,289,401,352,342,520,11204,20920,2399,14653,-7577
6510.375,311,422,348,346,520,11204,20920,2399,14653,-7577
6520.957,340,446,352,348,520,11204,20920,2399,14653,-7577
6522.042,373,477,358,350,520,11204,20920,2399,14653,-7577
6531.933,408,509,369,352,520,11204,20920,2399,14653,-7577
6531.933,446,547,385,352,724,11148,17836,3253,18170,-10045
6544.016,482,588,396,352,724,11148,17836,3253,18170,-10045
6547.141,507,617,409,353,724,11148,17836,3253,18170,-10045
6554.939,537,648,435,353,724,11148,17836,3253,18170,-10045
6558.912,558,657,459,353,724,11148,17836,3253,18170,-10045
6565.434,575,655,481,353,724,11148,17836,3253,18170,-10045
6576.82,591,637,499,351,-696,9704,13888,2429,19018,-11395
6579.856,600,602,517,349,-696,9704,13888,2429,19018,-11395
6589.382,599,572,532,350,-696,9704,13888,2429,19018,-11395
6594.791,595,548,540,352,-696,9704,13888,2429,19018,-11395
6599.411,586,531,539,354,-696,9704,13888,2429,19018,-11395
6607.477,574,516,530,359,-696,9704,13888,2429,19018,-11395
6609.93,561,505,517,361,-696,9704,13888,2429,19018,-11395
6620.743,545,495,501,362,-2584,6952,10456,-1739,19594,-13433
6625.256,519,483,479,368,-2584,6952,10456,-1739,19594,-13433
6633.626,499,471,463,372,-2584,6952,10456,-1739,19594,-13433
6636.852,478,457,447,375,-2584,6952,10456,-1739,19594,-13433
6643.218,449,439,429,378,-2584,6952,10456,-1739,19594,-13433
6655.183,419,420,409,381,-2584,6952,10456,-1739,19594,-13433
6655.183,392,401,392,380,-5364,3944,8712,-4838,17530,-12492
6665.849,361,379,372,380,-5364,3944,8712,-4838,17530,-12492
6665.849,336,361,355,379,-5364,3944,8712,-4838,17530,-12492
6676.994,304,338,333,377,-5364,3944,8712,-4838,17530,-12492
6687.985,278,319,315,375,-5364,3944,8712,-4838,17530,-12492
6690.038,248,299,292,371,-5364,3944,8712,-4838,17530,-12492
6700.13,222,281,275,369,-8592,2840,8180,-6477,15005,-10901
6700.13,193,262,255,366,-8592,2840,8180,-6477,15005,-10901
6710.492,172,249,236,361,-8592,2840,8180,-6477,15005,-10901
6720.96,148,236,220,359,-8592,2840,8180,-6477,15005,-10901
6722.832,129,226,207,357,-8592,2840,8180,-6477,15005,-10901
6732.136,109,212,191,352,-8592,2840,8180,-6477,15005,-10901
6735.026,95,200,176,347,-10688,1692,8428,-5746,12269,-9342
6743.994,78,189,169,344,-10688,1692,8428,-5746,12269,-9342
6747.563,65,176,160,341,-10688,1692,8428,-5746,12269,-9342
6754.335,55,165,155,339,-10688,1692,8428,-5746,12269,-9342
6765.256,46,152,151,338,-10688,1692,8428,-5746,12269,-9342
6765.256,35,141,148,335,-10688,1692,8428,-5746,12269,-9342
6776.882,27,133,145,332,-11188,1848,9040,-2656,9541,-7478
6780.687,18,125,145,330,-11188,1848,9040,-2656,9541,-7478
6788.874,11,118,143,328,-11188,1848,9040,-2656,9541,-7478
6792.311,6,111,140,323,-11188,1848,9040,-2656,9541,-7478
6798.798,5,106,140,320,-11188,1848,9040,-2656,9541,-7478
6805.918,8,104,139,319,-11188,1848,9040,-2656,9541,-7478
6810.182,14,105,141,316,-11188,1848,9040,-2656,9541,-7478
6820.296,21,108,145,313,-11552,2788,8340,219,7397,-6651
6821.942,26,111,147,308,-11552,2788,8340,219,7397,-6651
6832.585,31,115,148,304,-11552,2788,8340,219,7397,-6651
6833.384,36,119,150,299,-11552,2788,8340,219,7397,-6651
6843.745,42,124,152,294,-11552,2788,8340,219,7397,-6651
6851.778,47,128,152,288,-11552,2788,8340,219,7397,-6651
6854.921,53,133,153,282,-12396,2012,8204,-2440,6868,-5508
6864.943,57,137,156,277,-12396,2012,8204,-2440,6868,-5508
6866.86,64,143,158,270,-12396,2012,8204,-2440,6868,-5508
6877.136,74,149,161,261,-12396,2012,8204,-2440,6868,-5508
6877.136,81,152,164,254,-12396,2012,8204,-2440,6868,-5508
6888.639,87,156,167,247,-12396,2012,8204,-2440,6868,-5508
6888.639,90,159,169,240,-12396,2012,8204,-2440,6868,-5508
6899.534,98,164,176,232,-13124,1164,8156,-4211,6193,-4921
6904.564,106,170,179,226,-13124,1164,8156,-4211,6193,-4921
6910.443,115,176,183,221,-13124,1164,8156,-4211,6193,-4921
6916.846,125,180,187,213,-13124,1164,8156,-4211,6193,-4921
6921.017,133,186,190,209,-13124,1164,8156,-4211,6193,-4921
6932.522,143,193,191,204,-13124,1164,8156,-4211,6193,-4921
6936.3,151,201,194,198,-13504,1512,8840,-4758,5409,-4157
6943.935,157,209,199,193,-13504,1512,8840,-4758,5409,-4157
6948.299,163,216,202,190,-13504,1512,8840,-4758,5409,-4157
6954.23,172,225,201,183,-13504,1512,8840,-4758,5409,-4157
6961.542,180,232,194,177,-13504,1512,8840,-4758,5409,-4157
6966.426,190,240,190,168,-13504,1512,8840,-4758,5409,-4157
6975.7,200,247,189,161,-13784,292,7884,-1699,4716,-3621
6977.119,212,253,189,155,-13784,292,7884,-1699,4716,-3621
6988.3,219,257,187,149,-13784,292,7884,-1699,4716,-3621
6993.751,230,265,191,142,-13784,292,7884,-1699,4716,-3621
6999.102,238,270,194,137,-13784,292,7884,-1699,4716,-3621
7009.113,248,275,197,134,-13784,292,7884,-1699,4716,-3621
7010.604,258,274,200,129,-13784,292,7884,-1699,4716,-3621
7020.566,267,268,203,124,-14324,-260,7008,-526,3950,-2360
7021.286,274,264,206,119,-14324,-260,7008,-526,3950,-2360
7032.834,280,261,211,118,-14324,-260,7008,-526,3950,-2360
7040.888,289,258,212,116,-14324,-260,7008,-526,3950,-2360
7043.754,298,251,218,118,-14324,-260,7008,-526,3950,-2360
7053.285,307,240,219,117,-14324,-260,7008,-526,3950,-2360
7054.527,315,228,219,116,-14324,-672,6704,-1939,3721,-1942
7065.673,326,218,222,116,-14324,-672,6704,-1939,3721,-1942
7065.673,336,211,224,116,-14324,-672,6704,-1939,3721,-1942
7077.886,346,208,227,116,-14324,-672,6704,-1939,3721,-1942
7085.919,359,210,231,116,-14324,-672,6704,-1939,3721,-1942
7088.572,369,212,231,115,-14324,-672,6704,-1939,3721,-1942
7098.434,376,216,236,116,-14324,-672,6704,-1939,3721,-1942
7102.9,384,220,242,118,-14272,132,5988,-842,2949,-1568
7110.325,389,223,244,118,-14272,132,5988,-842,2949,-1568
7110.325,393,224,249,120,-14272,132,5988,-842,2949,-1568
7121.613,394,222,251,118,-14272,132,5988,-842,2949,-1568
7121.613,396,219,255,117,-14272,132,5988,-842,2949,-1568
7132.953,399,216,258,116,-14272,132,5988,-842,2949,-1568
7132.953,402,216,262,110,-14708,552,7212,-787,2449,-1673
7143.309,402,217,264,104,-14708,552,7212,-787,2449,-1673
7143.309,404,218,268,92,-14708,552,7212,-787,2449,-1673
7154.869,404,222,271,65,-14708,552,7212,-787,2449,-1673
7164.437,404,227,273,14,-14708,552,7212,-787,2449,-1673
7166.063,406,234,278,0,-14708,552,7212,-787,2449,-1673
7175.565,404,237,281,0,-14708,552,7212,-787,2449,-1673
7175.565,402,243,282,0,-14800,-68,6384,-325,1466,-1280
7186.8,403,251,286,0,-14800,-68,6384,-325,1466,-1280
7190.917,403,256,288,0,-14800,-68,6384,-325,1466,-1280
7198.898,402,263,290,0,-14800,-68,6384,-325,1466,-1280
7201.984,400,269,292,0,-14800,-68,6384,-325,1466,-1280
7210.877,401,276,295,0,-14800,-68,6384,-325,1466,-1280
7214.087,402,283,297,0,-14900,-476,6508,-707,1224,-1371
7221.03,403,288,300,0,-14900,-476,6508,-707,1224,-1371
7227.444,403,295,303,0,-14900,-476,6508,-707,1224,-1371
7232.649,406,302,305,0,-14900,-476,6508,-707,1224,-1371
7242.149,406,307,307,0,-14900,-476,6508,-707,1224,-1371
7244.126,406,312,310,0,-14900,-476,6508,-707,1224,-1371
7254.148,408,319,311,0,-14900,-476,6508,-707,1224,-1371
7255.788,411,324,316,0,-15064,-820,6232,-438,524,-674
7265.687,411,328,318,0,-15064,-820,6232,-438,524,-674
7265.687,411,329,318,0,-15064,-820,6232,-438,524,-674
7276.761,411,332,316,0,-15064,-820,6232,-438,524,-674
7280.338,411,334,319,7,-15064,-820,6232,-438,524,-674
7287.481,410,338,320,13,-15064,-820,6232,-438,524,-674
7287.787,411,340,321,21,-15064,-820,6232,-438,524,-674
7299.146,413,343,324,31,-14984,236,7356,487,233,-295
7307.229,412,346,326,44,-14984,236,7356,487,233,-295
7310.125,414,348,329,55,-14984,236,7356,487,233,-295
7310.125,414,350,330,63,-14984,236,7356,487,233,-295
7321.535,416,354,334,77,-14984,236,7356,487,233,-295
7326.156,416,354,334,87,-14984,236,7356,487,233,-295
7332.242,416,354,337,100,-14984,236,7356,487,233,-295
7337.238,417,355,339,112,-14852,200,6428,1317,77,-19
7342.998,416,357,341,126,-14852,200,6428,1317,77,-19
7345.44,416,356,342,137,-14852,200,6428,1317,77,-19
7355.596,416,357,344,149,-14852,200,6428,1317,77,-19
7355.596,413,359,345,158,-14852,200,6428,1317,77,-19
7365.653,411,360,347,172,-14852,200,6428,1317,77,-19
7370.517,410,362,349,185,-14852,200,6428,1317,77,-19
7376.637,409,361,350,194,-14876,12,6888,561,-131,217
7382.271,407,362,351,207,-14876,12,6888,561,-131,217
7387.477,406,361,352,216,-14876,12,6888,561,-131,217
7397.963,404,362,353,227,-14876,12,6888,561,-131,217
7399.539,401,361,355,238,-14876,12,6888,561,-131,217
7399.539,399,361,356,248,-14876,12,6888,561,-131,217
7410.304,396,359,357,257,-14876,12,6888,561,-131,217
7416.639,393,359,358,266,-14796,540,7096,338,170,50
7421.421,391,359,358,277,-14796,540,7096,338,170,50
7421.421,388,360,360,286,-14796,540,7096,338,170,50
7433.196,385,357,360,292,-14796,540,7096,338,170,50
7433.196,384,356,361,300,-14796,540,7096,338,170,50
7443.686,384,358,362,309,-14796,540,7096,338,170,50
7449.947,379,356,363,316,-14796,540,7096,338,170,50
7454.401,379,354,362,321,-14796,540,7096,338,170,50
7456.525,376,355,363,330,-14732,104,6784,765,276,-386
7466.496,375,356,366,339,-14732,104,6784,765,276,-386
7475.485,374,355,367,346,-14732,104,6784,765,276,-386
7477.051,371,353,366,352,-14732,104,6784,765,276,-386
7487.518,370,353,367,359,-14732,104,6784,765,276,-386
7488.995,368,353,366,365,-14732,104,6784,765,276,-386
7492.846,366,351,367,372,-14732,104,6784,765,276,-386
7498.728,363,350,368,380,-14956,96,7028,850,126,-402
7506.201,361,347,367,384,-14956,96,7028,850,126,-402
7510.295,360,346,367,388,-14956,96,7028,850,126,-402
7520.625,359,345,368,395,-14956,96,7028,850,126,-402
7521.312,358,344,367,399,-14956,96,7028,850,126,-402
7532.472,356,342,366,404,-14956,96,7028,850,126,-402
7534.379,354,339,366,406,-14956,96,7028,850,126,-402
7541.823,352,339,366,410,-14828,-64,6656,68,-142,-33
7543.309,350,339,366,414,-14828,-64,6656,68,-142,-33
7553.278,349,339,365,416,-14828,-64,6656,68,-142,-33
7554.901,346,337,364,418,-14828,-64,6656,68,-142,-33
7565.575,343,335,364,422,-14828,-64,6656,68,-142,-33
7565.575,343,334,362,422,-14828,-64,6656,68,-142,-33
7576.367,342,335,363,424,-14828,-64,6656,68,-142,-33
7576.367,341,334,363,427,-14900,8,7216,-402,-85,325
7586.564,337,332,362,428,-14900,8,7216,-402,-85,325
7588.242,337,332,362,429,-14900,8,7216,-402,-85,325
7598.332,337,333,361,430,-14900,8,7216,-402,-85,325
7599.617,335,332,361,432,-14900,8,7216,-402,-85,325
7610.721,333,331,361,431,-14900,8,7216,-402,-85,325
7611.812,332,329,359,432,-14900,8,7216,-402,-85,325
7619.815,332,327,358,432,-14896,320,7200,-96,-41,488
7622.394,328,325,358,434,-14896,320,7200,-96,-41,488
7631.321,329,326,358,435,-14896,320,7200,-96,-41,488
7632.863,328,325,356,434,-14896,320,7200,-96,-41,488
7643.545,327,323,356,434,-14896,320,7200,-96,-41,488
7643.545,325,323,355,435,-14896,320,7200,-96,-41,488
7654.893,324,320,355,435,-14896,320,7200,-96,-41,488
7654.893,323,320,353,434,-14868,508,7300,347,22,141
7664.178,322,320,353,436,-14868,508,7300,347,22,141
7665.813,321,320,352,436,-14868,508,7300,347,22,141
7676.549,321,320,351,435,-14868,508,7300,347,22,141
7677.482,320,318,350,434,-14868,508,7300,347,22,141
7687.224,319,317,349,433,-14868,508,7300,347,22,141
7689.431,319,317,348,434,-14868,508,7300,347,22,141
7697.616,320,317,348,433,-14780,476,6912,601,87,-128
7699.089,319,316,348,433,-14780,476,6912,601,87,-128
7709.073,317,315,346,432,-14780,476,6912,601,87,-128
7710.663,318,316,345,432,-14780,476,6912,601,87,-128
7721.141,318,316,345,432,-14780,476,6912,601,87,-128
7721.141,316,315,344,431,-14780,476,6912,601,87,-128
7732.445,313,312,343,429,-14780,476,6912,601,87,-128
7732.445,312,311,341,428,-14780,476,6912,601,87,-128
7742.28,314,312,342,428,-14972,212,7072,26,-84,-111
7743.695,315,313,341,428,-14972,212,7072,26,-84,-111
7753.96,315,313,339,427,-14972,212,7072,26,-84,-111
7754.637,313,312,338,424,-14972,212,7072,26,-84,-111
7765.566,313,312,338,426,-14972,212,7072,26,-84,-111
7765.566,314,313,337,425,-14972,212,7072,26,-84,-111
7777.544,313,313,334,422,-14972,212,7072,26,-84,-111
7779.368,313,312,335,424,-14864,320,7108,97,-343,67
7787.154,313,311,334,422,-14864,320,7108,97,-343,67
7788.221,312,310,333,421,-14864,320,7108,97,-343,67
7799.088,312,311,332,421,-14864,320,7108,97,-343,67
7807.091,311,311,331,420,-14864,320,7108,97,-343,67
7810.002,310,311,333,421,-14864,320,7108,97,-343,67
7810.002,308,310,332,421,-14864,320,7108,97,-343,67
7821.649,309,309,332,421,-14976,316,7220,160,-392,131
7825.076,308,308,332,420,-14976,316,7220,160,-392,131
7831.758,307,309,330,418,-14976,316,7220,160,-392,131
7833.858,306,309,331,419,-14976,316,7220,160,-392,131
7843.856,306,310,331,420,-14976,316,7220,160,-392,131
7844.559,304,310,331,420,-14976,316,7220,160,-392,131
7854.431,304,310,331,419,-14976,316,7220,160,-392,131
7854.431,304,311,331,418,-14744,576,7140,489,-223,34
7866.297,303,311,331,419,-14744,576,7140,489,-223,34
7870.387,303,311,331,418,-14744,576,7140,489,-223,34
7877.616,302,310,330,419,-14744,576,7140,489,-223,34
7881.752,301,309,331,419,-14744,576,7140,489,-223,34
7887.643,299,308,331,419,-14744,576,7140,489,-223,34
7897.797,297,307,330,418,-14744,576,7140,489,-223,34
7899.207,298,307,331,419,-14872,640,7292,175,-189,-50
7909.411,296,305,331,419,-14872,640,7292,175,-189,-50
7910.761,296,306,331,418,-14872,640,7292,175,-189,-50
7910.761,294,306,331,418,-14872,640,7292,175,-189,-50
7921.446,292,305,332,418,-14872,640,7292,175,-189,-50
7927.646,293,305,332,419,-14872,640,7292,175,-189,-50
7932.656,294,305,332,419,-14872,640,7292,175,-189,-50
7942.19,293,304,331,418,-14728,548,7384,279,27,-173
7943.583,293,303,332,419,-14728,548,7384,279,27,-173
7954.639,292,302,332,418,-14728,548,7384,279,27,-173
7954.639,293,301,332,418,-14728,548,7384,279,27,-173
7961.197,292,301,333,419,-14728,548,7384,279,27,-173
7965.863,292,300,332,419,-14728,548,7384,279,27,-173
7976.136,291,299,331,416,-14728,548,7384,279,27,-173
7978.006,291,300,333,418,-14800,388,7088,-34,76,-32
7987.585,290,300,333,419,-14800,388,7088,-34,76,-32
7989.033,288,300,334,418,-14800,388,7088,-34,76,-32
7999.277,288,300,333,416,-14800,388,7088,-34,76,-32
7999.277,289,301,332,417,-14800,388,7088,-34,76,-32
8008.934,288,302,333,418,-14800,388,7088,-34,76,-32
8010.497,288,303,332,417,-14800,388,7088,-34,76,-32
8020.774,287,304,331,416,-14848,348,7124,-12,-41,18
8022.562,286,305,332,417,-14848,348,7124,-12,-41,18
8032.555,286,306,330,415,-14848,348,7124,-12,-41,18
8034.223,286,308,328,414,-14848,348,7124,-12,-41,18
8034.223,286,310,329,414,-14848,348,7124,-12,-41,18
8044.153,286,312,330,415,-14848,348,7124,-12,-41,18
8053.181,284,313,329,413,-14848,348,7124,-12,-41,18
8055.455,284,313,328,412,-14848,348,7124,-12,-41,18
8065.335,284,311,328,413,-14888,348,7044,-128,-76,134
8066.045,283,308,328,412,-14888,348,7044,-128,-76,134
8076.471,284,305,325,411,-14888,348,7044,-128,-76,134
8076.471,284,302,327,412,-14888,348,7044,-128,-76,134
8083.832,283,298,327,411,-14888,348,7044,-128,-76,134
8088.536,281,294,326,408,-14888,348,7044,-128,-76,134
8098.192,283,295,327,410,-14888,348,7044,-128,-76,134
8099.771,283,295,327,409,-14804,556,7268,164,-224,87
8110.131,281,294,326,409,-14804,556,7268,164,-224,87
8110.131,282,294,326,407,-14804,556,7268,164,-224,87
8122.519,282,294,326,409,-14804,556,7268,164,-224,87
8123.497,283,294,325,408,-14804,556,7268,164,-224,87
8131.983,284,294,323,407,-14804,556,7268,164,-224,87
8133.504,284,294,323,405,-14804,556,7268,164,-224,87
8143.466,284,294,324,406,-14764,620,7292,272,-142,-56
8143.466,284,293,323,406,-14764,620,7292,272,-142,-56
8154.643,283,293,321,405,-14764,620,7292,272,-142,-56
8154.643,283,293,320,403,-14764,620,7292,272,-142,-56
8165.899,285,295,320,404,-14764,620,7292,272,-142,-56
8169.07,284,294,319,403,-14764,620,7292,272,-142,-56
8177.673,284,294,319,402,-14764,620,7292,272,-142,-56
8180.772,284,295,317,400,-14752,312,7320,-143,-70,-50
8187.605,283,296,317,402,-14752,312,7320,-143,-70,-50
8194.236,283,295,316,400,-14752,312,7320,-143,-70,-50
8199.485,284,297,315,400,-14752,312,7320,-143,-70,-50
8208.836,285,299,315,398,-14752,312,7320,-143,-70,-50
8210.407,287,299,315,398,-14752,312,7320,-143,-70,-50
8220.888,287,298,312,397,-14752,312,7320,-143,-70,-50
8221.43,287,299,312,397,-14756,656,7344,-32,-4,-82
8226.073,287,300,312,397,-14756,656,7344,-32,-4,-82
8232.146,284,298,311,395,-14756,656,7344,-32,-4,-82
8239.426,284,299,310,395,-14756,656,7344,-32,-4,-82
8243.781,285,300,307,392,-14756,656,7344,-32,-4,-82
8253.892,287,302,308,393,-14756,656,7344,-32,-4,-82
8255.699,289,304,308,393,-14756,656,7344,-32,-4,-82
8255.699,288,304,308,393,-14820,268,7332,-214,95,-151
8265.968,290,306,308,391,-14820,268,7332,-214,95,-151
8272.221,289,307,307,391,-14820,268,7332,-214,95,-151
8276.961,290,308,306,390,-14820,268,7332,-214,95,-151
8286.875,291,308,306,390,-14820,268,7332,-214,95,-151
8289.028,290,306,304,390,-14820,268,7332,-214,95,-151
8298.406,287,301,305,389,-14820,268,7332,-214,95,-151
8300.265,288,301,305,387,-14760,384,7236,-95,18,-90
8310.866,291,300,303,387,-14760,384,7236,-95,18,-90
8310.866,291,302,304,387,-14760,384,7236,-95,18,-90
8316.566,291,301,304,388,-14760,384,7236,-95,18,-90
8321.528,291,300,303,386,-14760,384,7236,-95,18,-90
8331.674,291,300,303,386,-14760,384,7236,-95,18,-90
8332.605,293,300,303,385,-14760,384,7236,-95,18,-90
8343.596,294,300,303,385,-14704,320,7228,-282,172,-24
8344.883,294,299,302,385,-14704,320,7228,-282,172,-24
8352.977,294,297,302,383,-14704,320,7228,-282,172,-24
8355.22,294,298,302,383,-14704,320,7228,-282,172,-24
8364.711,292,297,302,383,-14704,320,7228,-282,172,-24
8366.244,292,296,300,381,-14704,320,7228,-282,172,-24
8376.85,294,298,300,382,-14704,320,7228,-282,172,-24
8376.85,294,297,300,382,-14872,588,7260,-136,246,-32
8388.003,294,297,301,379,-14872,588,7260,-136,246,-32
8388.003,296,298,300,379,-14872,588,7260,-136,246,-32
8399.125,295,298,301,380,-14872,588,7260,-136,246,-32
8402.683,296,297,301,380,-14872,588,7260,-136,246,-32
8410.894,297,297,300,379,-14872,588,7260,-136,246,-32
8414.255,298,297,300,377,-14872,588,7260,-136,246,-32
8421.235,298,298,300,378,-14872,348,7024,50,153,-71
8423.016,298,298,299,377,-14872,348,7024,50,153,-71
8433.9,298,298,299,376,-14872,348,7024,50,153,-71
8438.107,298,297,298,375,-14872,348,7024,50,153,-71
8446.228,297,297,299,376,-14872,348,7024,50,153,-71
8450.601,297,297,298,374,-14872,348,7024,50,153,-71
8453.842,298,298,298,373,-14872,348,7024,50,153,-71
8460.161,298,299,298,374,-14776,288,7044,189,56,74
8466.066,299,299,298,374,-14776,288,7044,189,56,74
8466.066,299,299,296,371,-14776,288,7044,189,56,74
8476.921,299,299,296,372,-14776,288,7044,189,56,74
8480.403,300,300,296,371,-14776,288,7044,189,56,74
8487.482,300,300,297,371,-14776,288,7044,189,56,74
8489.564,301,300,296,371,-14776,288,7044,189,56,74
8498.914,301,299,297,370,-14776,288,7044,189,56,74
8498.914,300,299,295,369,-14924,324,7084,326,-27,254
8510.056,301,299,295,369,-14924,324,7084,326,-27,254
8510.056,299,298,295,368,-14924,324,7084,326,-27,254
8520.185,301,299,294,366,-14924,324,7084,326,-27,254
8522.168,302,301,296,367,-14924,324,7084,326,-27,254
8532.305,303,301,294,365,-14924,324,7084,326,-27,254
8533.257,302,300,294,365,-14924,324,7084,326,-27,254
8543.573,304,301,295,365,-14760,224,6784,474,-201,246
8543.573,304,301,294,362,-14760,224,6784,474,-201,246
8554.942,306,301,294,362,-14760,224,6784,474,-201,246
8559.055,306,301,294,362,-14760,224,6784,474,-201,246
8566.297,308,302,293,362,-14760,224,6784,474,-201,246
8571.929,307,303,293,360,-14760,224,6784,474,-201,246
8576.481,307,303,293,359,-14760,224,6784,474,-201,246
8578.688,308,302,294,360,-14912,532,6952,301,-490,435
8588.363,308,302,293,358,-14912,532,6952,301,-490,435
8588.363,308,302,292,357,-14912,532,6952,301,-490,435
8599.447,309,302,293,357,-14912,532,6952,301,-490,435
8603.289,308,303,292,357,-14912,532,6952,301,-490,435
8610.713,308,304,292,356,-14912,532,6952,301,-490,435
8615.397,307,303,291,355,-14912,532,6952,301,-490,435
8620.923,308,304,292,355,-14876,720,7200,34,-514,385
8629.535,307,304,293,355,-14876,720,7200,34,-514,385
8634.472,308,304,292,354,-14876,720,7200,34,-514,385
8642.903,308,304,294,354,-14876,720,7200,34,-514,385
8644.323,306,304,294,354,-14876,720,7200,34,-514,385
8644.323,306,303,294,353,-14876,720,7200,34,-514,385
8654.738,305,305,295,353,-14876,720,7200,34,-514,385
8662.068,304,304,295,352,-14700,928,7700,119,-512,358
8667.763,305,304,296,353,-14700,928,7700,119,-512,358
8675.555,306,305,296,352,-14700,928,7700,119,-512,358
8676.918,305,303,296,352,-14700,928,7700,119,-512,358
8688.001,305,303,297,352,-14700,928,7700,119,-512,358
8688.001,305,304,297,351,-14700,928,7700,119,-512,358
8699.219,306,304,298,350,-14700,928,7700,119,-512,358
8701.087,305,304,297,351,-14616,920,7640,291,-330,224
8712.205,306,304,297,351,-14616,920,7640,291,-330,224
8712.205,307,303,296,349,-14616,920,7640,291,-330,224
8720.746,308,303,297,350,-14616,920,7640,291,-330,224
8722.228,307,301,297,350,-14616,920,7640,291,-330,224
8733.048,307,299,296,349,-14616,920,7640,291,-330,224
8741.048,307,300,296,350,-14616,920,7640,291,-330,224
8743.754,306,300,297,350,-14736,484,7728,73,-5,135
8743.754,305,297,296,347,-14736,484,7728,73,-5,135
8754.585,306,296,297,348,-14736,484,7728,73,-5,135
8759.106,308,298,296,349,-14736,484,7728,73,-5,135
8765.421,307,299,295,349,-14736,484,7728,73,-5,135
8766.864,308,300,295,349,-14736,484,7728,73,-5,135
8776.418,308,301,294,349,-14736,484,7728,73,-5,135
8778.886,308,301,293,349,-14720,664,7556,237,160,248
8788.279,308,303,293,349,-14720,664,7556,237,160,248
8790.967,308,303,292,348,-14720,664,7556,237,160,248
8798.346,309,303,291,349,-14720,664,7556,237,160,248
8799.133,308,302,292,349,-14720,664,7556,237,160,248
8810.087,310,301,291,349,-14720,664,7556,237,160,248
8810.087,310,300,291,349,-14720,664,7556,237,160,248
8821.359,310,298,290,350,-14824,396,7136,163,92,395
8821.359,308,298,288,350,-14824,396,7136,163,92,395
8831.125,309,299,289,351,-14824,396,7136,163,92,395
8832.452,310,299,289,351,-14824,396,7136,163,92,395
8843.653,310,299,290,352,-14824,396,7136,163,92,395
8843.653,310,298,289,352,-14824,396,7136,163,92,395
8855.023,311,297,288,351,-14824,396,7136,163,92,395
8855.023,311,297,289,351,-14824,396,7136,163,92,395
8866.444,313,298,290,352,-14828,272,7192,220,13,702
8868.884,314,298,289,352,-14828,272,7192,220,13,702
8876.698,315,298,289,352,-14828,272,7192,220,13,702
8877.138,316,297,288,352,-14828,272,7192,220,13,702
8887.985,316,296,288,351,-14828,272,7192,220,13,702
8887.985,317,296,288,350,-14828,272,7192,220,13,702
8899.061,319,298,287,351,-14828,272,7192,220,13,702
8902.261,320,298,287,352,-14764,540,7304,138,97,868
8909.619,322,298,285,352,-14764,540,7304,138,97,868
8910.406,324,299,284,350,-14764,540,7304,138,97,868
8921.304,326,298,283,351,-14764,540,7304,138,97,868
8921.304,328,298,283,349,-14764,540,7304,138,97,868
8932.62,332,299,284,351,-14764,540,7304,138,97,868
8934.547,335,298,282,351,-14764,540,7304,138,97,868
8943.278,339,298,283,351,-14660,908,7592,51,23,854
8944.699,341,298,282,351,-14660,908,7592,51,23,854
8954.029,344,298,282,349,-14660,908,7592,51,23,854
8954.91,348,298,282,350,-14660,908,7592,51,23,854
8965.551,350,298,282,349,-14660,908,7592,51,23,854
8967.3,353,299,281,349,-14660,908,7592,51,23,854
8967.3,356,300,281,349,-14660,908,7592,51,23,854
8977.667,357,299,281,349,-14660,908,7592,51,23,854
8986.917,359,300,280,348,-14692,1396,7540,490,268,806
8988.424,359,299,279,348,-14692,1396,7540,490,268,806
8999.115,359,300,279,348,-14692,1396,7540,490,268,806
9000.71,357,299,278,348,-14692,1396,7540,490,268,806
9010.674,356,299,278,347,-14692,1396,7540,490,268,806
9010.674,356,298,276,345,-14692,1396,7540,490,268,806
9020.209,354,299,278,346,-14692,1396,7540,490,268,806
9021.829,352,298,278,345,-14732,1328,6716,634,309,707
9031.745,352,298,278,345,-14732,1328,6716,634,309,707
9032.316,351,297,278,344,-14732,1328,6716,634,309,707
9044.023,348,297,279,345,-14732,1328,6716,634,309,707
9044.023,345,298,279,346,-14732,1328,6716,634,309,707
9054.612,343,300,279,347,-14732,1328,6716,634,309,707
9054.612,339,300,279,348,-14732,1328,6716,634,309,707
9065.739,335,301,280,351,-14684,1460,6776,580,-18,729
9065.739,328,302,279,351,-14684,1460,6776,580,-18,729
9075.76,323,302,280,354,-14684,1460,6776,580,-18,729
9083.772,316,304,282,356,-14684,1460,6776,580,-18,729
9089.415,308,306,283,358,-14684,1460,6776,580,-18,729
9096.17,299,307,283,360,-14684,1460,6776,580,-18,729
9097.847,288,311,286,362,-14764,1576,6776,422,-501,577
9109.45,277,318,288,364,-14764,1576,6776,422,-501,577
9109.45,269,329,289,363,-14764,1576,6776,422,-501,577
9115.001,256,344,290,364,-14764,1576,6776,422,-501,577
9120.068,245,361,294,366,-14764,1576,6776,422,-501,577
9128.359,233,376,296,365,-14764,1576,6776,422,-501,577
9132.081,222,389,297,364,-14764,1576,6776,422,-501,577
9142.234,212,398,300,363,-14732,1548,6756,685,-949,205
9146.342,206,407,302,363,-14732,1548,6756,685,-949,205
9154.056,202,411,303,362,-14732,1548,6756,685,-949,205
9162.111,200,412,306,362,-14732,1548,6756,685,-949,205
9165.296,199,411,308,362,-14732,1548,6756,685,-949,205
9167.957,199,405,308,361,-14732,1548,6756,685,-949,205
9176.211,202,397,310,359,-14732,1548,6756,685,-949,205
9180.283,206,387,312,359,-14684,1596,7152,848,-1072,-17
9186.804,211,376,313,358,-14684,1596,7152,848,-1072,-17
9193.876,216,366,314,355,-14684,1596,7152,848,-1072,-17
9198.733,221,359,315,355,-14684,1596,7152,848,-1072,-17
9205.077,228,355,316,354,-14684,1596,7152,848,-1072,-17
9209.72,234,350,317,352,-14684,1596,7152,848,-1072,-17
9217.325,238,346,318,350,-14684,1596,7152,848,-1072,-17
9221.383,243,341,319,348,-14548,1744,7504,810,-1238,-106
9231.707,250,338,319,346,-14548,1744,7504,810,-1238,-106
9239.761,254,334,320,344,-14548,1744,7504,810,-1238,-106
9242.973,260,331,321,344,-14548,1744,7504,810,-1238,-106
9253.27,265,326,322,343,-14548,1744,7504,810,-1238,-106
9254.013,270,320,323,339,-14548,1744,7504,810,-1238,-106
9264.938,275,313,324,339,-14624,1500,7524,338,-1049,-178
9265.752,280,304,324,337,-14624,1500,7524,338,-1049,-178
9276.319,285,298,325,335,-14624,1500,7524,338,-1049,-178
9276.319,290,290,325,334,-14624,1500,7524,338,-1049,-178
9287.431,294,284,326,334,-14624,1500,7524,338,-1049,-178
9291.626,298,277,325,331,-14624,1500,7524,338,-1049,-178
9298.708,302,272,326,331,-14624,1500,7524,338,-1049,-178
9303.242,307,269,325,331,-14456,1472,7856,300,-961,-287
9308.994,312,269,326,329,-14456,1472,7856,300,-961,-287
9316.382,316,269,326,329,-14456,1472,7856,300,-961,-287
9320.877,318,268,326,328,-14456,1472,7856,300,-961,-287
9324.385,321,272,326,327,-14456,1472,7856,300,-961,-287
9332.07,325,273,325,325,-14456,1472,7856,300,-961,-287
9342.778,325,272,325,324,-14456,1480,8292,577,-825,-305
9343.916,327,272,325,323,-14456,1480,8292,577,-825,-305
9353.826,329,273,324,321,-14456,1480,8292,577,-825,-305
9353.826,331,275,324,321,-14456,1480,8292,577,-825,-305
9365.132,331,274,324,319,-14456,1480,8292,577,-825,-305
9369.304,333,275,322,317,-14456,1480,8292,577,-825,-305
9378.17,334,273,321,317,-14456,1480,8292,577,-825,-305
9378.17,335,273,320,316,-14452,1236,8400,529,-351,-154
9387.804,336,273,318,314,-14452,1236,8400,529,-351,-154
9394.143,337,273,316,312,-14452,1236,8400,529,-351,-154
9398.582,337,274,315,311,-14452,1236,8400,529,-351,-154
9406.287,337,275,312,310,-14452,1236,8400,529,-351,-154
9409.89,339,276,310,308,-14452,1236,8400,529,-351,-154
9421.129,340,278,309,307,-14452,1236,8400,529,-351,-154
9422.188,338,280,307,307,-14396,1092,7916,-93,-4,-114
9431.218,339,283,305,305,-14396,1092,7916,-93,-4,-114
9434.364,339,283,302,304,-14396,1092,7916,-93,-4,-114
9442.285,340,285,301,304,-14396,1092,7916,-93,-4,-114
9447.258,343,286,298,303,-14396,1092,7916,-93,-4,-114
9453.72,344,287,297,302,-14396,1092,7916,-93,-4,-114
9455.179,345,287,296,302,-14396,1092,7916,-93,-4,-114
9465.101,346,286,295,302,-14576,1092,7584,-386,68,228
9465.101,346,286,292,302,-14576,1092,7584,-386,68,228
9476.401,347,286,290,301,-14576,1092,7584,-386,68,228
9485.233,347,286,289,301,-14576,1092,7584,-386,68,228
9487.471,348,286,287,300,-14576,1092,7584,-386,68,228
9492.271,349,284,286,299,-14576,1092,7584,-386,68,228
9498.353,348,284,285,299,-14576,1092,7584,-386,68,228
9505.036,348,284,283,300,-14492,1508,7720,-95,1,358
9509.837,348,284,280,299,-14492,1508,7720,-95,1,358
9512.857,348,283,280,299,-14492,1508,7720,-95,1,358
9521.134,347,282,279,300,-14492,1508,7720,-95,1,358
9521.134,347,282,278,299,-14492,1508,7720,-95,1,358
9532.025,346,282,278,299,-14492,1508,7720,-95,1,358
9537.563,347,281,277,298,-14492,1508,7720,-95,1,358
9542.398,345,282,277,299,-14288,1540,7852,508,-127,246
9549.85,345,282,275,300,-14288,1540,7852,508,-127,246
9554.152,344,283,275,301,-14288,1540,7852,508,-127,246
9558.146,342,283,275,300,-14288,1540,7852,508,-127,246
9565.431,341,284,275,301,-14288,1540,7852,508,-127,246
9576.573,340,284,273,301,-14288,1540,7852,508,-127,246
9576.573,339,286,272,301,-14288,1540,7852,508,-127,246
9587.277,337,288,271,301,-14448,2000,8024,629,113,-39
9587.277,337,291,270,301,-14448,2000,8024,629,113,-39
9595.352,337,293,270,301,-14448,2000,8024,629,113,-39
9598.33,335,294,269,302,-14448,2000,8024,629,113,-39
9609.701,334,295,268,302,-14448,2000,8024,629,113,-39
9609.726,334,297,267,300,-14448,2000,8024,629,113,-39
9620.783,334,298,267,300,-14448,2000,8024,629,113,-39
9620.783,334,299,266,301,-14432,1608,7608,-93,406,-34
9632.188,334,301,265,300,-14432,1608,7608,-93,406,-34
9635.378,334,302,266,300,-14432,1608,7608,-93,406,-34
9642.678,333,303,267,301,-14432,1608,7608,-93,406,-34
9648.444,333,304,267,301,-14432,1608,7608,-93,406,-34
9654.17,330,305,267,300,-14432,1608,7608,-93,406,-34
9656.081,330,305,268,302,-14432,1608,7608,-93,406,-34
9664.83,330,306,269,301,-14548,1616,7748,-214,251,186
9664.83,330,305,269,301,-14548,1616,7748,-214,251,186
9676.386,330,305,269,302,-14548,1616,7748,-214,251,186
9687.03,329,305,271,303,-14548,1616,7748,-214,251,186
9687.03,328,304,271,302,-14548,1616,7748,-214,251,186
9697.816,328,304,272,302,-14548,1616,7748,-214,251,186
9700.62,327,304,273,302,-14548,1616,7748,-214,251,186
9700.62,327,303,273,302,-14460,1592,7732,41,326,213
9710.852,326,304,274,304,-14460,1592,7732,41,326,213
9717.497,326,303,275,304,-14460,1592,7732,41,326,213
9721.237,324,303,276,304,-14460,1592,7732,41,326,213
9731.592,323,303,276,304,-14460,1592,7732,41,326,213
9733.642,322,302,277,303,-14460,1592,7732,41,326,213
9743.898,320,301,278,304,-14460,1592,7732,41,326,213
9743.898,320,300,278,304,-14456,1664,7560,228,338,133
9750.384,319,301,279,303,-14456,1664,7560,228,338,133
9754.509,318,300,279,304,-14456,1664,7560,228,338,133
9765.229,317,300,279,304,-14456,1664,7560,228,338,133
9773.301,315,300,279,303,-14456,1664,7560,228,338,133
9777.021,315,300,279,303,-14456,1664,7560,228,338,133
9778.816,314,301,280,304,-14456,1664,7560,228,338,133
9787.337,313,300,280,305,-14496,1824,7492,163,401,68
9790.688,313,302,280,304,-14496,1824,7492,163,401,68
9798.191,312,301,281,304,-14496,1824,7492,163,401,68
9803.623,310,302,282,304,-14496,1824,7492,163,401,68
9809.344,310,303,282,304,-14496,1824,7492,163,401,68
9811.914,310,304,282,305,-14496,1824,7492,163,401,68
9821.045,309,304,282,306,-14496,1824,7492,163,401,68
9821.045,309,305,282,306,-14528,1628,7312,24,260,22
9832.268,308,304,282,305,-14528,1628,7312,24,260,22
9832.268,307,304,281,305,-14528,1628,7312,24,260,22
9842.902,307,305,283,306,-14528,1628,7312,24,260,22
9850.939,306,305,283,305,-14528,1628,7312,24,260,22
9854.153,306,306,283,306,-14528,1628,7312,24,260,22
9862.251,305,306,283,307,-14528,1628,7312,24,260,22
9865.125,305,308,284,307,-14508,1668,7500,-109,65,19
9865.125,304,308,284,307,-14508,1668,7500,-109,65,19
9876.516,304,308,283,306,-14508,1668,7500,-109,65,19
9882.022,303,310,285,307,-14508,1668,7500,-109,65,19
9886.749,304,311,286,307,-14508,1668,7500,-109,65,19
9889.516,303,312,286,307,-14508,1668,7500,-109,65,19
9898.203,303,313,287,308,-14508,1668,7500,-109,65,19
9898.203,302,312,287,308,-14564,1644,7524,105,54,-70
9909.906,302,312,287,307,-14564,1644,7524,105,54,-70
9914.186,301,312,287,306,-14564,1644,7524,105,54,-70
9920.265,301,311,289,307,-14564,1644,7524,105,54,-70
9926.894,301,310,290,307,-14564,1644,7524,105,54,-70
9931.185,301,311,290,307,-14564,1644,7524,105,54,-70
9934.322,299,310,291,306,-14564,1644,7524,105,54,-70
9943.055,299,311,293,308,-14492,1768,7652,42,62,-83
9943.055,299,310,293,307,-14492,1768,7652,42,62,-83
9954.265,299,311,293,307,-14492,1768,7652,42,62,-83
9959.441,300,310,294,308,-14492,1768,7652,42,62,-83
9964.451,299,310,295,308,-14492,1768,7652,42,62,-83
9971.574,300,310,295,308,-14492,1768,7652,42,62,-83
9976.318,299,310,296,308,-14492,1768,7652,42,62,-83
9986.63,298,310,297,308,-14588,1680,7416,-48,59,-21
9987.532,297,309,297,308,-14588,1680,7416,-48,59,-21
9987.532,298,310,298,308,-14588,1680,7416,-48,59,-21
9999.133,298,309,298,308,-14588,1680,7416,-48,59,-21
10004.494,298,307,299,308,-14588,1680,7416,-48,59,-21
10009.898,300,307,300,308,-14588,1680,7416,-48,59,-21
10009.898,299,305,300,308,-14588,1680,7416,-48,59,-21
10021.137,300,304,302,309,-14588,1680,7416,-48,59,-21
10030.653,299,305,301,308,-14536,1520,7360,-178,-85,91
10032.321,299,305,303,308,-14536,1520,7360,-178,-85,91
10032.321,299,303,302,309,-14536,1520,7360,-178,-85,91
10042.245,298,302,302,309,-14536,1520,7360,-178,-85,91
10048.974,299,303,304,308,-14536,1520,7360,-178,-85,91
10053.397,300,303,303,308,-14536,1520,7360,-178,-85,91
10061.142,300,303,303,309,-14596,1720,7364,-145,-205,-2
10065.848,299,303,302,308,-14596,1720,7364,-145,-205,-2
10076.213,299,303,302,308,-14596,1720,7364,-145,-205,-2
10076.213,299,302,303,309,-14596,1720,7364,-145,-205,-2
10088.152,298,302,303,309,-14596,1720,7364,-145,-205,-2
10088.152,300,303,303,309,-14596,1720,7364,-145,-205,-2
10098.623,300,303,303,309,-14596,1720,7364,-145,-205,-2
10102.532,299,303,304,309,-14552,1820,7736,197,-215,-69
10109.811,300,305,304,309,-14552,1820,7736,197,-215,-69
10114.801,300,305,303,308,-14552,1820,7736,197,-215,-69
10120.11,300,306,304,309,-14552,1820,7736,197,-215,-69
10122.932,300,306,303,310,-14552,1820,7736,197,-215,-69
10131.84,301,305,303,309,-14552,1820,7736,197,-215,-69
10141.95,301,305,304,309,-14552,1820,7736,197,-215,-69
10143.257,301,304,304,310,-14460,1640,7636,-21,-174,-30
10153.81,302,305,303,310,-14460,1640,7636,-21,-174,-30
10153.81,301,305,303,310,-14460,1640,7636,-21,-174,-30
10166.082,301,305,303,311,-14460,1640,7636,-21,-174,-30
10166.082,301,305,303,311,-14460,1640,7636,-21,-174,-30
10172.819,301,305,302,310,-14460,1640,7636,-21,-174,-30
10176.197,302,305,303,310,-14460,1640,7636,-21,-174,-30
10187.155,302,306,303,311,-14540,1636,7768,-187,4,-14
10187.96,302,306,302,309,-14540,1636,7768,-187,4,-14
10198.509,301,307,302,310,-14540,1636,7768,-187,4,-14
10198.509,301,307,302,311,-14540,1636,7768,-187,4,-14
10209.635,301,307,303,311,-14540,1636,7768,-187,4,-14
10209.635,301,306,302,310,-14540,1636,7768,-187,4,-14
10219.988,302,306,302,311,-14540,1636,7768,-187,4,-14
10220.737,302,306,303,311,-14544,1688,7768,-205,99,29
10231.846,302,305,301,310,-14544,1688,7768,-205,99,29
10239.936,301,306,302,311,-14544,1688,7768,-205,99,29
10242.905,300,306,303,312,-14544,1688,7768,-205,99,29
10242.905,300,306,302,312,-14544,1688,7768,-205,99,29
10254.854,300,307,301,312,-14544,1688,7768,-205,99,29
10258.878,300,306,301,312,-14544,1688,7768,-205,99,29
10264.904,300,306,301,313,-14500,1648,7800,-36,284,-26
10269.799,299,306,301,312,-14500,1648,7800,-36,284,-26
10275.719,299,306,301,311,-14500,1648,7800,-36,284,-26
10278.57,298,306,302,312,-14500,1648,7800,-36,284,-26
10289.294,297,306,301,311,-14500,1648,7800,-36,284,-26
10297.616,299,307,300,312,-14500,1648,7800,-36,284,-26
10299.37,299,307,300,313,-14500,1648,7800,-36,284,-26
10302.816,299,307,300,313,-14568,1664,7568,59,338,31
10309.301,300,308,300,312,-14568,1664,7568,59,338,31
10315.437,299,307,300,313,-14568,1664,7568,59,338,31
10320.09,299,307,300,314,-14568,1664,7568,59,338,31
10323.503,300,306,299,313,-14568,1664,7568,59,338,31
10331.28,299,305,298,312,-14568,1664,7568,59,338,31
10336.126,299,303,299,312,-14568,1664,7568,59,338,31
10342.813,299,303,299,312,-14576,1696,7716,-189,352,74
10347.762,300,302,299,311,-14576,1696,7716,-189,352,74
10353.551,300,302,299,312,-14576,1696,7716,-189,352,74
10360.14,299,302,299,313,-14576,1696,7716,-189,352,74
10364.523,299,302,299,312,-14576,1696,7716,-189,352,74
10368.515,300,302,298,312,-14576,1696,7716,-189,352,74
10376.304,300,304,298,312,-14576,1696,7716,-189,352,74
10387.062,300,304,298,312,-14556,1844,7320,5,275,-70
10387.782,299,303,298,311,-14556,1844,7320,5,275,-70
10394.65,300,304,298,311,-14556,1844,7320,5,275,-70
10398.94,300,304,297,312,-14556,1844,7320,5,275,-70
10406.689,299,304,296,311,-14556,1844,7320,5,275,-70
10409.809,299,305,294,311,-14556,1844,7320,5,275,-70
10414.272,299,304,294,311,-14556,1844,7320,5,275,-70
10421.833,298,304,295,311,-14556,1844,7320,5,275,-70
10421.833,299,304,294,310,-14560,1756,7432,-74,256,-95
10432.018,300,304,292,310,-14560,1756,7432,-74,256,-95
10438.526,299,303,292,310,-14560,1756,7432,-74,256,-95
10442.958,300,304,292,311,-14560,1756,7432,-74,256,-95
10453.322,300,305,291,311,-14560,1756,7432,-74,256,-95
10454.128,300,304,290,311,-14560,1756,7432,-74,256,-95
10459.105,300,304,291,312,-14560,1756,7432,-74,256,-95
10466.026,300,304,290,311,-14656,1652,7740,-175,455,-275
10476.898,300,304,290,311,-14656,1652,7740,-175,455,-275
10476.898,299,305,290,311,-14656,1652,7740,-175,455,-275
10487.063,300,305,289,311,-14656,1652,7740,-175,455,-275
10487.063,300,306,288,310,-14656,1652,7740,-175,455,-275
10498.656,301,306,289,311,-14656,1652,7740,-175,455,-275
10504.009,301,305,289,311,-14572,1332,7472,-148,593,-120
10509.511,302,305,288,310,-14572,1332,7472,-148,593,-120
10516.48,301,306,288,309,-14572,1332,7472,-148,593,-120
10520.789,301,307,288,309,-14572,1332,7472,-148,593,-120
10528.682,301,309,289,309,-14572,1332,7472,-148,593,-120
10532.83,301,310,290,309,-14572,1332,7472,-148,593,-120
10542.818,300,311,292,308,-14572,1332,7472,-148,593,-120
10542.818,300,312,294,309,-14620,1380,7480,-109,526,130
10553.41,301,313,294,309,-14620,1380,7480,-109,526,130
10553.41,301,313,295,310,-14620,1380,7480,-109,526,130
10565.44,301,312,293,310,-14620,1380,7480,-109,526,130
10569.341,301,312,291,310,-14620,1380,7480,-109,526,130
10576.6,300,313,290,311,-14620,1380,7480,-109,526,130
10581.101,299,314,287,312,-14620,1380,7480,-109,526,130
10586.917,298,314,284,311,-14636,1616,7828,-156,737,80
10586.917,296,314,282,311,-14636,1616,7828,-156,737,80
10598.911,294,313,279,311,-14636,1616,7828,-156,737,80
10607.92,293,314,279,312,-14636,1616,7828,-156,737,80
10609.745,290,315,278,312,-14636,1616,7828,-156,737,80
10615.377,287,315,277,312,-14636,1616,7828,-156,737,80
10620.006,284,316,277,312,-14636,1616,7828,-156,737,80
10627.455,282,317,276,312,-14676,1752,7464,-195,1056,31
10631.816,281,317,275,311,-14676,1752,7464,-195,1056,31
10639.279,279,317,275,312,-14676,1752,7464,-195,1056,31
10643.814,279,316,275,311,-14676,1752,7464,-195,1056,31
10653.942,277,315,275,310,-14676,1752,7464,-195,1056,31
10658.056,276,314,276,311,-14676,1752,7464,-195,1056,31
10665.524,274,313,278,311,-14716,1740,6416,-373,751,252
10669.696,273,311,279,310,-14716,1740,6416,-373,751,252
10677.734,271,309,279,310,-14716,1740,6416,-373,751,252
10680.078,269,305,282,311,-14716,1740,6416,-373,751,252
10688.613,267,300,286,312,-14716,1740,6416,-373,751,252
10688.613,267,295,290,312,-14716,1740,6416,-373,751,252
10698.724,267,290,293,313,-14716,1740,6416,-373,751,252
10705.701,267,286,296,313,-14928,1840,6696,-550,439,-115
10709.782,267,283,298,312,-14928,1840,6696,-550,439,-115
10717.679,268,280,300,313,-14928,1840,6696,-550,439,-115
10721.173,269,282,302,313,-14928,1840,6696,-550,439,-115
10725.451,271,284,303,312,-14928,1840,6696,-550,439,-115
10733.311,272,288,305,312,-14928,1840,6696,-550,439,-115
10743.364,272,291,306,311,-14928,1840,6696,-550,439,-115
10743.364,275,295,308,311,-14808,1484,6804,178,25,-354
10754.059,277,298,309,310,-14808,1484,6804,178,25,-354
10754.059,279,299,310,311,-14808,1484,6804,178,25,-354
10765.125,282,300,312,311,-14808,1484,6804,178,25,-354
10770.104,286,300,312,310,-14808,1484,6804,178,25,-354
10775.863,287,299,313,310,-14808,1484,6804,178,25,-354
10778.274,290,300,313,310,-14808,1484,6804,178,25,-354
10788.173,294,301,314,310,-14704,1640,7368,406,-114,53
10796.258,297,301,314,310,-14704,1640,7368,406,-114,53
10798.597,299,302,315,310,-14704,1640,7368,406,-114,53
10802.556,301,302,316,311,-14704,1640,7368,406,-114,53
10809.455,303,301,316,310,-14704,1640,7368,406,-114,53
10815.752,306,301,316,310,-14704,1640,7368,406,-114,53
10820.095,307,301,316,311,-14704,1640,7368,406,-114,53
10826.99,309,300,316,310,-14700,1552,7584,176,213,128
10833.031,310,300,316,310,-14700,1552,7584,176,213,128
10841.854,311,299,316,311,-14700,1552,7584,176,213,128
10843.697,312,300,316,310,-14700,1552,7584,176,213,128
10853.741,313,299,315,310,-14700,1552,7584,176,213,128
10853.741,312,297,315,310,-14700,1552,7584,176,213,128
10861.018,314,296,316,311,-14700,1552,7584,176,213,128
10865.34,314,297,315,310,-14772,1528,7116,-375,410,189
10872.787,313,296,315,310,-14772,1528,7116,-375,410,189
10877.08,312,296,315,310,-14772,1528,7116,-375,410,189
10887.392,312,295,315,309,-14772,1528,7116,-375,410,189
10895.433,311,296,315,309,-14772,1528,7116,-375,410,189
10898.63,310,297,316,309,-14772,1528,7116,-375,410,189
10900.828,310,296,316,309,-14772,1528,7116,-375,410,189
10910.824,310,297,315,309,-14848,1568,6720,-669,232,271
10910.824,308,298,315,308,-14848,1568,6720,-669,232,271
10920.964,307,299,316,308,-14848,1568,6720,-669,232,271
10926.326,306,300,316,308,-14848,1568,6720,-669,232,271
10931.502,305,301,316,308,-14848,1568,6720,-669,232,271
10938.495,305,302,316,308,-14848,1568,6720,-669,232,271
10943.078,304,301,317,308,-14900,1888,6820,-357,150,171
10950.28,304,299,317,306,-14900,1888,6820,-357,150,171
10954.327,304,299,318,307,-14900,1888,6820,-357,150,171
10958.185,304,300,318,308,-14900,1888,6820,-357,150,171
10965.754,303,300,318,307,-14900,1888,6820,-357,150,171
10976.688,304,299,318,306,-14900,1888,6820,-357,150,171
10976.688,303,298,318,307,-14900,1888,6820,-357,150,171
10987.362,303,297,318,306,-14788,1824,6852,-114,-70,93
10987.362,303,296,317,306,-14788,1824,6852,-114,-70,93
10998.326,303,295,317,306,-14788,1824,6852,-114,-70,93
10998.52,301,294,317,307,-14788,1824,6852,-114,-70,93
11010.172,300,295,316,306,-14788,1824,6852,-114,-70,93
11010.172,300,295,315,305,-14788,1824,6852,-114,-70,93
11020.269,298,297,314,306,-14788,1824,6852,-114,-70,93
11020.269,297,297,313,306,-14800,1864,7020,-274,-84,37
11032.641,297,299,313,305,-14800,1864,7020,-274,-84,37
11032.641,297,301,313,306,-14800,1864,7020,-274,-84,37
11043.083,294,300,312,306,-14800,1864,7020,-274,-84,37
11049.598,294,303,311,306,-14800,1864,7020,-274,-84,37
11053.986,293,304,311,305,-14800,1864,7020,-274,-84,37
11060.879,292,305,311,306,-14800,1864,7020,-274,-84,37
11066.186,292,305,310,306,-14760,1724,7256,-443,-27,-105
11075.195,293,306,309,306,-14760,1724,7256,-443,-27,-105
11076.804,292,306,308,306,-14760,1724,7256,-443,-27,-105
11087.298,292,306,308,308,-14760,1724,7256,-443,-27,-105
11087.298,292,306,307,306,-14760,1724,7256,-443,-27,-105
11098.541,292,306,306,307,-14760,1724,7256,-443,-27,-105
11101.67,292,305,305,307,-14760,1724,7256,-443,-27,-105
11110.703,293,305,305,307,-14828,1484,7212,-253,77,-270
11110.703,294,305,304,306,-14828,1484,7212,-253,77,-270
11120.897,294,304,304,307,-14828,1484,7212,-253,77,-270
11129.278,295,303,302,306,-14828,1484,7212,-253,77,-270
11132.296,295,303,301,305,-14828,1484,7212,-253,77,-270
11140.329,296,305,301,306,-14828,1484,7212,-253,77,-270
11142.866,297,304,300,305,-14828,1484,7212,-253,77,-270
11153.395,298,304,299,305,-14812,1696,7140,-148,231,-154
11154.047,299,304,301,305,-14812,1696,7140,-148,231,-154
11165.114,301,303,300,306,-14812,1696,7140,-148,231,-154
11165.114,302,303,299,306,-14812,1696,7140,-148,231,-154
11176.521,303,301,299,305,-14812,1696,7140,-148,231,-154
11179.631,303,301,298,305,-14812,1696,7140,-148,231,-154
11179.631,304,302,298,304,-14856,1644,7092,-317,242,-75
11194.121,306,301,297,305,-14856,1644,7092,-317,242,-75
11198.435,307,301,298,305,-14856,1644,7092,-317,242,-75
11199.208,309,300,297,305,-14856,1644,7092,-317,242,-75
11209.996,310,299,297,304,-14856,1644,7092,-317,242,-75
11219.075,311,299,297,303,-14856,1644,7092,-317,242,-75
11220.915,310,299,297,303,-14856,1644,7092,-317,242,-75
11225.518,310,299,296,302,-14832,1568,6952,-370,245,-118
11231.896,310,297,295,302,-14832,1568,6952,-370,245,-118
11243.329,310,295,294,302,-14832,1568,6952,-370,245,-118
11243.329,309,291,294,302,-14832,1568,6952,-370,245,-118
11250.503,311,289,294,301,-14832,1568,6952,-370,245,-118
11254.255,311,287,293,301,-14832,1568,6952,-370,245,-118
11261.983,312,287,293,301,-14832,1568,6952,-370,245,-118
11265.376,312,289,291,300,-14768,1364,7088,-309,194,-102
11276.173,313,290,291,301,-14768,1364,7088,-309,194,-102
11284.234,313,293,291,301,-14768,1364,7088,-309,194,-102
11287.53,313,295,291,300,-14768,1364,7088,-309,194,-102
11289.788,315,296,290,299,-14768,1364,7088,-309,194,-102
11298.317,315,296,290,300,-14768,1364,7088,-309,194,-102
11308.998,315,295,290,300,-14848,1616,7156,-205,214,-68
11310.62,316,296,289,299,-14848,1616,7156,-205,214,-68
11315.186,317,296,289,299,-14848,1616,7156,-205,214,-68
11320.045,316,297,288,300,-14848,1616,7156,-205,214,-68
11327.907,318,298,288,299,-14848,1616,7156,-205,214,-68
11331.951,319,299,287,299,-14848,1616,7156,-205,214,-68
11339.632,319,300,288,299,-14848,1616,7156,-205,214,-68
11343.964,319,302,286,299,-14836,1616,7012,-197,275,-107
11353.927,318,304,285,298,-14836,1616,7012,-197,275,-107
11361.997,319,305,286,299,-14836,1616,7012,-197,275,-107
11365.85,318,306,285,299,-14836,1616,7012,-197,275,-107
11373.927,319,307,285,299,-14836,1616,7012,-197,275,-107
11376.463,319,308,285,299,-14836,1616,7012,-197,275,-107
11380.039,319,308,284,299,-14836,1616,7012,-197,275,-107
11387.303,320,310,285,299,-14896,1624,7020,-114,353,-58
11392.834,318,311,284,299,-14896,1624,7020,-114,353,-58
11397.903,318,312,284,300,-14896,1624,7020,-114,353,-58
11404.643,318,312,285,300,-14896,1624,7020,-114,353,-58
11410.024,317,313,284,299,-14896,1624,7020,-114,353,-58
11416.808,318,312,284,300,-14896,1624,7020,-114,353,-58
11421.035,317,312,284,300,-14896,1624,7020,-114,353,-58
11431.83,317,310,285,298,-14920,1420,6788,-193,362,44
11431.83,315,310,284,298,-14920,1420,6788,-193,362,44
11444.287,314,309,285,299,-14920,1420,6788,-193,362,44
11444.287,311,308,285,299,-14920,1420,6788,-193,362,44
11454.28,308,306,285,298,-14920,1420,6788,-193,362,44
11454.28,306,304,286,298,-14920,1420,6788,-193,362,44
11465.185,304,303,286,299,-14920,1420,6788,-193,362,44
11473.262,304,303,286,299,-14960,1668,6672,-62,242,-18
11476.178,303,304,288,299,-14960,1668,6672,-62,242,-18
11484.242,301,305,289,300,-14960,1668,6672,-62,242,-18
11487.35,301,306,290,300,-14960,1668,6672,-62,242,-18
11490.953,301,308,289,300,-14960,1668,6672,-62,242,-18
11498.421,300,308,290,301,-14960,1668,6672,-62,242,-18
11498.421,301,308,291,301,-14960,1668,6672,-62,242,-18
11510.219,301,307,292,301,-14940,1544,6780,-121,194,-60
11515.951,301,305,293,302,-14940,1544,6780,-121,194,-60
11520.145,300,303,294,303,-14940,1544,6780,-121,194,-60
11528.221,300,302,295,303,-14940,1544,6780,-121,194,-60
11532.18,302,301,296,303,-14940,1544,6780,-121,194,-60
11542.605,302,301,298,304,-14940,1544,6780,-121,194,-60
11543.354,303,302,300,304,-14812,1664,6980,-38,98,-92
11554.495,304,303,301,304,-14812,1664,6980,-38,98,-92
11558.869,304,303,301,305,-14812,1664,6980,-38,98,-92
11563.975,303,304,303,306,-14812,1664,6980,-38,98,-92
11571.443,304,304,304,306,-14812,1664,6980,-38,98,-92
11575.411,304,304,304,306,-14812,1664,6980,-38,98,-92
11576.814,304,304,305,306,-14812,1664,6980,-38,98,-92
11587.4,304,304,306,307,-14812,1664,6980,-38,98,-92
11587.4,306,304,306,306,-15036,1372,6948,-103,148,16
11597.918,306,304,307,308,-15036,1372,6948,-103,148,16
11597.918,305,303,307,307,-15036,1372,6948,-103,148,16
11610.154,306,303,307,307,-15036,1372,6948,-103,148,16
11613.807,306,303,308,307,-15036,1372,6948,-103,148,16
11621.18,306,303,308,308,-15036,1372,6948,-103,148,16
11622.148,307,302,309,309,-15036,1372,6948,-103,148,16
11631.976,308,302,309,308,-14968,1336,7048,-328,329,84
11640.061,308,301,310,308,-14968,1336,7048,-328,329,84
11643.079,307,301,309,309,-14968,1336,7048,-328,329,84
11643.079,307,301,309,308,-14968,1336,7048,-328,329,84
11654.097,307,300,309,307,-14968,1336,7048,-328,329,84
11659.56,306,298,310,307,-14968,1336,7048,-328,329,84
11664.755,306,297,309,306,-14968,1336,7048,-328,329,84
11671.141,304,296,308,305,-14932,1536,6788,-194,299,128
11675.786,302,296,308,306,-14932,1536,6788,-194,299,128
11684.261,301,297,308,306,-14932,1536,6788,-194,299,128
11689.226,299,298,308,305,-14932,1536,6788,-194,299,128
11698.716,298,300,308,305,-14932,1536,6788,-194,299,128
11701.834,297,300,308,304,-14932,1536,6788,-194,299,128
11710.057,296,301,307,305,-14948,1524,6560,-92,202,37
11710.057,295,302,306,306,-14948,1524,6560,-92,202,37
11716.943,296,302,306,306,-14948,1524,6560,-92,202,37
11720.905,296,303,306,307,-14948,1524,6560,-92,202,37
11728.762,296,303,305,307,-14948,1524,6560,-92,202,37
11732.679,296,304,305,307,-14948,1524,6560,-92,202,37
11743.103,296,305,305,307,-14948,1524,6560,-92,202,37
11743.103,295,306,304,307,-14964,1476,6632,-92,85,81
11754.208,296,307,304,307,-14964,1476,6632,-92,85,81
11757.154,298,306,304,307,-14964,1476,6632,-92,85,81
11757.154,297,306,303,307,-14964,1476,6632,-92,85,81
11766.227,299,306,303,307,-14964,1476,6632,-92,85,81
11775.754,299,307,302,308,-14964,1476,6632,-92,85,81
11775.754,300,307,303,307,-14964,1476,6632,-92,85,81
11787.455,300,307,303,307,-14964,1476,6632,-92,85,81
11790.102,302,308,303,308,-14984,1592,6664,-23,-47,-40
11790.102,303,310,303,308,-14984,1592,6664,-23,-47,-40
11799.619,303,310,303,308,-14984,1592,6664,-23,-47,-40
11808.991,304,310,302,308,-14984,1592,6664,-23,-47,-40
11809.885,306,309,302,307,-14984,1592,6664,-23,-47,-40
11820.628,305,309,302,307,-14984,1592,6664,-23,-47,-40
11828.683,306,308,302,307,-14984,1592,6664,-23,-47,-40
11831.814,307,307,302,307,-14896,1448,6652,73,-92,-16
11834.375,308,307,302,307,-14896,1448,6652,73,-92,-16
11842.915,308,307,302,308,-14896,1448,6652,73,-92,-16
11846.663,310,307,301,306,-14896,1448,6652,73,-92,-16
11853.808,311,307,302,306,-14896,1448,6652,73,-92,-16
11853.808,310,306,302,307,-14896,1448,6652,73,-92,-16
11865.105,311,307,302,307,-14896,1448,6652,73,-92,-16
11873.173,312,306,302,306,-14956,1440,6624,224,-249,8
11876.416,312,306,302,306,-14956,1440,6624,224,-249,8
11876.416,312,306,302,306,-14956,1440,6624,224,-249,8
11887.354,313,307,302,306,-14956,1440,6624,224,-249,8
11892.468,313,307,302,306,-14956,1440,6624,224,-249,8
11898.193,314,307,302,307,-14956,1440,6624,224,-249,8
11898.193,313,307,302,306,-14956,1440,6624,224,-249,8
11909.964,313,307,303,306,-15028,1124,6484,63,-254,201
11918.004,313,307,302,306,-15028,1124,6484,63,-254,201
11920.957,313,307,302,307,-15028,1124,6484,63,-254,201
11920.957,313,307,302,307,-15028,1124,6484,63,-254,201
11931.857,313,307,302,306,-15028,1124,6484,63,-254,201
11937.697,313,307,302,307,-15028,1124,6484,63,-254,201
11942.939,313,307,302,307,-15028,1124,6484,63,-254,201
11949.671,312,307,301,307,-14936,1012,5992,254,-606,512
11954.099,311,307,301,308,-14936,1012,5992,254,-606,512
11964.493,311,307,302,310,-14936,1012,5992,254,-606,512
11965.302,310,308,301,310,-14936,1012,5992,254,-606,512
11976.766,310,309,301,313,-14936,1012,5992,254,-606,512
11976.766,308,311,301,314,-14936,1012,5992,254,-606,512
11987.602,306,314,300,315,-14936,1012,5992,254,-606,512
11990.762,305,316,299,317,-15112,-264,4968,-134,-1048,1335
11999.515,304,317,299,320,-15112,-264,4968,-134,-1048,1335
11999.515,303,318,300,323,-15112,-264,4968,-134,-1048,1335
12009.959,303,319,299,326,-15112,-264,4968,-134,-1048,1335
12016.688,301,318,299,329,-15112,-264,4968,-134,-1048,1335
12021.276,300,318,300,332,-15112,-264,4968,-134,-1048,1335
12028.841,300,316,299,334,-15156,-564,5384,-1292,-2507,2706
12032.262,299,313,298,336,-15156,-564,5384,-1292,-2507,2706
12043.384,299,311,299,339,-15156,-564,5384,-1292,-2507,2706
12043.384,300,307,299,341,-15156,-564,5384,-1292,-2507,2706
12053.309,302,304,298,344,-15156,-564,5384,-1292,-2507,2706
12060.409,304,302,299,346,-15156,-564,5384,-1292,-2507,2706
12064.61,306,301,299,349,-14600,-188,4712,302,-4119,4536
12072.139,307,299,299,355,-14600,-188,4712,302,-4119,4536
12076.455,306,297,299,360,-14600,-188,4712,302,-4119,4536
12087.413,305,295,299,365,-14600,-188,4712,302,-4119,4536
12095.741,304,292,298,371,-14600,-188,4712,302,-4119,4536
12098.534,301,286,299,380,-14600,-188,4712,302,-4119,4536
12100.863,300,276,298,389,-14600,-188,4712,302,-4119,4536
12110.151,298,270,298,397,-14288,80,5096,-1015,-6171,6282
12119.829,296,267,298,404,-14288,80,5096,-1015,-6171,6282
12121.058,292,269,298,413,-14288,80,5096,-1015,-6171,6282
12131.499,290,272,297,421,-14288,80,5096,-1015,-6171,6282
12131.499,288,277,297,430,-14288,80,5096,-1015,-6171,6282
12142.681,286,285,298,438,-14288,80,5096,-1015,-6171,6282
12142.681,286,293,298,446,-13556,400,5004,-2204,-8105,7748
12153.918,284,301,299,452,-13556,400,5004,-2204,-8105,7748
12158.735,283,307,300,456,-13556,400,5004,-2204,-8105,7748
12164.9,282,314,301,457,-13556,400,5004,-2204,-8105,7748
12171.111,283,319,302,456,-13556,400,5004,-2204,-8105,7748
12175.685,285,321,304,454,-13556,400,5004,-2204,-8105,7748
12182.85,290,323,305,449,-13556,400,5004,-2204,-8105,7748
12187.454,296,327,305,440,-12196,1644,4768,-2525,-12105,9251
12198.938,303,331,308,431,-12196,1644,4768,-2525,-12105,9251
12203.842,312,334,310,422,-12196,1644,4768,-2525,-12105,9251
12210.293,326,336,312,411,-12196,1644,4768,-2525,-12105,9251
12217.81,339,337,312,402,-12196,1644,4768,-2525,-12105,9251
12223.451,356,337,316,392,-12196,1644,4768,-2525,-12105,9251
12232.617,371,336,319,383,-10788,2508,6156,-2947,-16041,10216
12236.951,387,332,322,373,-10788,2508,6156,-2947,-16041,10216
12242.316,400,326,325,364,-10788,2508,6156,-2947,-16041,10216
12253.571,409,320,325,356,-10788,2508,6156,-2947,-16041,10216
12256.447,417,315,328,348,-10788,2508,6156,-2947,-16041,10216
12266.007,423,310,330,341,-10788,2508,6156,-2947,-16041,10216
12266.007,428,305,332,333,-9048,4280,7904,-2883,-18592,10436
12276.312,430,293,336,323,-9048,4280,7904,-2883,-18592,10436
12281.583,429,283,341,317,-9048,4280,7904,-2883,-18592,10436
12287.219,427,269,345,308,-9048,4280,7904,-2883,-18592,10436
12298.522,420,256,348,303,-9048,4280,7904,-2883,-18592,10436
12301.917,404,243,349,298,-9048,4280,7904,-2883,-18592,10436
12311.134,387,239,351,293,-7036,5200,11060,-4750,-20275,9443
12311.134,359,238,354,289,-7036,5200,11060,-4750,-20275,9443
12320.92,333,239,356,287,-7036,5200,11060,-4750,-20275,9443
12331.206,300,245,358,285,-7036,5200,11060,-4750,-20275,9443
12334.302,273,251,359,284,-7036,5200,11060,-4750,-20275,9443
12344.301,245,261,360,284,-7036,5200,11060,-4750,-20275,9443
12344.301,223,271,361,284,-5104,7304,14220,-4237,-19455,7798
12354.124,200,282,363,286,-5104,7304,14220,-4237,-19455,7798
12365.585,184,290,363,290,-5104,7304,14220,-4237,-19455,7798
12367.157,163,298,360,291,-5104,7304,14220,-4237,-19455,7798
12375.987,148,304,358,295,-5104,7304,14220,-4237,-19455,7798
12378.479,129,310,354,300,-5104,7304,14220,-4237,-19455,7798
12387.843,114,314,348,302,-5104,7304,14220,-4237,-19455,7798
12392.75,98,319,341,305,-3296,6304,16084,-4535,-18743,5664
12398.807,85,323,329,310,-3296,6304,16084,-4535,-18743,5664
12410.683,74,327,321,315,-3296,6304,16084,-4535,-18743,5664
12410.683,61,329,312,320,-3296,6304,16084,-4535,-18743,5664
12420.698,52,325,305,324,-3296,6304,16084,-4535,-18743,5664
12420.698,44,320,295,327,-3296,6304,16084,-4535,-18743,5664
12431.971,36,314,285,329,-2588,7168,17956,-3678,-15238,4188
12437.217,27,300,276,331,-2588,7168,17956,-3678,-15238,4188
12442.31,20,286,270,331,-2588,7168,17956,-3678,-15238,4188
12454.08,14,266,262,330,-2588,7168,17956,-3678,-15238,4188
12457.475,6,250,257,330,-2588,7168,17956,-3678,-15238,4188
12466.015,0,240,251,326,-2588,7168,17956,-3678,-15238,4188
12466.015,0,238,247,321,-2340,5320,16984,-3322,-10904,2438
12476.969,0,240,243,318,-2340,5320,16984,-3322,-10904,2438
12483.247,0,247,236,316,-2340,5320,16984,-3322,-10904,2438
12487.422,0,258,223,313,-2340,5320,16984,-3322,-10904,2438
12494.697,0,272,210,310,-2340,5320,16984,-3322,-10904,2438
12498.495,0,284,191,309,-2340,5320,16984,-3322,-10904,2438
12508.967,0,289,163,306,-2340,5320,16984,-3322,-10904,2438
12510.686,1,281,145,302,-1556,4108,16032,-3627,-9744,2455
12520.637,3,271,137,302,-1556,4108,16032,-3627,-9744,2455
12528.689,5,263,136,299,-1556,4108,16032,-3627,-9744,2455
12531.932,7,255,145,299,-1556,4108,16032,-3627,-9744,2455
12542.222,11,249,155,299,-1556,4108,16032,-3627,-9744,2455
12543.091,17,246,167,299,-1556,4108,16032,-3627,-9744,2455
12553.938,28,253,181,300,-1136,1940,16856,-6148,-7933,1966
12554.653,40,261,197,301,-1136,1940,16856,-6148,-7933,1966
12565.129,54,274,215,303,-1136,1940,16856,-6148,-7933,1966
12565.129,69,289,232,305,-1136,1940,16856,-6148,-7933,1966
12576.211,90,307,257,308,-1136,1940,16856,-6148,-7933,1966
12580.508,107,326,278,311,-1136,1940,16856,-6148,-7933,1966
12587.686,125,342,296,312,64,2032,19260,-5910,-8223,3126
12598.213,145,357,315,313,64,2032,19260,-5910,-8223,3126
12600.697,160,369,328,315,64,2032,19260,-5910,-8223,3126
12600.697,180,382,343,315,64,2032,19260,-5910,-8223,3126
12610.775,200,393,357,313,64,2032,19260,-5910,-8223,3126
12617.548,220,404,369,313,64,2032,19260,-5910,-8223,3126
12621.024,239,414,380,311,64,2032,19260,-5910,-8223,3126
12632.229,257,424,387,309,892,4680,18008,346,-8251,3453
12640.23,276,433,394,307,892,4680,18008,346,-8251,3453
12643.022,287,439,394,305,892,4680,18008,346,-8251,3453
12651.079,302,445,390,302,892,4680,18008,346,-8251,3453
12653.991,314,448,385,301,892,4680,18008,346,-8251,3453
12657.533,326,450,379,300,892,4680,18008,346,-8251,3453
12664.904,335,451,373,298,892,4680,18008,346,-8251,3453
12670.288,346,450,365,294,3648,15976,29176,9008,-2544,-49
12675.656,358,447,360,291,3648,15976,29176,9008,-2544,-49
12682.882,369,442,356,289,3648,15976,29176,9008,-2544,-49
12686.779,381,438,355,287,3648,15976,29176,9008,-2544,-49
12697.872,392,433,355,285,3648,15976,29176,9008,-2544,-49
12698.596,402,425,355,284,3648,15976,29176,9008,-2544,-49
12709.676,412,418,354,281,80,2000,11900,3852,1768,-1048
12710.681,424,411,354,278,80,2000,11900,3852,1768,-1048
12721.081,431,406,353,276,80,2000,11900,3852,1768,-1048
12730.659,438,400,350,273,80,2000,11900,3852,1768,-1048
12734.166,444,395,347,269,80,2000,11900,3852,1768,-1048
12742.063,449,391,344,267,80,2000,11900,3852,1768,-1048
12743.888,454,385,340,264,80,2000,11900,3852,1768,-1048
12751.89,459,380,336,261,188,3916,17036,-6817,-1092,1008
12754.517,464,373,333,259,188,3916,17036,-6817,-1092,1008
12760.823,467,368,330,258,188,3916,17036,-6817,-1092,1008
12765.3,471,362,327,255,188,3916,17036,-6817,-1092,1008
12776.333,474,355,322,253,188,3916,17036,-6817,-1092,1008
12781.144,477,350,319,253,188,3916,17036,-6817,-1092,1008
12787.188,480,345,315,251,188,3916,17036,-6817,-1092,1008
12793.786,484,340,311,249,-652,2428,15308,1489,965,-73
12798.643,487,333,309,249,-652,2428,15308,1489,965,-73
12801.81,489,329,307,249,-652,2428,15308,1489,965,-73
12810.722,492,325,304,249,-652,2428,15308,1489,965,-73
12819.894,495,320,300,249,-652,2428,15308,1489,965,-73
12821.238,499,316,298,249,-652,2428,15308,1489,965,-73
12827.432,505,311,294,249,-652,2428,15308,1489,965,-73
12831.628,509,308,291,249,488,3692,16352,2365,-1130,-259
12838.154,516,304,287,250,488,3692,16352,2365,-1130,-259
12843.191,523,301,283,249,488,3692,16352,2365,-1130,-259
12853.316,531,298,279,249,488,3692,16352,2365,-1130,-259
12853.951,538,295,276,249,488,3692,16352,2365,-1130,-259
12865.832,546,292,273,250,488,3692,16352,2365,-1130,-259
12866.521,554,289,269,250,240,3680,15596,3061,107,-421
12876.304,561,286,267,251,240,3680,15596,3061,107,-421
12876.304,565,284,267,252,240,3680,15596,3061,107,-421
12887.697,569,283,265,252,240,3680,15596,3061,107,-421
12887.697,572,280,265,252,240,3680,15596,3061,107,-421
12898.494,574,279,264,253,240,3680,15596,3061,107,-421
12904.154,575,277,263,254,240,3680,15596,3061,107,-421
12910.966,575,274,263,254,328,4008,15836,990,-273,-125
12912.013,573,271,263,255,328,4008,15836,990,-273,-125
12920.108,571,270,264,256,328,4008,15836,990,-273,-125
12931.334,568,269,263,256,328,4008,15836,990,-273,-125
12932.102,564,268,263,257,328,4008,15836,990,-273,-125
12932.102,559,266,264,258,328,4008,15836,990,-273,-125
12942.604,553,265,265,258,328,4008,15836,990,-273,-125
12942.604,547,264,266,259,116,3904,15480,-870,53,-19
12953.858,541,263,267,260,116,3904,15480,-870,53,-19
12953.858,535,262,268,261,116,3904,15480,-870,53,-19
12964.827,530,262,268,262,116,3904,15480,-870,53,-19
12975.296,524,261,269,262,116,3904,15480,-870,53,-19
12976.641,519,261,270,264,116,3904,15480,-870,53,-19
12984.291,514,260,272,265,116,3904,15480,-870,53,-19
12986.955,511,260,272,265,116,3904,15480,-870,53,-19
12995.091,506,259,274,267,276,3768,15488,-598,-24,-27
12998.592,501,259,276,268,276,3768,15488,-598,-24,-27
13002.722,498,258,276,269,276,3768,15488,-598,-24,-27
13011.038,492,258,276,269,276,3768,15488,-598,-24,-27
13021.171,487,257,278,270,276,3768,15488,-598,-24,-27
13021.171,482,257,278,271,276,3768,15488,-598,-24,-27
13027.203,476,257,278,271,276,3768,15488,-598,-24,-27
13031.779,470,257,280,272,312,3776,15592,747,-31,-97
13039.656,463,257,281,273,312,3776,15592,747,-31,-97
13042.881,458,257,281,274,312,3776,15592,747,-31,-97
13047.729,450,257,282,274,312,3776,15592,747,-31,-97
13054.846,442,257,283,275,312,3776,15592,747,-31,-97
13054.846,434,258,284,276,312,3776,15592,747,-31,-97
13065.398,426,258,284,276,312,3776,15592,747,-31,-97
13072.039,417,258,284,277,276,3972,15804,983,-35,-133
13076.705,408,259,285,278,276,3972,15804,983,-35,-133
13086.706,401,259,286,279,276,3972,15804,983,-35,-133
13087.975,393,259,285,278,276,3972,15804,983,-35,-133
13098.098,387,260,285,279,276,3972,15804,983,-35,-133
13098.098,380,260,286,280,276,3972,15804,983,-35,-133
13105.341,373,261,285,280,276,3972,15804,983,-35,-133
13111.268,367,261,285,281,184,3924,15364,446,-55,-61
13117.275,360,261,285,282,184,3924,15364,446,-55,-61
13121.398,355,261,285,283,184,3924,15364,446,-55,-61
13131.553,350,261,284,283,184,3924,15364,446,-55,-61
13131.553,346,261,284,283,184,3924,15364,446,-55,-61
13131.553,340,261,285,284,184,3924,15364,446,-55,-61
13143.383,336,262,285,284,184,3924,15364,446,-55,-61
13149.855,331,262,285,284,260,4080,15540,-177,-75,-17
13154.252,326,263,286,285,260,4080,15540,-177,-75,-17
13164.643,322,263,286,286,260,4080,15540,-177,-75,-17
13165.54,320,263,287,286,260,4080,15540,-177,-75,-17
13170.41,316,263,287,287,260,4080,15540,-177,-75,-17
13177.208,311,263,288,288,260,4080,15540,-177,-75,-17
13183.095,308,264,288,288,260,4080,15540,-177,-75,-17
13187.511,304,264,286,289,224,4112,15792,-254,-2,1
13198.009,301,265,286,289,224,4112,15792,-254,-2,1
13199.437,298,265,286,290,224,4112,15792,-254,-2,1
13209.286,295,265,287,291,224,4112,15792,-254,-2,1
13211.4,293,264,287,291,224,4112,15792,-254,-2,1
13211.4,291,264,286,292,224,4112,15792,-254,-2,1
13221.904,289,265,285,293,224,4112,15792,-254,-2,1
13229.955,287,266,284,292,224,4112,15792,-254,-2,1
13232.238,285,266,284,293,260,4004,15536,260,31,-57
13235.971,283,268,285,294,260,4004,15536,260,31,-57
13243.352,282,267,285,295,260,4004,15536,260,31,-57
13250.627,282,269,283,295,260,4004,15536,260,31,-57
13253.709,281,269,283,295,260,4004,15536,260,31,-57
13256.414,280,270,285,296,260,4004,15536,260,31,-57
13264.565,279,270,285,297,260,4004,15536,260,31,-57
13264.565,279,271,285,297,248,3956,15424,569,-59,7
13272.395,278,273,286,298,248,3956,15424,569,-59,7
13276.884,278,273,287,299,248,3956,15424,569,-59,7
13287.259,277,273,288,300,248,3956,15424,569,-59,7
13287.259,277,274,288,300,248,3956,15424,569,-59,7
13298.384,277,274,290,300,248,3956,15424,569,-59,7
13298.384,277,275,291,301,248,3956,15424,569,-59,7
13305.328,277,275,292,301,248,3956,15424,569,-59,7
13311.341,278,275,293,302,340,4184,15580,399,-106,26
13317.777,278,276,295,303,340,4184,15580,399,-106,26
13322.142,278,277,297,304,340,4184,15580,399,-106,26
13331.937,278,277,297,304,340,4184,15580,399,-106,26
13331.937,279,278,298,305,340,4184,15580,399,-106,26
13339.105,280,278,300,307,340,4184,15580,399,-106,26
13343.094,281,279,301,307,340,4184,15580,399,-106,26
13351.23,282,279,301,306,288,4176,15568,-86,-12,-44
13354.122,283,279,302,307,288,4176,15568,-86,-12,-44
13358.83,284,281,302,307,288,4176,15568,-86,-12,-44
13365.699,286,282,301,307,288,4176,15568,-86,-12,-44
13371.666,288,282,301,308,288,4176,15568,-86,-12,-44
13376.266,289,282,302,309,288,4176,15568,-86,-12,-44
13383.483,290,283,302,309,288,4176,15568,-86,-12,-44
13388.007,293,283,301,309,288,4176,15568,-86,-12,-44
13391.632,294,282,301,310,308,4104,15564,-30,19,-36
13399.442,296,283,301,310,308,4104,15564,-30,19,-36
13399.442,297,284,301,310,308,4104,15564,-30,19,-36
13411.459,297,284,300,310,308,4104,15564,-30,19,-36
13411.459,299,285,301,310,308,4104,15564,-30,19,-36
13420.432,300,285,301,310,308,4104,15564,-30,19,-36
13423.854,302,285,300,310,308,4104,15564,-30,19,-36
13431.594,303,286,299,310,292,4048,15540,160,-17,-61
13436.583,305,286,300,311,292,4048,15540,160,-17,-61
13442.734,305,286,300,310,292,4048,15540,160,-17,-61
13448.464,306,287,300,310,292,4048,15540,160,-17,-61
13453.415,307,287,299,310,292,4048,15540,160,-17,-61
13456.78,308,288,299,311,292,4048,15540,160,-17,-61
13465.261,308,288,299,311,292,4048,15540,160,-17,-61
13465.261,309,288,298,310,292,4240,15600,146,-23,-43
13476.527,310,289,299,310,292,4240,15600,146,-23,-43
13482.917,310,288,298,310,292,4240,15600,146,-23,-43
13486.739,310,289,298,310,292,4240,15600,146,-23,-43
13486.739,311,289,298,310,292,4240,15600,146,-23,-43
13499.245,310,289,298,311,292,4240,15600,146,-23,-43
13499.245,311,289,298,311,292,4240,15600,146,-23,-43
13511.73,311,290,297,310,292,4240,15600,146,-23,-43
13515.142,311,290,297,310,280,4180,15600,5,-28,-64
13520.205,312,290,298,311,280,4180,15600,5,-28,-64
13520.205,311,290,298,311,280,4180,15600,5,-28,-64
13531.818,312,291,298,310,280,4180,15600,5,-28,-64
13531.818,312,291,298,311,280,4180,15600,5,-28,-64
13543.407,312,291,298,312,280,4180,15600,5,-28,-64
13543.407,312,292,298,311,280,4180,15600,5,-28,-64
13553.932,312,291,298,311,280,4260,15500,-132,13,-48
13554.076,312,292,300,311,280,4260,15500,-132,13,-48
13565.056,311,292,300,312,280,4260,15500,-132,13,-48
13565.056,311,292,300,312,280,4260,15500,-132,13,-48
13572.202,310,293,300,312,280,4260,15500,-132,13,-48
13576.281,309,293,301,313,280,4260,15500,-132,13,-48
13584.138,309,293,301,313,280,4260,15500,-132,13,-48
13588.563,309,293,301,313,280,4260,15500,-132,13,-48
13598.513,309,294,301,313,296,4184,15512,-132,34,-75
13598.513,309,293,302,313,296,4184,15512,-132,34,-75
13609.456,309,294,301,313,296,4184,15512,-132,34,-75
13611.982,308,294,301,313,296,4184,15512,-132,34,-75
13619.572,307,295,302,314,296,4184,15512,-132,34,-75
13620.996,308,296,302,314,296,4184,15512,-132,34,-75
13631.677,307,296,301,313,296,4184,15512,-132,34,-75
13632.016,306,297,301,313,248,4088,15504,-130,49,-74
13642.934,308,296,302,314,248,4088,15504,-130,49,-74
13642.934,307,296,301,314,248,4088,15504,-130,49,-74
13650.01,306,296,301,313,248,4088,15504,-130,49,-74
13654.007,306,297,301,314,248,4088,15504,-130,49,-74
13664.867,305,296,301,314,248,4088,15504,-130,49,-74
13665.723,305,296,300,314,248,4088,15504,-130,49,-74
13676.184,305,297,300,313,344,4160,15444,107,-38,-5
13677.874,304,297,301,314,344,4160,15444,107,-38,-5
13677.874,303,297,300,314,344,4160,15444,107,-38,-5
13688.385,303,297,300,313,344,4160,15444,107,-38,-5
13694.61,302,298,300,314,344,4160,15444,107,-38,-5
13698.928,301,298,300,314,344,4160,15444,107,-38,-5
13709.336,300,299,300,314,344,4160,15444,107,-38,-5
13712.051,299,298,299,314,268,4160,15544,137,-52,-24
13712.051,297,299,300,315,268,4160,15544,137,-52,-24
13720.81,296,299,300,315,268,4160,15544,137,-52,-24
13727.302,295,299,300,315,268,4160,15544,137,-52,-24
13731.897,295,300,300,315,268,4160,15544,137,-52,-24
13736.498,293,300,301,315,268,4160,15544,137,-52,-24
13743.98,292,300,300,315,268,4160,15544,137,-52,-24
13743.98,292,300,300,315,268,4160,15544,137,-52,-24
13754.115,291,300,301,316,284,4236,15512,60,-24,-51
13760.44,290,300,301,316,284,4236,15512,60,-24,-51
13765.213,291,300,300,316,284,4236,15512,60,-24,-51
13774.168,291,300,301,315,284,4236,15512,60,-24,-51
13776.942,291,300,301,316,284,4236,15512,60,-24,-51
13776.942,291,300,301,316,284,4236,15512,60,-24,-51
13787.464,291,300,301,315,284,4236,15512,60,-24,-51
13795.466,291,301,301,315,236,4184,15536,54,4,-39
13797.855,291,301,302,316,236,4184,15536,54,4,-39
13800.556,291,301,302,316,236,4184,15536,54,4,-39
13809.458,291,301,302,316,236,4184,15536,54,4,-39
13812.52,291,302,302,316,236,4184,15536,54,4,-39
13812.52,291,302,303,317,236,4184,15536,54,4,-39
13820.416,290,302,303,317,236,4184,15536,54,4,-39
13831.518,289,302,303,316,236,4184,15536,54,4,-39
13833.467,289,303,303,317,292,4192,15612,-189,17,-22
13833.467,289,302,304,318,292,4192,15612,-189,17,-22
13843.579,288,303,304,318,292,4192,15612,-189,17,-22
13850.268,288,303,303,317,292,4192,15612,-189,17,-22
13854.235,287,303,304,318,292,4192,15612,-189,17,-22
13864.636,288,303,304,318,292,4192,15612,-189,17,-22
13865.906,287,303,304,318,292,4192,15612,-189,17,-22
13874.005,287,304,304,318,236,4176,15512,-85,47,-36
13876.469,288,304,304,319,236,4176,15512,-85,47,-36
13883.047,288,304,304,319,236,4176,15512,-85,47,-36
13887.566,289,305,303,318,236,4176,15512,-85,47,-36
13892.315,289,304,303,319,236,4176,15512,-85,47,-36
13899.467,289,305,304,319,236,4176,15512,-85,47,-36
13899.467,291,305,303,319,236,4176,15512,-85,47,-36
13912.096,291,305,302,319,236,4176,15512,-85,47,-36
13915.838,291,305,302,319,280,4164,15492,-131,8,-40
13920.102,291,306,303,320,280,4164,15492,-131,8,-40
13920.102,292,305,303,320,280,4164,15492,-131,8,-40
13932.526,292,306,303,319,280,4164,15492,-131,8,-40
13932.526,292,306,303,320,280,4164,15492,-131,8,-40
13943.262,292,305,303,320,280,4164,15492,-131,8,-40
13943.262,291,306,303,319,280,4164,15492,-131,8,-40
13954.013,292,305,303,319,244,4068,15468,-240,92,-29
13954.013,290,306,304,320,244,4068,15468,-240,92,-29
13965.238,290,306,305,320,244,4068,15468,-240,92,-29
13969.248,289,307,305,319,244,4068,15468,-240,92,-29
13976.034,288,306,305,320,244,4068,15468,-240,92,-29
13980.764,288,306,307,320,244,4068,15468,-240,92,-29
13986.823,287,306,307,320,244,4068,15468,-240,92,-29
13989.646,286,307,306,320,256,4140,15472,-179,83,-15
13999.07,285,307,307,320,256,4140,15472,-179,83,-15
13999.07,283,307,307,320,256,4140,15472,-179,83,-15
14012.011,283,307,307,320,256,4140,15472,-179,83,-15
14013.869,282,308,308,320,256,4140,15472,-179,83,-15
14020.812,281,307,308,320,256,4140,15472,-179,83,-15
14022.07,281,306,308,320,256,4140,15472,-179,83,-15
14032.102,280,307,307,319,256,4140,15472,-179,83,-15
14032.102,279,307,308,320,240,4192,15568,-35,43,17
14039.146,278,308,309,320,240,4192,15568,-35,43,17
14043.504,277,308,309,320,240,4192,15568,-35,43,17
14051.251,277,308,309,319,240,4192,15568,-35,43,17
14054.705,276,308,310,319,240,4192,15568,-35,43,17
14064.837,276,308,310,320,240,4192,15568,-35,43,17
14064.837,277,308,310,319,240,4192,15568,-35,43,17
14072.131,277,308,310,319,276,4160,15516,213,-56,42
14076.398,276,308,310,320,276,4160,15516,213,-56,42
14083.799,276,308,310,319,276,4160,15516,213,-56,42
14087.854,276,308,310,319,276,4160,15516,213,-56,42
14091.261,277,308,310,319,276,4160,15516,213,-56,42
14097.783,277,308,311,319,276,4160,15516,213,-56,42
14103.555,278,308,310,318,276,4160,15516,213,-56,42
14108.97,278,308,310,318,276,4160,15516,213,-56,42
14111.986,279,308,311,319,228,4076,15576,51,23,-5
14120.998,280,309,311,319,228,4076,15576,51,23,-5
14120.998,280,309,311,318,228,4076,15576,51,23,-5
14131.242,281,309,311,318,228,4076,15576,51,23,-5
14132.026,282,309,311,318,228,4076,15576,51,23,-5
14142.863,282,310,312,318,228,4076,15576,51,23,-5
14142.863,283,310,311,318,228,4076,15576,51,23,-5
14149.433,284,310,311,318,228,4076,15576,51,23,-5
14153.42,285,310,312,318,252,4088,15464,-43,15,-41
14161.176,286,311,311,318,252,4088,15464,-43,15,-41
14165.248,286,311,311,317,252,4088,15464,-43,15,-41
14169.924,288,311,310,317,252,4088,15464,-43,15,-41
14176.543,289,311,310,317,252,4088,15464,-43,15,-41
14176.543,290,311,309,317,252,4088,15464,-43,15,-41
14187.463,292,312,307,316,252,4088,15464,-43,15,-41
14194.452,294,313,306,316,224,4248,15588,-122,40,-42
14199.069,297,313,305,316,224,4248,15588,-122,40,-42
14208.932,299,313,303,316,224,4248,15588,-122,40,-42
14212.028,300,313,302,316,224,4248,15588,-122,40,-42
14212.028,302,314,301,316,224,4248,15588,-122,40,-42
14220.733,304,314,300,316,224,4248,15588,-122,40,-42
14227.927,306,314,298,315,224,4248,15588,-122,40,-42
14232.011,308,314,297,315,272,4144,15476,-90,-8,-42
14242.312,311,314,297,315,272,4144,15476,-90,-8,-42
14242.973,312,314,295,315,272,4144,15476,-90,-8,-42
