Time (ms),EMG1,EMG2,EMG3,EMG4,AccX,AccY,AccZ,GyroX,GyroY,GyroZ
1546.326,0,0,0,0,0,0,0,0,0,0
1546.326,0,0,0,0,0,0,0,0,0,0
1546.326,317,304,295,308,0,0,0,0,0,0
1546.326,317,304,295,308,0,0,0,0,0,0
1558.438,317,304,295,308,0,0,0,0,0,0
1558.438,317,304,295,308,0,0,0,0,0,0
1565.585,317,304,295,307,0,0,0,0,0,0
1565.585,317,304,295,308,0,0,0,0,0,0
1571.919,317,304,295,308,0,0,0,0,0,0
1572.81,317,304,295,307,0,0,0,0,0,0
1578.4080000000001,317,304,295,308,0,0,0,0,0,0
1578.4080000000001,316,304,295,307,0,0,0,0,0,0
1586.4199999999998,315,304,295,307,0,0,0,0,0,0
1588.14,315,304,296,307,0,0,0,0,0,0
1593.778,315,304,296,308,1156,6444,14700,-121,20,-14
1598.463,314,304,297,307,1156,6444,14700,-121,20,-14
1605.544,314,303,298,307,1156,6444,14700,-121,20,-14
1610.296,314,303,299,307,1156,6444,14700,-121,20,-14
1619.4789999999998,314,303,300,307,1156,6444,14700,-121,20,-14
1621.903,313,303,300,307,1156,6444,14700,-121,20,-14
1631.78,313,302,301,307,1156,6444,14700,-121,20,-14
1634.144,311,302,302,307,1156,6444,14700,-121,20,-14
1634.144,311,302,302,306,1108,6412,14724,-79,26,3
1643.44,309,301,302,306,1108,6412,14724,-79,26,3
1646.438,309,301,303,306,1108,6412,14724,-79,26,3
1654.9089999999999,309,300,304,306,1108,6412,14724,-79,26,3
1654.9089999999999,308,300,305,306,1108,6412,14724,-79,26,3
1665.467,308,300,306,305,1108,6412,14724,-79,26,3
1671.9759999999999,307,300,306,305,1108,6412,14724,-79,26,3
1676.463,307,300,307,305,1128,6448,14764,-71,17,-7
1679.721,305,299,308,305,1128,6448,14764,-71,17,-7
1688.672,305,300,308,305,1128,6448,14764,-71,17,-7
1688.672,305,299,309,305,1128,6448,14764,-71,17,-7
1698.745,305,300,309,305,1128,6448,14764,-71,17,-7
1706.764,304,298,308,304,1128,6448,14764,-71,17,-7
1709.867,304,299,308,305,1128,6448,14764,-71,17,-7
1712.085,304,299,308,305,1128,6448,14764,-71,17,-7
1721.221,304,299,307,305,1156,6476,14792,-15,-4,-9
1726.494,303,300,307,305,1156,6476,14792,-15,-4,-9
1726.494,304,300,307,305,1156,6476,14792,-15,-4,-9
1732.791,304,300,306,305,1156,6476,14792,-15,-4,-9
1742.972,304,299,305,305,1156,6476,14792,-15,-4,-9
1742.972,304,299,304,305,1156,6476,14792,-15,-4,-9
1754.2359999999999,305,299,304,306,1156,6476,14792,-15,-4,-9
1754.2359999999999,304,299,303,305,1140,6444,14740,-67,16,-5
1762.421,304,299,302,305,1140,6444,14740,-67,16,-5
1765.3239999999998,304,299,303,305,1140,6444,14740,-67,16,-5
1776.275,305,299,302,306,1140,6444,14740,-67,16,-5
1776.317,305,299,302,306,1140,6444,14740,-67,16,-5
1787.284,305,299,302,306,1140,6444,14740,-67,16,-5
1789.744,305,299,302,306,1140,6444,14740,-67,16,-5
1797.765,305,299,303,306,1136,6460,14756,-93,29,-39
1800.003,304,299,303,306,1136,6460,14756,-93,29,-39
1806.354,304,300,304,306,1136,6460,14756,-93,29,-39
1810.086,304,299,304,306,1136,6460,14756,-93,29,-39
1820.773,304,299,305,306,1136,6460,14756,-93,29,-39
1822.365,304,299,305,306,1136,6460,14756,-93,29,-39
1826.382,304,299,307,306,1136,6460,14756,-93,29,-39
1832.4689999999998,305,299,307,306,1136,6460,14756,-93,29,-39
1841.55,304,299,308,306,1164,6440,14716,-60,24,-11
1842.415,304,298,309,305,1164,6440,14716,-60,24,-11
1847.087,303,298,310,306,1164,6440,14716,-60,24,-11
1854.023,303,299,310,306,1164,6440,14716,-60,24,-11
1859.9170000000001,303,298,310,305,1164,6440,14716,-60,24,-11
1864.921,303,298,311,305,1164,6440,14716,-60,24,-11
1871.712,303,298,311,306,1164,6440,14716,-60,24,-11
1876.9009999999998,303,298,311,305,1176,6412,14760,-114,33,-3
1879.78,302,297,310,305,1176,6412,14760,-114,33,-3
1887.18,301,298,310,305,1176,6412,14760,-114,33,-3
1892.8020000000001,301,298,310,305,1176,6412,14760,-114,33,-3
1898.652,301,298,310,305,1176,6412,14760,-114,33,-3
1904.587,300,298,309,305,1176,6412,14760,-114,33,-3
1909.731,300,298,309,305,1176,6412,14760,-114,33,-3
1913.391,301,298,308,305,1120,6436,14716,-75,-8,-2
1921.378,300,298,308,305,1120,6436,14716,-75,-8,-2
1926.3870000000002,300,297,307,305,1120,6436,14716,-75,-8,-2
1931.7450000000001,300,298,307,305,1120,6436,14716,-75,-8,-2
1937.509,300,298,306,305,1120,6436,14716,-75,-8,-2
1942.6490000000001,299,297,305,305,1120,6436,14716,-75,-8,-2
1952.652,300,298,305,305,1120,6436,14716,-75,-8,-2
1954.7179999999998,300,298,304,305,1120,6436,14716,-75,-8,-2
1954.7179999999998,300,298,303,305,1096,6392,14756,-85,23,-18
1967.706,300,297,302,305,1096,6392,14756,-85,23,-18
1969.695,300,298,301,306,1096,6392,14756,-85,23,-18
1975.9759999999999,300,298,300,305,1096,6392,14756,-85,23,-18
1975.9759999999999,300,298,299,305,1096,6392,14756,-85,23,-18
1987.6670000000001,300,298,298,305,1096,6392,14756,-85,23,-18
1987.6670000000001,300,298,299,305,1096,6392,14756,-85,23,-18
1998.524,301,299,298,305,1160,6416,14724,-80,-8,12
2002.9819999999997,301,298,297,305,1160,6416,14724,-80,-8,12
2009.3990000000001,301,298,297,305,1160,6416,14724,-80,-8,12
2009.3990000000001,302,298,297,305,1160,6416,14724,-80,-8,12
2020.528,301,298,296,305,1160,6416,14724,-80,-8,12
2020.528,300,298,296,305,1160,6416,14724,-80,-8,12
2032.081,301,299,296,305,1160,6416,14724,-80,-8,12
2032.081,302,299,297,305,1108,6428,14744,-68,54,-21
2040.7790000000002,302,298,296,305,1108,6428,14744,-68,54,-21
2046.7309999999998,302,298,296,305,1108,6428,14744,-68,54,-21
2054.399,302,298,297,306,1108,6428,14744,-68,54,-21
2054.399,302,298,297,305,1108,6428,14744,-68,54,-21
2065.4469999999997,302,298,297,305,1108,6428,14744,-68,54,-21
2065.4469999999997,303,298,297,305,1108,6428,14744,-68,54,-21
2074.8160000000003,303,299,298,305,1108,6428,14744,-68,54,-21
2076.787,303,298,298,305,1116,6484,14780,-124,12,-21
2087.476,304,298,299,305,1116,6484,14780,-124,12,-21
2095.7819999999997,304,298,300,305,1116,6484,14780,-124,12,-21
2099.122,304,298,301,306,1116,6484,14780,-124,12,-21
2099.122,304,298,301,305,1116,6484,14780,-124,12,-21
2110.757,303,299,302,305,1116,6484,14780,-124,12,-21
2110.757,304,299,302,306,1116,6484,14780,-124,12,-21
2118.897,304,299,302,306,1176,6344,14696,-75,13,-27
2126.576,303,299,302,305,1176,6344,14696,-75,13,-27
2132.018,304,298,302,305,1176,6344,14696,-75,13,-27
2132.018,304,298,303,305,1176,6344,14696,-75,13,-27
2141.1859999999997,304,298,303,305,1176,6344,14696,-75,13,-27
2149.187,304,299,304,305,1176,6344,14696,-75,13,-27
2152.399,304,298,305,305,1176,6344,14696,-75,13,-27
2157.993,304,298,306,305,1140,6460,14808,-126,6,-44
2165.046,304,298,306,304,1140,6460,14808,-126,6,-44
2165.046,305,298,306,305,1140,6460,14808,-126,6,-44
2176.282,305,298,307,305,1140,6460,14808,-126,6,-44
2179.228,305,297,307,305,1140,6460,14808,-126,6,-44
2188.739,304,297,307,304,1140,6460,14808,-126,6,-44
2188.739,304,298,307,305,1140,6460,14808,-126,6,-44
2195.739,304,298,307,305,1112,6420,14736,-84,-22,-26
2206.704,303,298,307,304,1112,6420,14736,-84,-22,-26
2208.882,303,297,307,304,1112,6420,14736,-84,-22,-26
2210.508,303,298,307,304,1112,6420,14736,-84,-22,-26
2220.798,303,298,306,304,1112,6420,14736,-84,-22,-26
2226.6119999999996,303,298,306,304,1112,6420,14736,-84,-22,-26
2232.015,303,297,306,304,1112,6420,14736,-84,-22,-26
2235.7749999999996,304,299,306,304,1144,6440,14716,-56,-7,-29
2243.089,303,298,304,304,1144,6440,14716,-56,-7,-29
2245.985,303,298,304,304,1144,6440,14716,-56,-7,-29
2254.5969999999998,303,298,304,304,1144,6440,14716,-56,-7,-29
2257.127,304,298,302,304,1144,6440,14716,-56,-7,-29
2265.706,304,298,301,304,1144,6440,14716,-56,-7,-29
2265.706,304,299,299,304,1144,6440,14716,-56,-7,-29
2272.801,304,298,299,305,1144,6440,14716,-56,-7,-29
2277.269,304,298,297,304,1164,6444,14672,-93,35,-8
2288.13,303,299,296,304,1164,6444,14672,-93,35,-8
2288.13,304,299,295,304,1164,6444,14672,-93,35,-8
2298.734,304,299,294,305,1164,6444,14672,-93,35,-8
2298.734,304,299,293,304,1164,6444,14672,-93,35,-8
2308.771,304,299,292,304,1164,6444,14672,-93,35,-8
2310.234,305,299,292,305,1164,6444,14672,-93,35,-8
2320.744,304,299,291,304,1152,6400,14700,-100,26,-34
2320.744,304,299,291,304,1152,6400,14700,-100,26,-34
2332.086,304,300,291,305,1152,6400,14700,-100,26,-34
2334.932,304,299,291,305,1152,6400,14700,-100,26,-34
2341.1240000000003,305,300,291,305,1152,6400,14700,-100,26,-34
2343.347,304,299,292,304,1152,6400,14700,-100,26,-34
2350.971,303,299,293,305,1152,6400,14700,-100,26,-34
2354.833,303,299,294,305,1176,6388,14700,-44,-4,-18
2365.893,302,299,294,304,1176,6388,14700,-44,-4,-18
2367.252,302,299,295,304,1176,6388,14700,-44,-4,-18
2377.124,303,299,297,304,1176,6388,14700,-44,-4,-18
2377.124,303,299,297,304,1176,6388,14700,-44,-4,-18
2385.618,303,299,298,304,1176,6388,14700,-44,-4,-18
2388.1389999999997,303,298,299,304,1176,6388,14700,-44,-4,-18
2398.841,303,298,299,304,1176,6388,14700,-44,-4,-18
2398.841,302,298,300,303,1208,6388,14788,-112,42,-23
2409.404,302,299,300,303,1208,6388,14788,-112,42,-23
2412.1169999999997,302,299,300,304,1208,6388,14788,-112,42,-23
2412.1169999999997,303,299,300,303,1208,6388,14788,-112,42,-23
2426.828,302,298,300,303,1208,6388,14788,-112,42,-23
2430.033,303,298,301,303,1208,6388,14788,-112,42,-23
2435.87,303,299,300,303,1208,6388,14788,-112,42,-23
2443.832,303,298,300,303,1124,6476,14804,-21,77,-56
2443.832,303,299,299,304,1124,6476,14804,-21,77,-56
2454.329,303,299,298,304,1124,6476,14804,-21,77,-56
2454.329,303,299,297,304,1124,6476,14804,-21,77,-56
2463.211,303,299,297,303,1124,6476,14804,-21,77,-56
2468.9230000000002,305,299,295,304,1124,6476,14804,-21,77,-56
2476.3700000000003,305,299,295,304,1124,6476,14804,-21,77,-56
2476.3700000000003,305,300,295,303,1152,6356,14544,-122,49,-9
2488.374,305,300,294,303,1152,6356,14544,-122,49,-9
2488.374,304,300,295,304,1152,6356,14544,-122,49,-9
2497.0409999999997,304,301,295,304,1152,6356,14544,-122,49,-9
2499.616,304,300,295,304,1152,6356,14544,-122,49,-9
2509.3869999999997,304,300,295,304,1152,6356,14544,-122,49,-9
2509.3869999999997,305,300,296,304,1152,6356,14544,-122,49,-9
2520.426,305,300,295,304,1100,6424,14840,-33,55,-56
2520.426,305,300,295,304,1100,6424,14840,-33,55,-56
2527.663,305,300,295,305,1100,6424,14840,-33,55,-56
2532.2909999999997,304,300,295,305,1100,6424,14840,-33,55,-56
2540.617,304,301,294,305,1100,6424,14840,-33,55,-56
2545.983,304,301,294,305,1100,6424,14840,-33,55,-56
2547.8390000000004,304,301,294,305,1100,6424,14840,-33,55,-56
2558.287,306,301,293,306,1216,6536,14840,12,-81,-11
2562.475,306,301,292,306,1216,6536,14840,12,-81,-11
2565.611,307,301,292,306,1216,6536,14840,12,-81,-11
2572.9410000000003,306,301,292,306,1216,6536,14840,12,-81,-11
2576.892,307,301,292,306,1216,6536,14840,12,-81,-11
2584.737,307,301,291,306,1216,6536,14840,12,-81,-11
2587.8329999999996,307,301,292,306,1216,6536,14840,12,-81,-11
2599.3650000000002,307,302,291,306,1216,6536,14840,12,-81,-11
2600.4320000000002,307,302,290,306,1148,6428,14588,-198,71,-26
2600.4320000000002,308,302,290,306,1148,6428,14588,-198,71,-26
2611.051,308,302,291,306,1148,6428,14588,-198,71,-26
2617.575,308,303,291,306,1148,6428,14588,-198,71,-26
2620.978,307,303,290,306,1148,6428,14588,-198,71,-26
2632.024,308,302,290,306,1148,6428,14588,-198,71,-26
2633.4939999999997,308,302,291,306,1148,6428,14588,-198,71,-26
2644.016,308,302,292,306,1040,6504,14632,-181,42,-18
2644.016,309,301,293,306,1040,6504,14632,-181,42,-18
2650.15,308,302,294,306,1040,6504,14632,-181,42,-18
2654.3199999999997,309,301,296,306,1040,6504,14632,-181,42,-18
2662.992,307,301,297,306,1040,6504,14632,-181,42,-18
2665.3959999999997,307,301,297,306,1040,6504,14632,-181,42,-18
2676.081,307,301,298,306,1040,6504,14632,-181,42,-18
2676.081,307,301,299,306,1084,6120,14524,1,-46,-4
2682.8959999999997,307,301,300,306,1084,6120,14524,1,-46,-4
2687.831,307,301,301,306,1084,6120,14524,1,-46,-4
2694.8059999999996,307,301,302,306,1084,6120,14524,1,-46,-4
2699.086,307,301,303,306,1084,6120,14524,1,-46,-4
2704.033,307,301,304,305,1084,6120,14524,1,-46,-4
2711.076,306,301,305,306,1084,6120,14524,1,-46,-4
2711.076,306,301,306,306,1084,6120,14524,1,-46,-4
2721.4269999999997,306,301,305,305,1132,6452,14856,-22,48,-64
2730.224,306,300,306,305,1132,6452,14856,-22,48,-64
2732.2760000000003,307,300,306,306,1132,6452,14856,-22,48,-64
2732.2760000000003,306,300,306,306,1132,6452,14856,-22,48,-64
2743.554,306,300,306,305,1132,6452,14856,-22,48,-64
2750.619,306,301,306,306,1132,6452,14856,-22,48,-64
2755.259,306,301,306,306,1132,6452,14856,-22,48,-64
2760.6150000000002,306,301,306,305,1132,6428,14808,-125,67,-13
2765.555,306,301,306,305,1132,6428,14808,-125,67,-13
2768.957,306,301,306,305,1132,6428,14808,-125,67,-13
2776.888,307,301,305,305,1132,6428,14808,-125,67,-13
2776.888,307,301,304,305,1132,6428,14808,-125,67,-13
2788.097,306,302,304,306,1132,6428,14808,-125,67,-13
2794.607,307,301,305,305,1132,6428,14808,-125,67,-13
2798.749,306,302,305,305,1068,6420,14700,-162,69,-21
2805.952,306,302,304,305,1068,6420,14700,-162,69,-21
2810.243,307,302,304,305,1068,6420,14700,-162,69,-21
2820.3839999999996,306,302,305,305,1068,6420,14700,-162,69,-21
2822.435,307,302,304,305,1068,6420,14700,-162,69,-21
2827.543,307,302,304,305,1068,6420,14700,-162,69,-21
2831.494,306,302,305,305,1068,6420,14700,-162,69,-21
2838.451,306,302,305,305,1132,6520,14632,-10,0,-18
2844.15,306,302,306,305,1132,6520,14632,-10,0,-18
2852.83,306,303,306,305,1132,6520,14632,-10,0,-18
2852.83,307,302,307,306,1132,6520,14632,-10,0,-18
2860.072,306,302,307,305,1132,6520,14632,-10,0,-18
2865.046,306,301,307,305,1132,6520,14632,-10,0,-18
2870.722,306,301,308,305,1132,6520,14632,-10,0,-18
2876.2850000000003,305,302,308,305,1132,6520,14632,-10,0,-18
2879.134,305,302,307,305,1076,6280,14756,-233,36,-9
2888.516,305,302,307,305,1076,6280,14756,-233,36,-9
2888.516,305,302,308,305,1076,6280,14756,-233,36,-9
2902.753,305,302,308,305,1076,6280,14756,-233,36,-9
2906.556,305,302,307,305,1076,6280,14756,-233,36,-9
2910.83,305,302,308,305,1076,6280,14756,-233,36,-9
2918.7509999999997,305,302,307,305,1076,6280,14756,-233,36,-9
2922.975,304,302,306,305,1132,6432,14684,30,33,-35
2927.393,304,301,306,305,1132,6432,14684,30,33,-35
2933.013,304,302,306,305,1132,6432,14684,30,33,-35
2933.013,304,301,306,305,1132,6432,14684,30,33,-35
2943.02,304,301,304,304,1132,6432,14684,30,33,-35
2944.8340000000003,304,301,304,304,1132,6432,14684,30,33,-35
2954.1330000000003,305,302,304,305,1132,6432,14684,30,33,-35
2954.1330000000003,304,302,302,304,1144,6316,14792,-107,34,-3
2966.0299999999997,304,301,302,304,1144,6316,14792,-107,34,-3
2966.0299999999997,304,302,301,305,1144,6316,14792,-107,34,-3
2974.153,304,302,301,305,1144,6316,14792,-107,34,-3
2978.9919999999997,304,301,300,304,1144,6316,14792,-107,34,-3
2987.609,304,302,300,304,1144,6316,14792,-107,34,-3
2987.609,305,302,301,305,1144,6316,14792,-107,34,-3
2999.067,304,302,300,304,1144,6316,14792,-107,34,-3
3001.6569999999997,304,302,301,304,1124,6544,14724,-11,-29,-29
3010.3689999999997,304,302,300,304,1124,6544,14724,-11,-29,-29
3013.958,304,302,301,304,1124,6544,14724,-11,-29,-29
3020.714,304,302,301,304,1124,6544,14724,-11,-29,-29
3028.357,303,302,301,304,1124,6544,14724,-11,-29,-29
3031.846,304,302,302,304,1124,6544,14724,-11,-29,-29
3031.846,304,302,303,304,1124,6544,14724,-11,-29,-29
3043.387,303,302,303,304,1128,6488,14788,-156,51,-24
3047.664,304,302,304,304,1128,6488,14788,-156,51,-24
3053.924,304,302,305,304,1128,6488,14788,-156,51,-24
3059.1499999999996,304,302,305,304,1128,6488,14788,-156,51,-24
3065.048,303,301,305,304,1128,6488,14788,-156,51,-24
3073.823,303,301,306,304,1128,6488,14788,-156,51,-24
3076.661,304,302,307,304,1128,6488,14788,-156,51,-24
3076.661,304,302,307,304,1112,6476,14744,-128,10,-19
3087.688,303,302,308,303,1112,6476,14744,-128,10,-19
3087.688,303,302,309,304,1112,6476,14744,-128,10,-19
3097.791,303,302,309,304,1112,6476,14744,-128,10,-19
3104.66,303,302,309,303,1112,6476,14744,-128,10,-19
3109.774,303,301,310,304,1112,6476,14744,-128,10,-19
3112.605,303,301,310,304,1112,6476,14744,-128,10,-19
3121.675,302,301,310,303,1088,6368,14684,-14,22,-14
3127.8320000000003,302,301,310,303,1088,6368,14684,-14,22,-14
3131.912,302,301,311,303,1088,6368,14684,-14,22,-14
3131.912,303,301,310,303,1088,6368,14684,-14,22,-14
3143.427,302,302,309,303,1088,6368,14684,-14,22,-14
3152.237,303,301,309,303,1088,6368,14684,-14,22,-14
3154.395,303,302,309,304,1088,6368,14684,-14,22,-14
3154.395,303,302,308,303,1144,6484,14744,-65,9,10
3165.5190000000002,303,302,307,303,1144,6484,14744,-65,9,10
3171.8199999999997,303,302,307,304,1144,6484,14744,-65,9,10
3176.169,304,302,306,304,1144,6484,14744,-65,9,10
3178.507,303,302,305,303,1144,6484,14744,-65,9,10
3188.2169999999996,303,302,305,304,1144,6484,14744,-65,9,10
3188.2169999999996,303,303,304,304,1144,6484,14744,-65,9,10
3194.979,304,302,303,304,1144,6484,14744,-65,9,10
3198.9,304,302,302,304,1180,6436,14732,-53,15,-7
3208.042,304,302,301,304,1180,6436,14732,-53,15,-7
3212.765,304,303,301,304,1180,6436,14732,-53,15,-7
3220.39,304,303,300,305,1180,6436,14732,-53,15,-7
3220.39,304,303,299,304,1180,6436,14732,-53,15,-7
3228.156,303,303,299,304,1180,6436,14732,-53,15,-7
3232.1499999999996,304,303,299,305,1180,6436,14732,-53,15,-7
3239.551,304,303,298,304,1120,6436,14744,-118,34,-26
3242.928,304,303,298,304,1120,6436,14744,-118,34,-26
3253.803,304,303,299,305,1120,6436,14744,-118,34,-26
3256.007,305,303,299,305,1120,6436,14744,-118,34,-26
3256.007,303,303,298,304,1120,6436,14744,-118,34,-26
3266.337,303,303,298,304,1120,6436,14744,-118,34,-26
3274.6369999999997,304,303,299,305,1120,6436,14744,-118,34,-26
3276.607,304,303,298,304,1128,6432,14772,-62,12,-14
3287.436,304,303,298,304,1128,6432,14772,-62,12,-14
3287.436,304,302,298,304,1128,6432,14772,-62,12,-14
3298.206,304,303,298,304,1128,6432,14772,-62,12,-14
3298.206,304,303,298,304,1128,6432,14772,-62,12,-14
3306.1020000000003,304,303,299,304,1128,6432,14772,-62,12,-14
3309.765,304,303,299,304,1128,6432,14772,-62,12,-14
3317.962,304,303,298,304,1128,6432,14772,-62,12,-14
3320.853,304,303,298,303,1092,6452,14716,-113,30,-23
3332.181,304,303,298,304,1092,6452,14716,-113,30,-23
3333.943,305,302,298,304,1092,6452,14716,-113,30,-23
3344.093,305,302,298,304,1092,6452,14716,-113,30,-23
3344.093,304,303,299,303,1092,6452,14716,-113,30,-23
3350.707,304,303,299,304,1092,6452,14716,-113,30,-23
3354.694,304,303,299,304,1092,6452,14716,-113,30,-23
3365.2090000000003,304,303,299,303,1124,6380,14744,-128,27,-36
3365.582,304,303,299,303,1124,6380,14744,-128,27,-36
3375.955,306,303,300,304,1124,6380,14744,-128,27,-36
3375.955,305,303,299,303,1124,6380,14744,-128,27,-36
3387.648,306,303,299,303,1124,6380,14744,-128,27,-36
3391.76,305,303,299,303,1124,6380,14744,-128,27,-36
3391.76,305,304,300,304,1124,6380,14744,-128,27,-36
3399.963,304,304,300,303,1108,6368,14712,-84,22,-18
3409.879,305,303,300,303,1108,6368,14712,-84,22,-18
3409.879,305,304,301,304,1108,6368,14712,-84,22,-18
3421.112,305,304,301,304,1108,6368,14712,-84,22,-18
3421.112,305,304,301,304,1108,6368,14712,-84,22,-18
3428.045,305,304,302,304,1108,6368,14712,-84,22,-18
3432.2439999999997,305,304,302,304,1108,6368,14712,-84,22,-18
3442.853,305,304,301,303,1136,6420,14744,-75,11,-1
3442.853,305,304,301,304,1136,6420,14744,-75,11,-1
3454.0510000000004,305,304,302,304,1136,6420,14744,-75,11,-1
3454.0510000000004,306,304,301,304,1136,6420,14744,-75,11,-1
3461.0319999999997,306,304,301,304,1136,6420,14744,-75,11,-1
3465.931,306,304,300,304,1136,6420,14744,-75,11,-1
3473.296,306,305,300,305,1136,6420,14744,-75,11,-1
3479.513,305,305,300,305,1136,6420,14744,-75,11,-1
3487.819,305,305,299,304,1156,6464,14712,-37,1,-4
3487.819,305,305,298,305,1156,6464,14712,-37,1,-4
3493.2490000000003,306,305,297,305,1156,6464,14712,-37,1,-4
3498.866,307,305,297,305,1156,6464,14712,-37,1,-4
3508.118,307,304,296,305,1156,6464,14712,-37,1,-4
3510.65,306,304,296,305,1156,6464,14712,-37,1,-4
3510.65,306,305,296,305,1156,6464,14712,-37,1,-4
3520.7549999999997,306,305,295,305,1124,6404,14708,-113,27,-17
3528.691,305,305,295,305,1124,6404,14708,-113,27,-17
3531.67,306,305,295,306,1124,6404,14708,-113,27,-17
3541.411,306,305,295,305,1124,6404,14708,-113,27,-17
3544.161,306,305,295,305,1124,6404,14708,-113,27,-17
3544.161,306,305,295,305,1124,6404,14708,-113,27,-17
3554.311,306,305,296,306,1124,6404,14708,-113,27,-17
3559.9660000000003,305,305,295,305,1044,6392,14708,-87,22,-19
3564.896,305,305,295,305,1044,6392,14708,-87,22,-19
3571.118,305,305,296,306,1044,6392,14708,-87,22,-19
3576.655,306,305,296,306,1044,6392,14708,-87,22,-19
3586.551,306,305,297,305,1044,6392,14708,-87,22,-19
3589.4089999999997,305,305,298,305,1044,6392,14708,-87,22,-19
3591.932,306,304,298,306,1044,6392,14708,-87,22,-19
3598.358,305,305,298,305,1044,6392,14708,-87,22,-19
3604.264,304,304,299,305,1128,6388,14744,-81,21,-14
3609.4089999999997,304,305,299,305,1128,6388,14744,-81,21,-14
3618.9779999999996,305,304,300,305,1128,6388,14744,-81,21,-14
3621.0860000000002,304,304,299,305,1128,6388,14744,-81,21,-14
3621.0860000000002,305,304,300,305,1128,6388,14744,-81,21,-14
3631.9970000000003,305,304,300,305,1128,6388,14744,-81,21,-14
3640.206,306,304,300,305,1128,6388,14744,-81,21,-14
3642.169,304,304,300,305,1200,6404,14708,-70,13,-12
3645.143,305,304,300,305,1200,6404,14708,-70,13,-12
3654.3160000000003,305,304,300,306,1200,6404,14708,-70,13,-12
3654.3160000000003,304,304,300,305,1200,6404,14708,-70,13,-12
3665.388,304,304,300,305,1200,6404,14708,-70,13,-12
3665.388,305,304,301,305,1200,6404,14708,-70,13,-12
3676.492,305,304,301,305,1200,6404,14708,-70,13,-12
3684.589,305,304,301,305,1100,6372,14752,-88,21,-23
3688.99,304,304,301,305,1100,6372,14752,-88,21,-23
3693.1310000000003,304,304,301,305,1100,6372,14752,-88,21,-23
3700.5,304,304,300,306,1100,6372,14752,-88,21,-23
3704.626,304,304,300,305,1100,6372,14752,-88,21,-23
3711.43,305,304,300,305,1100,6372,14752,-88,21,-23
3711.43,305,304,300,306,1100,6372,14752,-88,21,-23
3720.9089999999997,304,304,300,305,1124,6516,14760,-107,15,-21
3729.733,305,304,301,305,1124,6516,14760,-107,15,-21
3732.087,304,305,301,306,1124,6516,14760,-107,15,-21
3735.491,304,305,301,305,1124,6516,14760,-107,15,-21
3742.934,304,305,302,305,1124,6516,14760,-107,15,-21
3747.525,304,304,302,305,1124,6516,14760,-107,15,-21
3754.008,305,304,303,306,1124,6516,14760,-107,15,-21
3756.146,304,304,302,305,1168,6348,14672,-96,6,-3
3765.891,305,304,303,305,1168,6348,14672,-96,6,-3
3765.891,305,304,303,305,1168,6348,14672,-96,6,-3
3776.558,304,304,304,306,1168,6348,14672,-96,6,-3
3776.558,304,304,303,305,1168,6348,14672,-96,6,-3
3784.8410000000003,304,305,303,305,1168,6348,14672,-96,6,-3
3787.689,304,304,303,306,1168,6348,14672,-96,6,-3
3798.361,305,304,303,306,1168,6348,14672,-96,6,-3
3800.94,304,304,303,305,1068,6396,14688,-59,32,-18
3808.9610000000002,304,304,303,305,1068,6396,14688,-59,32,-18
3811.098,304,304,304,305,1068,6396,14688,-59,32,-18
3817.6510000000003,304,304,303,305,1068,6396,14688,-59,32,-18
3827.546,304,304,303,305,1068,6396,14688,-59,32,-18
3831.93,304,304,303,305,1068,6396,14688,-59,32,-18
3833.681,304,304,303,305,1068,6396,14688,-59,32,-18
3843.511,305,304,303,305,1176,6456,14748,-92,32,-10
3843.511,304,304,303,305,1176,6456,14748,-92,32,-10
3850.272,305,304,303,305,1176,6456,14748,-92,32,-10
3854.441,304,304,302,305,1176,6456,14748,-92,32,-10
3863.185,304,305,302,305,1176,6456,14748,-92,32,-10
3865.303,304,304,302,305,1176,6456,14748,-92,32,-10
3875.9410000000003,304,304,302,306,1176,6456,14748,-92,32,-10
3875.9410000000003,304,304,302,305,1176,6456,14748,-92,32,-10
3883.508,304,304,302,305,1120,6468,14728,-99,43,-16
3888.019,305,304,302,305,1120,6468,14728,-99,43,-16
3896.661,305,304,302,305,1120,6468,14728,-99,43,-16
3899.565,304,304,302,304,1120,6468,14728,-99,43,-16
3909.86,304,304,302,305,1120,6468,14728,-99,43,-16
3909.86,304,304,303,305,1120,6468,14728,-99,43,-16
3909.86,304,304,303,305,1120,6468,14728,-99,43,-16
3921.295,305,304,302,304,1136,6492,14704,-77,15,-31
3930.038,305,304,302,305,1136,6492,14704,-77,15,-31
3932.683,305,304,303,305,1136,6492,14704,-77,15,-31
3941.228,305,304,302,304,1136,6492,14704,-77,15,-31
3945.373,304,304,303,304,1136,6492,14704,-77,15,-31
3945.373,304,304,303,305,1136,6492,14704,-77,15,-31
3954.753,304,304,302,304,1136,6492,14704,-77,15,-31
3960.9260000000004,304,304,302,304,1132,6412,14732,-124,49,-24
3965.606,305,303,303,304,1132,6412,14732,-124,49,-24
3972.58,304,303,304,304,1132,6412,14732,-124,49,-24
3978.826,305,304,304,304,1132,6412,14732,-124,49,-24
3987.336,303,304,304,303,1132,6412,14732,-124,49,-24
3989.398,304,304,305,304,1132,6412,14732,-124,49,-24
3989.398,304,304,306,304,1132,6412,14732,-124,49,-24
3999.557,303,303,305,303,1140,6464,14684,-48,-4,-10
4007.961,303,303,306,303,1140,6464,14684,-48,-4,-10
4009.81,304,303,306,303,1140,6464,14684,-48,-4,-10
4020.7629999999995,305,303,306,303,1140,6464,14684,-48,-4,-10
4020.7629999999995,304,303,306,303,1140,6464,14684,-48,-4,-10
4031.771,304,303,306,303,1140,6464,14684,-48,-4,-10
4034.2589999999996,304,304,306,304,1140,6464,14684,-48,-4,-10
4034.2589999999996,304,303,305,303,1140,6464,14684,-48,-4,-10
4044.08,303,304,305,303,1144,6396,14708,-49,30,-12
4051.132,305,303,305,304,1144,6396,14708,-49,30,-12
4054.2999999999997,304,304,305,304,1144,6396,14708,-49,30,-12
4065.181,305,304,304,304,1144,6396,14708,-49,30,-12
4065.961,304,303,304,304,1144,6396,14708,-49,30,-12
4074.504,304,304,303,304,1144,6396,14708,-49,30,-12
4076.2409999999995,304,304,302,304,1144,6396,14708,-49,30,-12
4083.214,304,303,301,304,1128,6392,14700,-95,-10,-16
4088.014,304,304,301,305,1128,6392,14700,-95,-10,-16
4098.004000000001,304,304,301,305,1128,6392,14700,-95,-10,-16
4099.732999999999,305,304,300,305,1128,6392,14700,-95,-10,-16
4109.558,305,304,300,305,1128,6392,14700,-95,-10,-16
4114.078,304,304,300,305,1128,6392,14700,-95,-10,-16
4114.078,305,305,300,305,1128,6392,14700,-95,-10,-16
4121.691,304,304,300,305,1064,6436,14744,-36,29,9
4129.868,304,304,300,305,1064,6436,14744,-36,29,9
4132.334,305,304,301,306,1064,6436,14744,-36,29,9
4138.004,305,305,300,305,1064,6436,14744,-36,29,9
4143.634,305,304,301,305,1064,6436,14744,-36,29,9
4152.405,305,304,301,305,1064,6436,14744,-36,29,9
4155.204000000001,306,304,301,305,1064,6436,14744,-36,29,9
4163.545,304,304,301,305,1064,6436,14744,-36,29,9
4165.948,304,304,302,304,1136,6424,14748,-135,-14,-14
4169.11,305,304,302,305,1136,6424,14748,-135,-14,-14
4176.402,305,304,302,304,1136,6424,14748,-135,-14,-14
4182.482,305,304,302,304,1136,6424,14748,-135,-14,-14
4187.282999999999,305,304,302,304,1136,6424,14748,-135,-14,-14
4194.163,306,304,302,305,1136,6424,14748,-135,-14,-14
4198.764,304,304,302,304,1136,6424,14748,-135,-14,-14
4202.919,304,304,302,304,1092,6440,14700,-43,27,-24
4210.395,304,304,302,304,1092,6440,14700,-43,27,-24
4210.395,304,304,301,305,1092,6440,14700,-43,27,-24
4221.125,304,304,301,304,1092,6440,14700,-43,27,-24
4227.173,304,304,301,304,1092,6440,14700,-43,27,-24
4231.772,305,304,301,304,1092,6440,14700,-43,27,-24
4234.888,306,305,300,304,1092,6440,14700,-43,27,-24
4243.7699999999995,304,305,300,304,1112,6524,14736,-90,37,-35
4253.919,305,305,300,304,1112,6524,14736,-90,37,-35
4254.3240000000005,305,305,300,304,1112,6524,14736,-90,37,-35
4260.293,304,304,298,304,1112,6524,14736,-90,37,-35
4265.1089999999995,305,304,299,304,1112,6524,14736,-90,37,-35
4272.303,306,304,299,304,1112,6524,14736,-90,37,-35
4276.403,306,305,299,304,1112,6524,14736,-90,37,-35
4280.551,306,305,298,304,1120,6432,14652,-80,-12,-4
4287.914,305,305,298,304,1120,6432,14652,-80,-12,-4
4287.914,305,305,299,304,1120,6432,14652,-80,-12,-4
4298.971,306,305,299,304,1120,6432,14652,-80,-12,-4
4305.799,305,306,299,304,1120,6432,14652,-80,-12,-4
4309.7390000000005,306,305,300,304,1120,6432,14652,-80,-12,-4
4313.327,306,305,300,304,1120,6432,14652,-80,-12,-4
4321.1849999999995,306,305,299,304,1112,6388,14728,-36,12,-3
4321.1849999999995,305,305,300,304,1112,6388,14728,-36,12,-3
4332.169000000001,306,305,300,305,1112,6388,14728,-36,12,-3
4338.59,305,305,301,304,1112,6388,14728,-36,12,-3
4342.711,305,305,300,304,1112,6388,14728,-36,12,-3
4352.233,305,305,301,304,1112,6388,14728,-36,12,-3
4354.219999999999,306,305,301,305,1112,6388,14728,-36,12,-3
4357.5160000000005,306,305,300,304,1112,6388,14728,-36,12,-3
4357.5160000000005,306,305,299,304,1168,6356,14700,-82,8,-7
4366.103,306,304,300,305,1168,6356,14700,-82,8,-7
4376.643999999999,306,305,300,305,1168,6356,14700,-82,8,-7
4376.643999999999,305,305,299,305,1168,6356,14700,-82,8,-7
4387.537,305,304,299,305,1168,6356,14700,-82,8,-7
4390.869000000001,305,305,299,305,1168,6356,14700,-82,8,-7
4390.869000000001,306,305,299,305,1168,6356,14700,-82,8,-7
4399.5689999999995,306,304,298,305,1124,6372,14748,-59,23,-16
4409.834,306,304,297,305,1124,6372,14748,-59,23,-16
4409.834,305,305,297,306,1124,6372,14748,-59,23,-16
4420.835,305,305,297,306,1124,6372,14748,-59,23,-16
4423.827,305,305,297,305,1124,6372,14748,-59,23,-16
4430.335999999999,305,305,297,305,1124,6372,14748,-59,23,-16
4432.908,305,305,297,306,1124,6372,14748,-59,23,-16
4441.46,306,305,297,306,1124,6372,14748,-59,23,-16
4443.269,305,304,296,305,1128,6472,14716,-72,-14,-18
4454.191,305,305,297,306,1128,6472,14716,-72,-14,-18
4454.191,305,305,297,306,1128,6472,14716,-72,-14,-18
4460.1759999999995,304,305,297,305,1128,6472,14716,-72,-14,-18
4465.5019999999995,305,305,297,305,1128,6472,14716,-72,-14,-18
4474.099,304,305,297,306,1128,6472,14716,-72,-14,-18
4479.159000000001,305,305,297,305,1128,6472,14716,-72,-14,-18
4487.7570000000005,305,305,297,305,1132,6376,14688,-128,18,-19
4487.781,305,305,298,305,1132,6376,14688,-128,18,-19
4498.4310000000005,305,305,297,305,1132,6376,14688,-128,18,-19
4498.4310000000005,304,305,297,305,1132,6376,14688,-128,18,-19
4506.3550000000005,305,305,297,305,1132,6376,14688,-128,18,-19
4509.753,305,305,297,306,1132,6376,14688,-128,18,-19
4518.125999999999,304,305,297,305,1132,6376,14688,-128,18,-19
4520.925,305,304,297,305,1068,6496,14700,-67,31,-18
4532.239,306,305,297,305,1068,6496,14700,-67,31,-18
4534.293,306,304,297,305,1068,6496,14700,-67,31,-18
4543.371999999999,304,305,296,305,1068,6496,14700,-67,31,-18
4543.371999999999,305,305,296,305,1068,6496,14700,-67,31,-18
4552.240000000001,305,305,296,305,1068,6496,14700,-67,31,-18
4554.664,305,305,296,305,1068,6496,14700,-67,31,-18
4565.273,304,305,296,305,1156,6364,14736,-113,11,-16
4565.273,305,304,296,305,1156,6364,14736,-113,11,-16
4576.486,306,305,297,306,1156,6364,14736,-113,11,-16
4576.486,306,304,296,305,1156,6364,14736,-113,11,-16
4587.495,305,304,296,306,1156,6364,14736,-113,11,-16
4591.777999999999,305,304,297,306,1156,6364,14736,-113,11,-16
4591.777999999999,305,305,298,305,1156,6364,14736,-113,11,-16
4598.816,305,304,298,305,1156,6472,14692,-66,26,-15
4609.936000000001,305,305,299,305,1156,6472,14692,-66,26,-15
4609.936000000001,305,304,299,305,1156,6472,14692,-66,26,-15
4622.548,305,305,299,305,1156,6472,14692,-66,26,-15
4624.445,305,304,300,305,1156,6472,14692,-66,26,-15
4630.456999999999,305,304,300,305,1156,6472,14692,-66,26,-15
4632.477,305,305,301,305,1156,6472,14692,-66,26,-15
4643.026,305,305,300,305,1156,6472,14692,-66,26,-15
4643.026,305,304,301,305,1148,6332,14748,-165,47,-28
4654.079000000001,305,304,302,305,1148,6332,14748,-165,47,-28
4657.259,306,304,301,305,1148,6332,14748,-165,47,-28
4666.086,306,304,302,305,1148,6332,14748,-165,47,-28
4666.086,305,304,302,305,1148,6332,14748,-165,47,-28
4673.961,305,304,302,305,1148,6332,14748,-165,47,-28
4676.657999999999,305,304,302,305,1148,6332,14748,-165,47,-28
4687.594,305,304,302,305,1128,6484,14668,-126,89,-53
4690.076,305,304,303,305,1128,6484,14668,-126,89,-53
4699.150000000001,305,304,303,305,1128,6484,14668,-126,89,-53
4699.150000000001,305,304,303,305,1128,6484,14668,-126,89,-53
4709.9580000000005,306,304,304,305,1128,6484,14668,-126,89,-53
4709.9580000000005,306,304,304,305,1128,6484,14668,-126,89,-53
4719.935,306,304,302,305,1128,6484,14668,-126,89,-53
4722.405,306,304,302,305,1144,6360,14716,-80,-13,-16
4731.79,306,305,302,305,1144,6360,14716,-80,-13,-16
4731.79,307,304,302,305,1144,6360,14716,-80,-13,-16
4743.338,306,304,301,304,1144,6360,14716,-80,-13,-16
4743.338,307,304,301,305,1144,6360,14716,-80,-13,-16
4757.686,308,304,301,305,1144,6360,14716,-80,-13,-16
4757.686,306,305,301,305,1144,6360,14716,-80,-13,-16
4765.048,306,305,301,305,1088,6396,14704,-20,28,-35
4773.88,306,305,301,305,1088,6396,14704,-20,28,-35
4776.532999999999,307,305,301,305,1088,6396,14704,-20,28,-35
4780.467,306,304,301,305,1088,6396,14704,-20,28,-35
4787.722,307,304,301,304,1088,6396,14704,-20,28,-35
4792.173,307,305,301,305,1088,6396,14704,-20,28,-35
4798.384,307,305,300,305,1088,6396,14704,-20,28,-35
4800.798000000001,307,305,300,304,1136,6444,14752,-71,-3,-26
4810.044000000001,307,306,300,305,1136,6444,14752,-71,-3,-26
4810.044000000001,308,306,300,305,1136,6444,14752,-71,-3,-26
4820.982,308,305,299,304,1136,6444,14752,-71,-3,-26
4820.982,308,305,299,305,1136,6444,14752,-71,-3,-26
4832.027,308,305,300,305,1136,6444,14752,-71,-3,-26
4838.392,308,305,300,305,1136,6444,14752,-71,-3,-26
4842.988,307,305,299,304,1164,6432,14704,-46,-2,-14
4845.865,307,305,299,305,1164,6432,14704,-46,-2,-14
4854.441,307,305,300,305,1164,6432,14704,-46,-2,-14
4854.441,307,305,299,304,1164,6432,14704,-46,-2,-14
4865.361,308,305,299,304,1164,6432,14704,-46,-2,-14
4865.361,307,305,299,305,1164,6432,14704,-46,-2,-14
4876.561,308,305,299,305,1164,6432,14704,-46,-2,-14
4884.632,307,305,299,304,1164,6432,14704,-46,-2,-14
4887.9349999999995,307,305,299,304,1100,6468,14700,-31,-12,-17
4890.226000000001,307,305,299,305,1100,6468,14700,-31,-12,-17
4898.81,307,305,298,305,1100,6468,14700,-31,-12,-17
4902.273,307,305,297,305,1100,6468,14700,-31,-12,-17
4909.596,307,305,297,305,1100,6468,14700,-31,-12,-17
4915.217000000001,307,305,296,305,1100,6468,14700,-31,-12,-17
4920.967,307,305,295,305,1100,6468,14700,-31,-12,-17
4923.7880000000005,307,305,293,305,1120,6376,14724,-80,16,-27
4933.491,307,305,292,306,1120,6376,14724,-80,16,-27
4933.491,307,306,291,306,1120,6376,14724,-80,16,-27
4943.27,307,306,290,306,1120,6376,14724,-80,16,-27
4943.27,307,306,290,306,1120,6376,14724,-80,16,-27
4954.227000000001,307,306,290,307,1120,6376,14724,-80,16,-27
4962.265,307,306,289,307,1120,6376,14724,-80,16,-27
4963.281,307,305,289,307,1156,6476,14728,-91,26,-20
4967.839,306,306,290,307,1156,6476,14728,-91,26,-20
4977.277,306,306,290,307,1156,6476,14728,-91,26,-20
4980.8640000000005,306,305,290,307,1156,6476,14728,-91,26,-20
4987.371999999999,306,305,291,307,1156,6476,14728,-91,26,-20
4987.371999999999,307,306,291,307,1156,6476,14728,-91,26,-20
4999.46,306,305,292,307,1156,6476,14728,-91,26,-20
4999.46,306,306,293,306,1164,6424,14736,-49,-23,-12
5010.121,305,305,294,306,1164,6424,14736,-49,-23,-12
5010.121,305,305,296,306,1164,6424,14736,-49,-23,-12
5020.8240000000005,305,306,297,306,1164,6424,14736,-49,-23,-12
5025.713,304,305,297,305,1164,6424,14736,-49,-23,-12
5031.804,304,305,299,306,1164,6424,14736,-49,-23,-12
5031.804,304,305,300,305,1164,6424,14736,-49,-23,-12
5042.988,305,305,300,305,1164,6424,14736,-49,-23,-12
5042.988,305,305,301,305,1100,6404,14712,-46,3,-25
5054.218,304,305,303,305,1100,6404,14712,-46,3,-25
5058.793,304,305,303,305,1100,6404,14712,-46,3,-25
5058.793,304,305,304,304,1100,6404,14712,-46,3,-25
5066.056,304,305,304,304,1100,6404,14712,-46,3,-25
5076.55,305,305,306,305,1100,6404,14712,-46,3,-25
5076.55,304,305,305,304,1100,6404,14712,-46,3,-25
5087.5199999999995,304,305,306,304,1148,6500,14728,-62,59,-31
5087.5199999999995,304,305,307,305,1148,6500,14728,-62,59,-31
5095.6669999999995,304,305,307,304,1148,6500,14728,-62,59,-31
5099.772,304,305,307,304,1148,6500,14728,-62,59,-31
5109.549,304,305,308,304,1148,6500,14728,-62,59,-31
5109.549,305,305,308,305,1148,6500,14728,-62,59,-31
5120.909000000001,305,305,308,304,1148,6500,14728,-62,59,-31
5120.909000000001,306,305,308,303,1104,6380,14728,-74,-2,-15
5130.955,306,305,309,304,1104,6380,14728,-74,-2,-15
5135.080999999999,306,305,309,304,1104,6380,14728,-74,-2,-15
5140.668,305,305,308,304,1104,6380,14728,-74,-2,-15
5147.131,305,305,308,304,1104,6380,14728,-74,-2,-15
5154.61,306,305,309,304,1104,6380,14728,-74,-2,-15
5158.787,306,305,308,303,1104,6380,14728,-74,-2,-15
5167.445,306,305,308,303,1148,6468,14668,-22,-27,-25
5170.78,306,305,308,303,1148,6468,14668,-22,-27,-25
5170.78,307,305,309,304,1148,6468,14668,-22,-27,-25
5177.165999999999,306,305,308,304,1148,6468,14668,-22,-27,-25
5187.642000000001,306,306,307,304,1148,6468,14668,-22,-27,-25
5187.642000000001,307,306,308,304,1148,6468,14668,-22,-27,-25
5198.978,307,306,307,304,1148,6468,14668,-22,-27,-25
5198.978,307,306,306,304,1148,6468,14668,-22,-27,-25
5209.91,308,306,306,304,1132,6408,14712,-41,-2,-26
5209.91,309,306,306,304,1132,6408,14712,-41,-2,-26
5220.638,310,306,304,304,1132,6408,14712,-41,-2,-26
5229.005,308,306,304,304,1132,6408,14712,-41,-2,-26
5232.126,309,306,304,305,1132,6408,14712,-41,-2,-26
5234.286,309,306,303,305,1132,6408,14712,-41,-2,-26
5244.072,309,306,302,304,1132,6408,14712,-41,-2,-26
5244.072,310,307,302,305,1148,6480,14732,-51,31,-20
5252.511,310,306,301,306,1148,6480,14732,-51,31,-20
5254.832,311,306,301,305,1148,6480,14732,-51,31,-20
5265.18,310,306,300,305,1148,6480,14732,-51,31,-20
5265.18,309,307,300,305,1148,6480,14732,-51,31,-20
5276.442,309,307,300,305,1148,6480,14732,-51,31,-20
5279.56,309,306,299,305,1148,6480,14732,-51,31,-20
5279.56,308,306,299,305,1180,6420,14696,-88,-5,-26
5288.161,309,306,299,305,1180,6420,14696,-88,-5,-26
5298.419,310,306,299,305,1180,6420,14696,-88,-5,-26
5298.879,308,306,298,305,1180,6420,14696,-88,-5,-26
5309.700000000001,309,307,299,305,1180,6420,14696,-88,-5,-26
5312.66,308,307,299,306,1180,6420,14696,-88,-5,-26
5312.66,308,306,298,305,1180,6420,14696,-88,-5,-26
5320.589,308,306,299,305,1132,6432,14708,-54,-1,-23
5331.2390000000005,309,306,299,305,1132,6432,14708,-54,-1,-23
5331.817,309,306,300,305,1132,6432,14708,-54,-1,-23
5343.022999999999,310,306,300,306,1132,6432,14708,-54,-1,-23
5343.022999999999,310,306,300,305,1132,6432,14708,-54,-1,-23
5354.378,310,306,302,305,1132,6432,14708,-54,-1,-23
5357.525,309,307,302,305,1132,6432,14708,-54,-1,-23
5357.525,309,306,301,305,1132,6432,14708,-54,-1,-23
5366.535,309,306,302,305,1156,6492,14720,-46,4,-21
5376.474,309,306,302,305,1156,6492,14720,-46,4,-21
5376.514,310,306,302,305,1156,6492,14720,-46,4,-21
5382.733,309,306,302,305,1156,6492,14720,-46,4,-21
5388.486000000001,309,306,303,305,1156,6492,14720,-46,4,-21
5396.731,310,306,304,305,1156,6492,14720,-46,4,-21
5399.326,308,306,304,305,1156,6492,14720,-46,4,-21
5407.728,308,306,304,305,1232,6472,14632,-52,-9,16
5410.048,308,306,305,305,1232,6472,14632,-52,-9,16
5415.432,308,306,305,305,1232,6472,14632,-52,-9,16
5420.179,308,306,305,304,1232,6472,14632,-52,-9,16
5427.444,308,306,306,304,1232,6472,14632,-52,-9,16
5432.042,308,305,307,305,1232,6472,14632,-52,-9,16
5435.585,307,305,308,304,1232,6472,14632,-52,-9,16
5444.117,306,306,308,304,1232,6472,14632,-52,-9,16
5444.117,306,306,309,305,1128,6464,14756,-134,17,-28
5454.271000000001,305,306,310,305,1128,6464,14756,-134,17,-28
5461.214,305,305,310,304,1128,6464,14756,-134,17,-28
5464.941,305,305,311,304,1128,6464,14756,-134,17,-28
5474.637000000001,304,305,311,305,1128,6464,14756,-134,17,-28
5474.637000000001,305,305,311,305,1128,6464,14756,-134,17,-28
5485.791,303,305,311,304,1128,6464,14756,-134,17,-28
5488.01,302,305,313,304,1156,6456,14716,-92,41,-29
5492.768,302,305,314,304,1156,6456,14716,-92,41,-29
5498.154,302,305,314,304,1156,6456,14716,-92,41,-29
5505.2519999999995,301,305,314,304,1156,6456,14716,-92,41,-29
5510.419,301,304,314,304,1156,6456,14716,-92,41,-29
5513.232,300,304,314,304,1156,6456,14716,-92,41,-29
5521.298,300,305,314,304,1156,6456,14716,-92,41,-29
5521.298,298,305,313,304,1128,6440,14704,-91,19,-17
5532.437,298,304,314,305,1128,6440,14704,-91,19,-17
5538.782,297,305,313,304,1128,6440,14704,-91,19,-17
5543.357,297,305,313,304,1128,6440,14704,-91,19,-17
5552.503,298,304,313,304,1128,6440,14704,-91,19,-17
5554.789000000001,298,304,314,304,1128,6440,14704,-91,19,-17
5554.789000000001,298,304,313,304,1128,6440,14704,-91,19,-17
5565.262,297,304,313,303,1164,6476,14700,-82,18,-21
5571.647,297,304,315,304,1164,6476,14700,-82,18,-21
5576.311,297,304,314,304,1164,6476,14700,-82,18,-21
5578.653,296,304,314,304,1164,6476,14700,-82,18,-21
5587.799999999999,297,304,315,304,1164,6476,14700,-82,18,-21
5596.911,298,304,315,304,1164,6476,14700,-82,18,-21
5599.019,298,304,314,304,1164,6476,14700,-82,18,-21
5603.031,297,304,314,303,1184,6480,14716,-116,24,-3
5609.3679999999995,296,304,314,304,1184,6480,14716,-116,24,-3
5615.121,295,304,313,304,1184,6480,14716,-116,24,-3
5620.794,295,304,313,303,1184,6480,14716,-116,24,-3
5630.338,294,304,313,303,1184,6480,14716,-116,24,-3
5634.621,293,303,313,304,1184,6480,14716,-116,24,-3
5638.621999999999,293,304,313,304,1184,6480,14716,-116,24,-3
5643.170999999999,291,303,312,303,1184,6480,14716,-116,24,-3
5651.2789999999995,292,303,312,304,1156,6436,14740,-90,40,-21
5654.772999999999,290,304,312,304,1156,6436,14740,-90,40,-21
5657.885,290,303,311,303,1156,6436,14740,-90,40,-21
5665.331,290,304,309,303,1156,6436,14740,-90,40,-21
5665.331,290,304,308,304,1156,6436,14740,-90,40,-21
5676.566,291,304,308,304,1156,6436,14740,-90,40,-21
5681.213,292,303,305,303,1156,6436,14740,-90,40,-21
5687.331999999999,292,303,305,304,1128,6372,14640,-78,8,-28
5688.959,292,304,304,304,1128,6372,14640,-78,8,-28
5699.276,292,304,302,304,1128,6372,14640,-78,8,-28
5699.276,291,304,301,304,1128,6372,14640,-78,8,-28
5709.972,292,304,300,304,1128,6372,14640,-78,8,-28
5709.972,292,304,300,305,1128,6372,14640,-78,8,-28
5720.576,293,304,299,304,1128,6372,14640,-78,8,-28
5720.576,292,304,298,305,1220,6572,14880,-83,62,-29
5732.393,294,304,298,305,1220,6572,14880,-83,62,-29
5732.393,294,304,297,305,1220,6572,14880,-83,62,-29
5743.307,293,304,297,304,1220,6572,14880,-83,62,-29
5743.307,293,304,297,304,1220,6572,14880,-83,62,-29
5752.277999999999,294,305,298,305,1220,6572,14880,-83,62,-29
5754.781999999999,294,304,299,305,1220,6572,14880,-83,62,-29
5764.739,295,304,299,304,1220,6572,14880,-83,62,-29
5767.744000000001,296,304,301,305,1204,6612,14912,-184,51,-45
5776.734,296,304,302,305,1204,6612,14912,-184,51,-45
5776.734,296,303,302,304,1204,6612,14912,-184,51,-45
5787.486999999999,296,303,303,304,1204,6612,14912,-184,51,-45
5787.486999999999,297,303,304,305,1204,6612,14912,-184,51,-45
5796.191000000001,297,304,305,305,1204,6612,14912,-184,51,-45
5798.648,298,304,305,304,1204,6612,14912,-184,51,-45
5809.838,298,304,306,304,1152,6280,14652,-172,11,-14
5811.963000000001,299,304,306,304,1152,6280,14652,-172,11,-14
5821.281,299,304,306,304,1152,6280,14652,-172,11,-14
5824.042,300,304,306,304,1152,6280,14652,-172,11,-14
5831.734,301,304,306,305,1152,6280,14652,-172,11,-14
5836.495,302,304,305,304,1152,6280,14652,-172,11,-14
5842.907,303,304,304,304,1152,6280,14652,-172,11,-14
5844.955,303,304,304,304,1084,6516,14648,-26,52,-32
5854.795,305,304,304,305,1084,6516,14648,-26,52,-32
5854.795,305,304,303,305,1084,6516,14648,-26,52,-32
5865.472,306,305,303,305,1084,6516,14648,-26,52,-32
5865.472,305,304,303,305,1084,6516,14648,-26,52,-32
5876.488,305,304,302,305,1084,6516,14648,-26,52,-32
5884.581,305,305,301,305,1084,6516,14648,-26,52,-32
5887.575,305,304,301,305,1180,6340,14780,-125,-7,-34
5890.044,306,305,300,305,1180,6340,14780,-125,-7,-34
5899.132,306,305,300,305,1180,6340,14780,-125,-7,-34
5899.132,305,305,299,305,1180,6340,14780,-125,-7,-34
5909.9490000000005,305,304,299,305,1180,6340,14780,-125,-7,-34
5915.638000000001,305,305,300,306,1180,6340,14780,-125,-7,-34
5920.258,305,305,299,305,1180,6340,14780,-125,-7,-34
5920.258,305,304,299,305,1124,6580,14876,-108,41,-56
5931.924999999999,305,305,300,305,1124,6580,14876,-108,41,-56
5931.924999999999,306,304,299,305,1124,6580,14876,-108,41,-56
5943.125,306,304,298,304,1124,6580,14876,-108,41,-56
5947.885,306,304,298,305,1124,6580,14876,-108,41,-56
5953.737,305,305,298,305,1124,6580,14876,-108,41,-56
5959.571999999999,306,305,297,304,1124,6580,14876,-108,41,-56
5965.013,306,305,297,305,1096,6384,14648,-141,63,3
5968.18,306,305,297,305,1096,6384,14648,-141,63,3
5976.19,306,305,297,305,1096,6384,14648,-141,63,3
5980.187,306,305,297,304,1096,6384,14648,-141,63,3
5987.457,306,305,297,304,1096,6384,14648,-141,63,3
5987.457,306,305,298,305,1096,6384,14648,-141,63,3
5998.525,306,305,297,305,1096,6384,14648,-141,63,3
6006.973,306,305,297,304,1096,6384,14648,-141,63,3
6010.1230000000005,307,305,297,305,1172,6440,14700,-130,47,-36
6013.812,307,305,297,305,1172,6440,14700,-130,47,-36
6022.391,307,305,296,305,1172,6440,14700,-130,47,-36
6022.391,306,304,296,305,1172,6440,14700,-130,47,-36
6031.72,307,305,297,305,1172,6440,14700,-130,47,-36
6032.320000000001,307,305,297,306,1172,6440,14700,-130,47,-36
6043.718,306,305,297,305,1172,6440,14700,-130,47,-36
6043.718,305,305,297,305,1128,6532,14748,-58,51,-22
6054.739,306,305,298,305,1128,6532,14748,-58,51,-22
6057.522,306,305,298,305,1128,6532,14748,-58,51,-22
6065.817,306,304,298,305,1128,6532,14748,-58,51,-22
6069.622,306,304,298,306,1128,6532,14748,-58,51,-22
6076.436000000001,306,304,299,305,1128,6532,14748,-58,51,-22
6078.082,306,304,298,305,1128,6532,14748,-58,51,-22
6087.98,306,305,299,305,1176,6408,14796,-175,2,-13
6087.98,306,305,299,305,1176,6408,14796,-175,2,-13
6099.033,306,305,299,305,1176,6408,14796,-175,2,-13
6099.033,306,304,299,305,1176,6408,14796,-175,2,-13
6109.744,307,304,299,305,1176,6408,14796,-175,2,-13
6118.004,307,305,300,305,1176,6408,14796,-175,2,-13
6120.649,308,304,300,305,1176,6408,14796,-175,2,-13
6120.649,306,305,300,305,1176,6408,14796,-175,2,-13
6132.166,307,305,301,305,1152,6432,14616,-39,17,-29
6135.894,307,305,302,305,1152,6432,14616,-39,17,-29
6135.894,307,305,302,304,1152,6432,14616,-39,17,-29
6143.114,308,305,302,305,1152,6432,14616,-39,17,-29
6154.581,308,305,302,305,1152,6432,14616,-39,17,-29
6154.581,308,305,302,304,1152,6432,14616,-39,17,-29
6165.526,308,304,302,304,1152,6432,14616,-39,17,-29
6165.526,307,305,302,305,1164,6468,14800,-153,73,-48
6178.921,307,305,302,305,1164,6468,14800,-153,73,-48
6181.473999999999,307,305,302,305,1164,6468,14800,-153,73,-48
6187.553,307,305,302,304,1164,6468,14800,-153,73,-48
6195.628,307,304,303,305,1164,6468,14800,-153,73,-48
6198.726,308,304,303,305,1164,6468,14800,-153,73,-48
6198.726,307,304,303,304,1164,6468,14800,-153,73,-48
6209.996,307,304,303,304,1104,6436,14700,-68,6,-39
6213.3589999999995,306,305,304,304,1104,6436,14700,-68,6,-39
6213.3589999999995,306,305,303,304,1104,6436,14700,-68,6,-39
6221.264999999999,306,305,304,304,1104,6436,14700,-68,6,-39
6232.257,306,305,304,304,1104,6436,14700,-68,6,-39
6232.257,306,304,304,304,1104,6436,14700,-68,6,-39
6243.2,307,305,304,303,1104,6436,14700,-68,6,-39
6243.2,307,304,305,303,1100,6432,14776,-175,100,-46
6250.914,306,304,305,304,1100,6432,14776,-175,100,-46
6254.138,306,304,304,303,1100,6432,14776,-175,100,-46
6265.407,306,304,303,303,1100,6432,14776,-175,100,-46
6273.465,306,305,303,304,1100,6432,14776,-175,100,-46
6276.494,307,304,302,304,1100,6432,14776,-175,100,-46
6276.494,306,304,301,303,1100,6432,14776,-175,100,-46
6287.607,306,304,300,303,1164,6420,14688,-156,17,-33
6291.741,307,304,301,304,1164,6420,14688,-156,17,-33
6299.1089999999995,306,305,300,303,1164,6420,14688,-156,17,-33
6303.126,306,305,300,303,1164,6420,14688,-156,17,-33
6309.434,306,305,299,304,1164,6420,14688,-156,17,-33
6311.833,306,305,299,304,1164,6420,14688,-156,17,-33
6321.907,306,305,298,304,1164,6420,14688,-156,17,-33
6330.465,306,304,297,303,1132,6268,14740,-131,104,-47
6332.875,306,305,296,304,1132,6268,14740,-131,104,-47
6335.921,306,305,296,303,1132,6268,14740,-131,104,-47
6342.83,306,306,295,303,1132,6268,14740,-131,104,-47
6348.565,306,305,296,304,1132,6268,14740,-131,104,-47
6353.965999999999,306,305,296,304,1132,6268,14740,-131,104,-47
6360.467,307,305,296,303,1132,6268,14740,-131,104,-47
6365.491999999999,308,305,297,303,1132,6396,14676,-58,193,-105
6369.081,307,304,298,304,1132,6396,14676,-58,193,-105
6376.868,308,304,298,303,1132,6396,14676,-58,193,-105
6387.327,307,304,299,303,1132,6396,14676,-58,193,-105
6387.327,309,304,301,304,1132,6396,14676,-58,193,-105
6393.865,308,303,301,304,1132,6396,14676,-58,193,-105
6398.972,308,303,301,303,1132,6396,14676,-58,193,-105
6405.6050000000005,309,303,302,303,1048,6396,14768,-290,311,-131
6410.526,310,303,303,304,1048,6396,14768,-290,311,-131
6417.862,310,303,303,303,1048,6396,14768,-290,311,-131
6421.189,309,303,303,303,1048,6396,14768,-290,311,-131
6432.275,310,304,303,304,1048,6396,14768,-290,311,-131
6432.275,310,304,302,304,1048,6396,14768,-290,311,-131
6443.107,310,303,302,303,1048,6396,14768,-290,311,-131
6447.174,310,303,302,303,1092,6444,14744,-227,157,-70
6455.322,310,303,301,304,1092,6444,14744,-227,157,-70
6455.322,310,303,300,304,1092,6444,14744,-227,157,-70
6468.513,309,303,299,304,1092,6444,14744,-227,157,-70
6468.513,310,304,299,305,1092,6444,14744,-227,157,-70
6476.719,309,304,297,304,1092,6444,14744,-227,157,-70
6485.572999999999,309,304,295,304,1092,6444,14744,-227,157,-70
6488.201,309,304,295,304,1108,6300,14636,-25,-47,-42
6491.64,309,304,294,305,1108,6300,14636,-25,-47,-42
6498.803,308,305,293,304,1108,6300,14636,-25,-47,-42
6504.878,309,304,292,304,1108,6300,14636,-25,-47,-42
6509.819,307,305,292,305,1108,6300,14636,-25,-47,-42
6516.238,308,305,292,304,1108,6300,14636,-25,-47,-42
6521.496,307,305,291,304,1108,6300,14636,-25,-47,-42
6524.428999999999,306,305,291,304,1104,6380,14808,-82,-51,-25
6532.657999999999,307,305,292,305,1104,6380,14808,-82,-51,-25
6543.148,307,305,291,304,1104,6380,14808,-82,-51,-25
6543.148,306,305,292,304,1104,6380,14808,-82,-51,-25
6549.598,305,305,292,304,1104,6380,14808,-82,-51,-25
6554.262,304,306,292,304,1104,6380,14808,-82,-51,-25
6562.612999999999,304,305,292,304,1104,6380,14808,-82,-51,-25
6565.343000000001,303,305,293,304,1072,6440,14704,-60,-37,-27
6576.521,303,305,294,304,1072,6440,14704,-60,-37,-27
6576.521,304,305,294,304,1072,6440,14704,-60,-37,-27
6587.312,304,305,294,304,1072,6440,14704,-60,-37,-27
6590.119,304,305,294,304,1072,6440,14704,-60,-37,-27
6590.119,303,305,294,304,1072,6440,14704,-60,-37,-27
6599.185,303,305,293,304,1072,6440,14704,-60,-37,-27
6606.467000000001,303,305,293,304,1028,6376,14748,-125,11,-61
6609.804999999999,303,305,294,304,1028,6376,14748,-125,11,-61
6620.313,303,305,293,303,1028,6376,14748,-125,11,-61
6622.592,303,306,293,303,1028,6376,14748,-125,11,-61
6632.178,303,306,293,304,1028,6376,14748,-125,11,-61
6634.896000000001,303,306,293,304,1028,6376,14748,-125,11,-61
6634.896000000001,303,306,293,304,1028,6376,14748,-125,11,-61
6643.9310000000005,302,306,292,304,1028,6376,14748,-125,11,-61
6654.0869999999995,303,306,293,304,1080,6404,14856,-142,69,-37
6654.0869999999995,303,306,292,304,1080,6404,14856,-142,69,-37
6665.794,303,305,292,303,1080,6404,14856,-142,69,-37
6668.031,304,305,292,304,1080,6404,14856,-142,69,-37
6677.351,304,306,293,304,1080,6404,14856,-142,69,-37
6680.22,304,307,292,303,1080,6404,14856,-142,69,-37
6680.22,304,307,292,303,1080,6404,14856,-142,69,-37
6687.826,304,307,292,304,984,6648,15176,-275,386,-87
6698.908,304,306,291,303,984,6648,15176,-275,386,-87
6704.321,304,306,290,303,984,6648,15176,-275,386,-87
6710.247,305,306,290,304,984,6648,15176,-275,386,-87
6710.247,306,307,291,304,984,6648,15176,-275,386,-87
6720.796,306,307,290,304,984,6648,15176,-275,386,-87
6725.646000000001,307,307,290,304,984,6648,15176,-275,386,-87
6732.061,307,307,291,305,984,7984,15820,-330,1712,-748
6732.061,309,308,292,305,984,7984,15820,-330,1712,-748
6743.024,310,307,293,304,984,7984,15820,-330,1712,-748
6751.768,312,306,294,305,984,7984,15820,-330,1712,-748
6754.254000000001,314,306,295,303,984,7984,15820,-330,1712,-748
6758.772,316,305,296,303,984,7984,15820,-330,1712,-748
6765.5560000000005,317,305,297,305,984,7984,15820,-330,1712,-748
6776.842000000001,318,305,298,307,1156,6152,15764,-4078,4530,-1777
6778.354,319,305,299,305,1156,6152,15764,-4078,4530,-1777
6788.619,320,304,298,307,1156,6152,15764,-4078,4530,-1777
6788.619,323,304,298,309,1156,6152,15764,-4078,4530,-1777
6798.6230000000005,324,304,300,310,1156,6152,15764,-4078,4530,-1777
6804.628,322,303,303,313,1156,6152,15764,-4078,4530,-1777
6809.804,320,302,310,317,776,9440,16240,-1904,6326,-2074
6815.226,312,302,314,316,776,9440,16240,-1904,6326,-2074
6820.5470000000005,305,302,317,318,776,9440,16240,-1904,6326,-2074
6828.492,298,303,319,320,776,9440,16240,-1904,6326,-2074
6832.2789999999995,294,304,322,321,776,9440,16240,-1904,6326,-2074
6842.976000000001,293,307,326,320,776,9440,16240,-1904,6326,-2074
6842.976000000001,294,311,331,323,776,9440,16240,-1904,6326,-2074
6854.212,296,318,334,326,72,7256,18964,-1195,5983,-3615
6862.3,299,326,337,331,72,7256,18964,-1195,5983,-3615
6865.363,298,333,338,335,72,7256,18964,-1195,5983,-3615
6874.692999999999,295,338,338,339,72,7256,18964,-1195,5983,-3615
6876.674999999999,293,341,337,342,72,7256,18964,-1195,5983,-3615
6887.226,292,342,331,344,72,7256,18964,-1195,5983,-3615
6887.226,291,341,318,345,440,8504,21996,-1412,10793,-5434
6898.675,289,321,293,347,440,8504,21996,-1412,10793,-5434
6901.812,289,298,276,347,440,8504,21996,-1412,10793,-5434
6910.674,291,267,249,349,440,8504,21996,-1412,10793,-5434
6910.674,294,243,218,353,440,8504,21996,-1412,10793,-5434
6921.092,302,225,179,360,440,8504,21996,-1412,10793,-5434
6929.213,314,194,129,366,440,8504,21996,-1412,10793,-5434
6932.282,335,143,57,372,532,7868,20536,2838,14779,-7018
6938.549,351,84,7,376,532,7868,20536,2838,14779,-7018
6943.477,363,34,0,382,532,7868,20536,2838,14779,-7018
6946.428,370,0,0,391,532,7868,20536,2838,14779,-7018
6955.2519999999995,372,0,0,402,532,7868,20536,2838,14779,-7018
6963.507,370,0,0,411,532,7868,20536,2838,14779,-7018
6968.102,366,0,0,418,532,7868,20536,2838,14779,-7018
6968.102,358,0,3,424,-1748,9800,18584,2844,20986,-9747
6977.098,345,0,6,429,-1748,9800,18584,2844,20986,-9747
6984.276000000001,334,0,14,435,-1748,9800,18584,2844,20986,-9747
6987.89,320,0,23,440,-1748,9800,18584,2844,20986,-9747
6998.737,306,0,34,445,-1748,9800,18584,2844,20986,-9747
6998.737,292,0,46,449,-1748,9800,18584,2844,20986,-9747
7009.866,276,4,60,454,-2480,8668,14492,4107,21823,-12294
7018.914,259,17,75,455,-2480,8668,14492,4107,21823,-12294
7020.784,248,32,85,455,-2480,8668,14492,4107,21823,-12294
7029.998,242,48,98,457,-2480,8668,14492,4107,21823,-12294
7032.374,239,65,109,459,-2480,8668,14492,4107,21823,-12294
7042.509,236,87,126,463,-2480,8668,14492,4107,21823,-12294
7042.509,237,107,144,466,-2480,8668,14492,4107,21823,-12294
7054.677,239,139,170,471,-5620,6240,11188,1749,23151,-13564
7056.997,242,173,194,477,-5620,6240,11188,1749,23151,-13564
7065.737999999999,232,198,214,482,-5620,6240,11188,1749,23151,-13564
7074.705,222,224,235,487,-5620,6240,11188,1749,23151,-13564
7076.861,219,247,258,488,-5620,6240,11188,1749,23151,-13564
7087.854,222,261,282,489,-5620,6240,11188,1749,23151,-13564
7096.631,235,280,313,491,-7508,4084,9320,-1041,21591,-12988
7098.906999999999,252,301,342,495,-7508,4084,9320,-1041,21591,-12988
7103.128,269,319,367,498,-7508,4084,9320,-1041,21591,-12988
7110.385,291,338,391,505,-7508,4084,9320,-1041,21591,-12988
7121.0019999999995,328,362,420,516,-7508,4084,9320,-1041,21591,-12988
7122.644,361,374,442,527,-7508,4084,9320,-1041,21591,-12988
7132.710999999999,396,382,470,540,-8468,2164,8272,-2266,19386,-12430
7141.366,420,385,489,545,-8468,2164,8272,-2266,19386,-12430
7143.222,433,391,515,555,-8468,2164,8272,-2266,19386,-12430
7148.459,439,395,536,563,-8468,2164,8272,-2266,19386,-12430
7154.232999999999,442,395,556,567,-8468,2164,8272,-2266,19386,-12430
7165.77,445,390,573,570,-8468,2164,8272,-2266,19386,-12430
7174.429,442,386,587,571,-9236,1248,4372,-3396,15804,-10465
7176.764,437,386,593,566,-9236,1248,4372,-3396,15804,-10465
7188.379,432,379,589,556,-9236,1248,4372,-3396,15804,-10465
7190.516,432,368,573,545,-9236,1248,4372,-3396,15804,-10465
7198.603999999999,452,369,550,524,-9236,1248,4372,-3396,15804,-10465
7200.422,482,369,531,511,-9236,1248,4372,-3396,15804,-10465
7209.988,515,365,505,491,-10680,-1276,4036,-5065,12676,-8101
7219.199,546,361,482,471,-10680,-1276,4036,-5065,12676,-8101
7221.305,565,359,467,458,-10680,-1276,4036,-5065,12676,-8101
7232.008000000001,579,355,455,447,-10680,-1276,4036,-5065,12676,-8101
7233.021,584,343,438,433,-10680,-1276,4036,-5065,12676,-8101
7242.759999999999,572,334,423,415,-10680,-1276,4036,-5065,12676,-8101
7252.214,555,332,413,403,-12524,-1624,5124,-3480,8211,-6500
7254.888,529,326,400,386,-12524,-1624,5124,-3480,8211,-6500
7263.255,505,320,384,370,-12524,-1624,5124,-3480,8211,-6500
7265.347000000001,474,317,368,352,-12524,-1624,5124,-3480,8211,-6500
7276.583,445,311,353,337,-12524,-1624,5124,-3480,8211,-6500
7285.2699999999995,408,303,336,322,-12524,-1624,5124,-3480,8211,-6500
7287.483,375,297,326,310,-12524,-1624,5124,-3480,8211,-6500
7295.022999999999,337,293,315,294,-14840,-1832,5992,-1298,4043,-4585
7299.632,303,298,311,279,-14840,-1832,5992,-1298,4043,-4585
7309.985000000001,275,302,309,266,-14840,-1832,5992,-1298,4043,-4585
7309.985000000001,247,304,309,257,-14840,-1832,5992,-1298,4043,-4585
7320.985000000001,222,317,308,247,-14840,-1832,5992,-1298,4043,-4585
7327.898,204,326,306,235,-14840,-1832,5992,-1298,4043,-4585
7332.909,188,334,311,223,-14688,144,7812,4396,3384,-3881
7340.03,180,345,313,208,-14688,144,7812,4396,3384,-3881
7343.085,174,363,317,196,-14688,144,7812,4396,3384,-3881
7354.584,170,381,323,187,-14688,144,7812,4396,3384,-3881
7356.194,166,396,324,172,-14688,144,7812,4396,3384,-3881
7365.7519999999995,165,409,331,157,-14688,144,7812,4396,3384,-3881
7368.459,164,424,337,140,-15348,1320,7908,3318,4952,-3695
7376.630999999999,166,434,339,127,-15348,1320,7908,3318,4952,-3695
7387.498,167,440,341,113,-15348,1320,7908,3318,4952,-3695
7387.498,169,441,339,98,-15348,1320,7908,3318,4952,-3695
7398.360000000001,171,445,339,83,-15348,1320,7908,3318,4952,-3695
7398.360000000001,174,452,339,66,-15348,1320,7908,3318,4952,-3695
7409.659000000001,178,461,341,56,-15348,1320,7908,3318,4952,-3695
7413.758,183,467,340,46,-14616,1440,5156,1829,6107,-3914
7421.01,186,472,338,31,-14616,1440,5156,1829,6107,-3914
7425.594,190,475,335,19,-14616,1440,5156,1829,6107,-3914
7432.775000000001,193,475,338,8,-14616,1440,5156,1829,6107,-3914
7437.639,197,479,336,1,-14616,1440,5156,1829,6107,-3914
7442.9619999999995,202,483,336,0,-14616,1440,5156,1829,6107,-3914
7450.017,205,484,338,0,-15180,-120,4072,-1512,5506,-4309
7454.768,207,481,336,0,-15180,-120,4072,-1512,5506,-4309
7462.726,209,478,333,0,-15180,-120,4072,-1512,5506,-4309
7467.844999999999,212,480,334,0,-15180,-120,4072,-1512,5506,-4309
7476.732,215,480,333,0,-15180,-120,4072,-1512,5506,-4309
7485.523,217,485,335,0,-15180,-120,4072,-1512,5506,-4309
7487.697,220,488,335,0,-15180,-120,4072,-1512,5506,-4309
7491.446,219,487,332,0,-15348,-1308,3128,-1862,4426,-3867
7498.9169999999995,220,494,330,0,-15348,-1308,3128,-1862,4426,-3867
7509.348,222,500,331,0,-15348,-1308,3128,-1862,4426,-3867
7511.83,223,505,331,0,-15348,-1308,3128,-1862,4426,-3867
7521.598,224,509,327,0,-15348,-1308,3128,-1862,4426,-3867
7521.598,230,516,328,0,-15348,-1308,3128,-1862,4426,-3867
7533.068,233,524,329,0,-15988,-1044,3628,-167,1996,-2629
7536.4259999999995,236,536,328,0,-15988,-1044,3628,-167,1996,-2629
7542.575,236,541,326,1,-15988,-1044,3628,-167,1996,-2629
7549.442,235,540,326,4,-15988,-1044,3628,-167,1996,-2629
7554.33,235,540,320,9,-15988,-1044,3628,-167,1996,-2629
7560.652,236,541,320,15,-15988,-1044,3628,-167,1996,-2629
7565.544,238,542,317,24,-15988,-1044,3628,-167,1996,-2629
7574.109,240,537,317,35,-15484,-1316,3204,2200,1667,-2238
7576.472,242,530,314,41,-15484,-1316,3204,2200,1667,-2238
7587.587,240,522,311,45,-15484,-1316,3204,2200,1667,-2238
7596.66,239,515,310,50,-15484,-1316,3204,2200,1667,-2238
7598.455000000001,238,507,309,56,-15484,-1316,3204,2200,1667,-2238
7607.887,238,500,311,62,-15484,-1316,3204,2200,1667,-2238
7610.742,235,489,308,64,-15992,-1972,1816,-222,-930,-624
7618.905,231,480,308,69,-15992,-1972,1816,-222,-930,-624
7621.344,228,475,308,73,-15992,-1972,1816,-222,-930,-624
7633.218,226,468,308,76,-15992,-1972,1816,-222,-930,-624
7641.148,223,463,309,79,-15992,-1972,1816,-222,-930,-624
7641.148,221,459,307,81,-15992,-1972,1816,-222,-930,-624
7652.284,219,461,305,84,-15992,-1972,1816,-222,-930,-624
7655.665,218,462,306,85,-15580,-1456,5440,-2796,-727,1182
7665.250999999999,215,461,303,89,-15580,-1456,5440,-2796,-727,1182
7665.250999999999,213,461,303,93,-15580,-1456,5440,-2796,-727,1182
7676.469,210,461,303,94,-15580,-1456,5440,-2796,-727,1182
7679.932,208,458,304,97,-15580,-1456,5440,-2796,-727,1182
7688.273,206,452,304,97,-15580,-1456,5440,-2796,-727,1182
7688.273,208,447,306,102,-15572,-1532,6252,-2443,-997,1345
7698.944,209,442,308,104,-15572,-1532,6252,-2443,-997,1345
7707.759,211,434,311,107,-15572,-1532,6252,-2443,-997,1345
7709.134,212,426,313,112,-15572,-1532,6252,-2443,-997,1345
7717.779,215,417,312,114,-15572,-1532,6252,-2443,-997,1345
7723.002,218,409,313,117,-15572,-1532,6252,-2443,-997,1345
7729.8460000000005,223,400,315,120,-15348,-256,6592,-859,155,21
7733.19,228,392,313,123,-15348,-256,6592,-859,155,21
7743.336,231,386,313,124,-15348,-256,6592,-859,155,21
7752.256,237,380,311,126,-15348,-256,6592,-859,155,21
7754.231,244,373,315,130,-15348,-256,6592,-859,155,21
7754.231,251,366,315,135,-15348,-256,6592,-859,155,21
7765.329000000001,256,359,314,136,-15348,-256,6592,-859,155,21
7771.307,264,354,316,140,-15796,-1532,4616,-451,409,-283
7776.1230000000005,272,347,315,144,-15796,-1532,4616,-451,409,-283
7781.985,279,342,316,146,-15796,-1532,4616,-451,409,-283
7787.4619999999995,287,338,313,148,-15796,-1532,4616,-451,409,-283
7794.65,295,334,315,154,-15796,-1532,4616,-451,409,-283
7799.072,300,329,315,157,-15796,-1532,4616,-451,409,-283
7809.712,305,325,312,158,-15796,-1532,4616,-451,409,-283
7817.732,309,323,315,162,-15804,-1404,5048,-644,389,-99
7820.946,313,321,315,166,-15804,-1404,5048,-644,389,-99
7828.978,317,320,314,169,-15804,-1404,5048,-644,389,-99
7833.307,320,316,316,172,-15804,-1404,5048,-644,389,-99
7841.374,322,314,315,174,-15804,-1404,5048,-644,389,-99
7843.843,323,313,316,175,-15804,-1404,5048,-644,389,-99
7852.495,325,309,316,180,-15572,-1336,5008,-1903,386,38
7854.542,326,308,317,183,-15572,-1336,5008,-1903,386,38
7865.22,327,308,317,186,-15572,-1336,5008,-1903,386,38
7865.22,328,306,319,188,-15572,-1336,5008,-1903,386,38
7876.424,328,304,318,191,-15572,-1336,5008,-1903,386,38
7880.611,327,303,320,194,-15572,-1336,5008,-1903,386,38
7887.232,327,302,320,197,-15572,-1336,5008,-1903,386,38
7892.543,326,300,321,199,-15696,-1452,4780,-2158,-154,538
7898.53,326,298,323,204,-15696,-1452,4780,-2158,-154,538
7904.601000000001,325,297,323,206,-15696,-1452,4780,-2158,-154,538
7909.604,323,293,324,208,-15696,-1452,4780,-2158,-154,538
7916.902999999999,322,292,326,212,-15696,-1452,4780,-2158,-154,538
7921.44,320,291,326,214,-15696,-1452,4780,-2158,-154,538
7932.059,320,290,326,217,-15696,-1452,4780,-2158,-154,538
7940.291,318,288,327,220,-15800,-616,5364,-524,-381,276
7943.797,316,286,325,221,-15800,-616,5364,-524,-381,276
7952.565,315,285,328,225,-15800,-616,5364,-524,-381,276
7956.755,315,284,327,228,-15800,-616,5364,-524,-381,276
7958.034,313,283,328,230,-15800,-616,5364,-524,-381,276
7968.369,313,283,328,231,-15800,-616,5364,-524,-381,276
7970.535,312,282,329,236,-15480,-660,5420,822,-172,-38
7976.218,311,281,327,237,-15480,-660,5420,822,-172,-38
7983.07,310,279,326,238,-15480,-660,5420,822,-172,-38
7988.108,310,279,330,241,-15480,-660,5420,822,-172,-38
7994.951999999999,310,281,328,245,-15480,-660,5420,822,-172,-38
7999.418000000001,311,279,328,247,-15480,-660,5420,822,-172,-38
8010.111999999999,310,282,328,249,-15480,-660,5420,822,-172,-38
8010.111999999999,311,283,328,251,-15728,-824,5676,710,-99,80
8021.005999999999,313,284,327,254,-15728,-824,5676,710,-99,80
8021.005999999999,313,285,327,256,-15728,-824,5676,710,-99,80
8033.478000000001,315,285,328,258,-15728,-824,5676,710,-99,80
8036.258999999999,316,284,326,259,-15728,-824,5676,710,-99,80
8043.086,315,284,323,258,-15728,-824,5676,710,-99,80
8044.064,315,285,323,261,-15728,-824,5676,710,-99,80
8054.425,315,285,325,263,-15536,-1164,5056,-266,517,72
8063.394,314,286,325,265,-15536,-1164,5056,-266,517,72
8065.450999999999,314,287,322,265,-15536,-1164,5056,-266,517,72
8074.835999999999,314,288,324,268,-15536,-1164,5056,-266,517,72
8076.281,314,289,324,267,-15536,-1164,5056,-266,517,72
8081.5160000000005,312,289,323,269,-15536,-1164,5056,-266,517,72
8087.2480000000005,313,290,324,271,-15536,-1164,5056,-266,517,72
8094.112000000001,311,292,324,273,-15700,-812,5148,-613,565,-3
8098.782999999999,309,294,322,273,-15700,-812,5148,-613,565,-3
8105.973000000001,308,296,321,274,-15700,-812,5148,-613,565,-3
8110.250000000001,307,298,322,277,-15700,-812,5148,-613,565,-3
8114.025,306,299,321,277,-15700,-812,5148,-613,565,-3
8121.071000000001,304,300,319,277,-15700,-812,5148,-613,565,-3
8132.211,303,300,319,278,-15700,-812,5148,-613,565,-3
8133.724000000001,302,302,317,279,-15684,-684,5400,-149,725,-180
8143.634000000001,301,303,318,281,-15684,-684,5400,-149,725,-180
8143.634000000001,301,303,316,281,-15684,-684,5400,-149,725,-180
8152.789000000001,300,304,317,283,-15684,-684,5400,-149,725,-180
8155.362,300,304,317,284,-15684,-684,5400,-149,725,-180
8165.405,300,304,316,285,-15684,-684,5400,-149,725,-180
8174.424,299,303,314,285,-15776,-844,4776,446,-84,-111
8176.292,298,303,315,287,-15776,-844,4776,446,-84,-111
8179.249000000001,297,302,314,288,-15776,-844,4776,446,-84,-111
8188.280000000001,297,302,314,289,-15776,-844,4776,446,-84,-111
8198.506,297,303,313,291,-15776,-844,4776,446,-84,-111
8198.931,299,303,312,292,-15776,-844,4776,446,-84,-111
8209.599,299,302,310,292,-15776,-844,4776,446,-84,-111
8209.599,299,300,310,293,-15704,-780,5376,306,138,-310
8216.465,300,300,312,295,-15704,-780,5376,306,138,-310
8221.177000000001,300,300,310,295,-15704,-780,5376,306,138,-310
8229.015000000001,302,300,308,296,-15704,-780,5376,306,138,-310
8235.078,302,299,309,297,-15704,-780,5376,306,138,-310
8243.672,302,299,309,298,-15704,-780,5376,306,138,-310
8243.672,304,299,311,300,-15704,-780,5376,306,138,-310
8254.054,306,300,311,302,-15740,-924,4736,-171,-89,-139
8263.534,306,300,309,304,-15740,-924,4736,-171,-89,-139
8265.824999999999,307,301,309,306,-15740,-924,4736,-171,-89,-139
8269.712,308,298,308,307,-15740,-924,4736,-171,-89,-139
8276.116,308,297,308,308,-15740,-924,4736,-171,-89,-139
8282.644,308,298,308,310,-15740,-924,4736,-171,-89,-139
8287.708999999999,309,298,307,310,-15740,-924,4736,-171,-89,-139
8293.979,310,298,307,312,-15588,-976,5192,-550,-83,59
8299.236,308,298,307,313,-15588,-976,5192,-550,-83,59
8309.252,308,298,308,314,-15588,-976,5192,-550,-83,59
8309.672,306,297,310,316,-15588,-976,5192,-550,-83,59
8318.407000000001,306,297,310,317,-15588,-976,5192,-550,-83,59
8321.681999999999,304,296,309,318,-15588,-976,5192,-550,-83,59
8333.74,303,294,309,319,-15588,-976,5192,-550,-83,59
8335.356000000002,303,293,306,320,-15812,-712,5172,-322,-130,-108
8343.057,302,292,309,322,-15812,-712,5172,-322,-130,-108
8347.371000000001,302,292,309,323,-15812,-712,5172,-322,-130,-108
8354.161,300,292,307,323,-15812,-712,5172,-322,-130,-108
8359.305,300,292,307,325,-15812,-712,5172,-322,-130,-108
8365.074999999999,299,291,307,326,-15812,-712,5172,-322,-130,-108
8372.985999999999,298,288,306,326,-15540,-784,5064,302,-104,-166
8376.797,297,285,307,328,-15540,-784,5064,302,-104,-166
8384.622,297,283,306,330,-15540,-784,5064,302,-104,-166
8387.579,296,281,307,331,-15540,-784,5064,302,-104,-166
8398.383000000002,295,278,307,331,-15540,-784,5064,302,-104,-166
8406.739,295,276,307,332,-15540,-784,5064,302,-104,-166
8409.843,295,276,308,333,-15540,-784,5064,302,-104,-166
8413.579,297,275,307,334,-15820,-624,5692,790,133,-312
8422.11,298,274,307,334,-15820,-624,5692,790,133,-312
8422.11,299,275,306,334,-15820,-624,5692,790,133,-312
8434.008,299,275,305,334,-15820,-624,5692,790,133,-312
8434.008,299,277,304,334,-15820,-624,5692,790,133,-312
8442.902,300,277,306,335,-15820,-624,5692,790,133,-312
8450.141,302,277,305,336,-15820,-624,5692,790,133,-312
8454.579000000002,303,277,302,334,-15688,-948,5052,542,360,-293
8463.178,306,277,305,335,-15688,-948,5052,542,360,-293
8468.424,307,277,305,337,-15688,-948,5052,542,360,-293
8476.999,309,278,304,337,-15688,-948,5052,542,360,-293
8476.999,309,278,303,337,-15688,-948,5052,542,360,-293
8487.501,311,279,303,338,-15688,-948,5052,542,360,-293
8487.501,312,279,302,337,-15688,-948,5052,542,360,-293
8498.744999999999,313,281,303,338,-15884,-1276,5232,-478,517,-45
8503.332,315,282,304,338,-15884,-1276,5232,-478,517,-45
8509.473,316,283,303,338,-15884,-1276,5232,-478,517,-45
8515.194,315,283,303,339,-15884,-1276,5232,-478,517,-45
8520.562,315,284,303,339,-15884,-1276,5232,-478,517,-45
8530.376,315,285,303,339,-15884,-1276,5232,-478,517,-45
8534.046999999999,315,284,304,340,-15684,-776,5040,-488,414,75
8536.217,316,285,302,339,-15684,-776,5040,-488,414,75
8544.173999999999,317,285,304,340,-15684,-776,5040,-488,414,75
8554.173999999999,316,284,304,341,-15684,-776,5040,-488,414,75
8556.241999999998,317,285,303,340,-15684,-776,5040,-488,414,75
8556.241999999998,316,285,304,341,-15684,-776,5040,-488,414,75
8566.386,317,284,305,341,-15684,-776,5040,-488,414,75
8572.971000000001,317,284,303,340,-15792,-924,4584,-418,9,123
8576.717999999999,317,284,304,340,-15792,-924,4584,-418,9,123
8587.409,317,284,304,341,-15792,-924,4584,-418,9,123
8587.409,318,284,305,340,-15792,-924,4584,-418,9,123
8598.481,318,286,306,341,-15792,-924,4584,-418,9,123
8598.481,319,286,305,341,-15792,-924,4584,-418,9,123
8606.368,318,287,306,342,-15792,-924,4584,-418,9,123
8609.675,317,287,305,340,-15732,-904,4796,144,-181,128
8617.987,317,288,306,341,-15732,-904,4796,144,-181,128
8620.826,318,288,306,342,-15732,-904,4796,144,-181,128
8631.709,318,289,307,343,-15732,-904,4796,144,-181,128
8634.029999999999,317,288,304,341,-15732,-904,4796,144,-181,128
8643.230000000001,317,288,307,342,-15732,-904,4796,144,-181,128
8646.202000000001,316,289,308,343,-15732,-904,4796,144,-181,128
8654.548,316,289,307,343,-15716,-888,5052,423,-364,51
8654.548,314,290,306,342,-15716,-888,5052,423,-364,51
8665.454,314,291,307,342,-15716,-888,5052,423,-364,51
8673.755,314,292,307,343,-15716,-888,5052,423,-364,51
8676.406,312,292,307,343,-15716,-888,5052,423,-364,51
8685.556,312,293,308,344,-15716,-888,5052,423,-364,51
8687.731,312,293,308,344,-15716,-888,5052,423,-364,51
8692.157,310,293,305,343,-15704,-728,5296,281,-318,101
8698.874,309,293,304,343,-15704,-728,5296,281,-318,101
8710.035,309,293,305,343,-15704,-728,5296,281,-318,101
8711.775,307,294,305,345,-15704,-728,5296,281,-318,101
8721.666000000001,308,294,305,345,-15704,-728,5296,281,-318,101
8721.666000000001,307,293,304,345,-15704,-728,5296,281,-318,101
8728.533000000001,306,294,305,346,-15704,-728,5296,281,-318,101
8734.135999999999,306,296,306,347,-15660,-824,5488,139,-6,102
8743.453000000001,305,296,303,346,-15660,-824,5488,139,-6,102
8747.534,305,295,304,347,-15660,-824,5488,139,-6,102
8754.382,305,294,304,347,-15660,-824,5488,139,-6,102
8754.382,304,293,302,347,-15660,-824,5488,139,-6,102
8761.447,306,294,303,347,-15660,-824,5488,139,-6,102
8768.61,306,294,301,346,-15660,-824,5488,139,-6,102
8775.215,307,295,302,348,-15648,-888,5004,-90,312,-59
8777.155,307,294,302,349,-15648,-888,5004,-90,312,-59
8787.643,306,293,300,348,-15648,-888,5004,-90,312,-59
8796.401,308,294,301,349,-15648,-888,5004,-90,312,-59
8798.596,307,295,303,350,-15648,-888,5004,-90,312,-59
8802.413,308,295,302,347,-15648,-888,5004,-90,312,-59
8809.93,308,295,302,348,-15648,-888,5004,-90,312,-59
8814.387,307,294,301,348,-15772,-888,5132,-326,260,-12
8820.715999999999,308,295,302,348,-15772,-888,5132,-326,260,-12
8826.339,307,296,302,349,-15772,-888,5132,-326,260,-12
8834.167000000001,308,296,302,349,-15772,-888,5132,-326,260,-12
8838.43,307,295,305,348,-15772,-888,5132,-326,260,-12
8843.327000000001,307,294,304,348,-15772,-888,5132,-326,260,-12
8851.777,308,294,304,349,-15772,-888,5132,-326,260,-12
8854.089,307,294,305,347,-15692,-932,4940,-427,151,215
8864.917,307,295,305,347,-15692,-932,4940,-427,151,215
8867.34,308,295,306,347,-15692,-932,4940,-427,151,215
8876.793,308,295,307,347,-15692,-932,4940,-427,151,215
8879.545,308,295,307,346,-15692,-932,4940,-427,151,215
8887.308,308,295,307,347,-15692,-932,4940,-427,151,215
8892.536,308,294,307,347,-15692,-932,4940,-427,151,215
8898.424,308,294,307,346,-15812,-644,4956,-150,-2,176
8900.61,308,294,308,347,-15812,-644,4956,-150,-2,176
8909.800000000001,309,294,308,347,-15812,-644,4956,-150,-2,176
8919.131,309,295,307,347,-15812,-644,4956,-150,-2,176
8921.073,308,294,308,348,-15812,-644,4956,-150,-2,176
8924.986,309,295,308,348,-15812,-644,4956,-150,-2,176
8935.332,310,294,308,348,-15708,-540,5124,483,162,-136
8935.332,310,294,306,347,-15708,-540,5124,483,162,-136
8943.48,309,294,307,347,-15708,-540,5124,483,162,-136
8952.235,309,295,306,347,-15708,-540,5124,483,162,-136
8953.986,309,295,307,348,-15708,-540,5124,483,162,-136
8963.31,309,296,306,347,-15708,-540,5124,483,162,-136
8967.771,310,296,305,347,-15708,-540,5124,483,162,-136
8976.804,310,296,305,347,-15736,-836,4936,188,-2,-225
8976.804,310,296,305,347,-15736,-836,4936,188,-2,-225
8987.696,310,297,304,347,-15736,-836,4936,188,-2,-225
8987.696,309,298,304,347,-15736,-836,4936,188,-2,-225
8999.008,309,299,303,347,-15736,-836,4936,188,-2,-225
9003.077,308,299,302,347,-15736,-836,4936,188,-2,-225
9009.422,309,299,301,346,-15736,-836,4936,188,-2,-225
9009.422,310,301,301,347,-15752,-900,4868,-39,54,-109
9020.613000000001,309,303,299,347,-15752,-900,4868,-39,54,-109
9029.902,309,303,299,346,-15752,-900,4868,-39,54,-109
9032.137999999999,309,305,298,346,-15752,-900,4868,-39,54,-109
9036.203000000001,309,305,299,346,-15752,-900,4868,-39,54,-109
9042.91,309,305,298,347,-15752,-900,4868,-39,54,-109
9048.235,309,307,298,347,-15752,-900,4868,-39,54,-109
9054.012999999999,309,308,298,347,-15736,-1104,5116,-224,25,12
9059.798999999999,308,309,297,347,-15736,-1104,5116,-224,25,12
9065.443,309,309,297,347,-15736,-1104,5116,-224,25,12
9067.946,309,309,296,346,-15736,-1104,5116,-224,25,12
9077.444,308,310,296,346,-15736,-1104,5116,-224,25,12
9085.753,309,310,298,347,-15736,-1104,5116,-224,25,12
9088.163,309,308,297,347,-15736,-1104,5116,-224,25,12
9093.083999999999,310,306,297,347,-15792,-1112,5040,-88,-36,29
9098.201,311,302,295,347,-15792,-1112,5040,-88,-36,29
9105.908,310,301,293,346,-15792,-1112,5040,-88,-36,29
9109.783,312,300,295,347,-15792,-1112,5040,-88,-36,29
9117.708,313,300,294,347,-15792,-1112,5040,-88,-36,29
9120.928,313,297,295,349,-15792,-1112,5040,-88,-36,29
9131.812,313,296,294,350,-15792,-1112,5040,-88,-36,29
9134.827,312,295,294,351,-15772,-992,4816,194,-191,117
9143.194,313,295,290,349,-15772,-992,4816,194,-191,117
9145.571,314,295,293,350,-15772,-992,4816,194,-191,117
9154.61,314,294,294,351,-15772,-992,4816,194,-191,117
9157.92,314,293,292,350,-15772,-992,4816,194,-191,117
9165.475,314,293,294,351,-15772,-992,4816,194,-191,117
9170.764000000001,314,293,294,352,-15772,-992,4816,194,-191,117
9176.069,314,293,293,350,-15724,-672,5164,367,-58,17
9178.898000000001,314,293,294,350,-15724,-672,5164,367,-58,17
9188.249000000002,314,293,293,351,-15724,-672,5164,367,-58,17
9188.249000000002,315,294,293,350,-15724,-672,5164,367,-58,17
9198.677,315,294,293,350,-15724,-672,5164,367,-58,17
9206.759,314,293,294,351,-15724,-672,5164,367,-58,17
9209.654999999999,314,294,293,349,-15724,-672,5164,367,-58,17
9215.987000000001,314,293,292,349,-15776,-748,4916,168,-112,-93
9220.601,314,294,294,349,-15776,-748,4916,168,-112,-93
9228.298999999999,315,293,293,348,-15776,-748,4916,168,-112,-93
9235.155999999999,314,294,294,348,-15776,-748,4916,168,-112,-93
9236.634,315,295,293,349,-15776,-748,4916,168,-112,-93
9243.15,315,295,292,349,-15776,-748,4916,168,-112,-93
9254.817,315,295,292,348,-15776,-748,4916,168,-112,-93
9256.548,315,296,293,348,-15744,-960,5116,-230,-151,128
9266.345,316,296,294,350,-15744,-960,5116,-230,-151,128
9266.345,315,295,294,350,-15744,-960,5116,-230,-151,128
9276.356,315,295,294,351,-15744,-960,5116,-230,-151,128
9284.475,314,295,294,350,-15744,-960,5116,-230,-151,128
9286.737000000001,314,296,295,350,-15744,-960,5116,-230,-151,128
9293.27,313,297,294,349,-15744,-960,5116,-230,-151,128
9298.249,314,297,296,349,-15720,-732,5172,75,-82,22
9301.323999999999,313,298,297,349,-15720,-732,5172,75,-82,22
9310.514,313,298,298,350,-15720,-732,5172,75,-82,22
9310.514,314,298,298,348,-15720,-732,5172,75,-82,22
9320.962,313,299,298,348,-15720,-732,5172,75,-82,22
9326.929,314,300,298,347,-15720,-732,5172,75,-82,22
9331.562,314,300,298,347,-15720,-732,5172,75,-82,22
9341.391,313,300,298,346,-15772,-664,5048,128,-40,3
9343.508,313,301,298,346,-15772,-664,5048,128,-40,3
9343.508,313,301,298,346,-15772,-664,5048,128,-40,3
9354.309000000001,314,301,296,344,-15772,-664,5048,128,-40,3
9362.33,314,302,298,345,-15772,-664,5048,128,-40,3
9364.505,314,302,299,344,-15772,-664,5048,128,-40,3
9371.077,314,302,299,344,-15772,-664,5048,128,-40,3
9376.399,313,303,298,344,-15812,-656,5292,97,48,-112
9379.292,313,303,298,342,-15812,-656,5292,97,48,-112
9388.225,313,303,298,342,-15812,-656,5292,97,48,-112
9388.225,313,302,298,342,-15812,-656,5292,97,48,-112
9398.661,312,303,297,341,-15812,-656,5292,97,48,-112
9406.715999999999,312,302,296,340,-15812,-656,5292,97,48,-112
9409.959,312,303,297,340,-15812,-656,5292,97,48,-112
9417.448,312,303,297,339,-15652,-804,4868,-196,146,-133
9421.203,312,304,297,339,-15652,-804,4868,-196,146,-133
9425.155,312,304,298,339,-15652,-804,4868,-196,146,-133
9435.404,311,302,296,338,-15652,-804,4868,-196,146,-133
9443.375,311,301,297,338,-15652,-804,4868,-196,146,-133
9443.375,312,301,298,338,-15652,-804,4868,-196,146,-133
9454.143,312,300,297,337,-15652,-804,4868,-196,146,-133
9454.143,313,299,297,337,-15744,-856,5024,-253,28,-25
9463.139,314,299,294,335,-15744,-856,5024,-253,28,-25
9469.2,314,299,294,335,-15744,-856,5024,-253,28,-25
9476.563,315,300,296,335,-15744,-856,5024,-253,28,-25
9477.995,314,299,297,335,-15744,-856,5024,-253,28,-25
9488.097,315,298,296,334,-15744,-856,5024,-253,28,-25
9496.764000000001,316,300,296,333,-15744,-856,5024,-253,28,-25
9499.385,315,300,294,332,-15748,-908,5120,-257,-158,76
9508.223,316,300,297,333,-15748,-908,5120,-257,-158,76
9510.113000000001,315,300,298,334,-15748,-908,5120,-257,-158,76
9514.277,316,299,296,334,-15748,-908,5120,-257,-158,76
9520.932,317,299,297,334,-15748,-908,5120,-257,-158,76
9526.649000000001,316,299,298,335,-15748,-908,5120,-257,-158,76
9535.368,316,297,298,336,-15748,-908,5120,-257,-158,76
9538.912,316,297,297,336,-15720,-836,5120,-115,-74,39
9543.597,316,296,298,337,-15720,-836,5120,-115,-74,39
9548.002,316,296,297,338,-15720,-836,5120,-115,-74,39
9555.168,316,296,297,338,-15720,-836,5120,-115,-74,39
9565.536,315,295,297,340,-15720,-836,5120,-115,-74,39
9565.536,315,294,295,339,-15720,-836,5120,-115,-74,39
9576.515000000001,316,294,295,341,-15668,-912,5000,-41,-130,91
9580.473,316,295,295,342,-15668,-912,5000,-41,-130,91
9580.473,315,296,297,343,-15668,-912,5000,-41,-130,91
9587.448,315,296,296,345,-15668,-912,5000,-41,-130,91
9598.753,315,297,296,345,-15668,-912,5000,-41,-130,91
9606.913999999999,315,298,297,345,-15668,-912,5000,-41,-130,91
9609.552000000001,313,298,298,346,-15668,-912,5000,-41,-130,91
9609.552000000001,313,297,298,347,-15720,-548,5140,-71,-187,10
9620.798999999999,314,298,299,347,-15720,-548,5140,-71,-187,10
9625.624,313,297,299,346,-15720,-548,5140,-71,-187,10
9635.542,312,298,301,347,-15720,-548,5140,-71,-187,10
9637.708999999999,312,297,302,346,-15720,-548,5140,-71,-187,10
9642.666000000001,312,298,301,346,-15720,-548,5140,-71,-187,10
9646.185,311,298,302,344,-15720,-548,5140,-71,-187,10
9655.224,311,299,302,344,-15644,-716,5416,-64,7,11
9655.224,311,298,302,343,-15644,-716,5416,-64,7,11
9665.457,312,299,303,341,-15644,-716,5416,-64,7,11
9673.478,311,299,301,341,-15644,-716,5416,-64,7,11
9677.532,310,299,301,341,-15644,-716,5416,-64,7,11
9677.532,310,300,301,340,-15644,-716,5416,-64,7,11
9688.639000000001,310,300,300,338,-15644,-716,5416,-64,7,11
9693.766,310,301,303,340,-15644,-716,5416,-64,7,11
9701.560000000001,310,300,304,341,-15780,-780,4888,5,1,-49
9705.646,309,299,303,340,-15780,-780,4888,5,1,-49
9709.903,309,299,303,340,-15780,-780,4888,5,1,-49
9714.010999999999,308,299,301,340,-15780,-780,4888,5,1,-49
9719.071,308,300,302,340,-15780,-780,4888,5,1,-49
9725.065,308,300,303,340,-15780,-780,4888,5,1,-49
9729.164,307,299,303,340,-15780,-780,4888,5,1,-49
9735.422,308,298,303,340,-15700,-724,5044,-133,54,-19
9742.912,307,298,301,338,-15700,-724,5044,-133,54,-19
9742.912,308,299,301,339,-15700,-724,5044,-133,54,-19
9754.386,307,298,302,338,-15700,-724,5044,-133,54,-19
9754.386,308,298,302,338,-15700,-724,5044,-133,54,-19
9767.157,307,299,303,338,-15700,-724,5044,-133,54,-19
9768.86,307,298,301,336,-15700,-724,5044,-133,54,-19
9777.64,307,296,301,335,-15824,-940,5296,-11,-54,-17
9777.64,307,297,302,335,-15824,-940,5296,-11,-54,-17
9787.585,308,297,303,335,-15824,-940,5296,-11,-54,-17
9795.661,308,297,302,335,-15824,-940,5296,-11,-54,-17
9799.187,308,297,300,333,-15824,-940,5296,-11,-54,-17
9807.927,308,298,301,333,-15824,-940,5296,-11,-54,-17
9809.791000000001,308,298,302,334,-15824,-940,5296,-11,-54,-17
9813.781,308,299,302,333,-15680,-816,5104,206,32,91
9820.384,308,298,302,332,-15680,-816,5104,206,32,91
9827.28,308,298,301,332,-15680,-816,5104,206,32,91
9831.654,308,299,302,331,-15680,-816,5104,206,32,91
9835.257,308,299,301,330,-15680,-816,5104,206,32,91
9844.723,309,299,302,330,-15680,-816,5104,206,32,91
9844.723,309,300,301,330,-15680,-816,5104,206,32,91
9854.713,308,299,300,329,-15680,-816,5104,206,32,91
9858.822,309,299,301,328,-15668,-916,5100,-207,55,79
9864.717,308,299,302,328,-15668,-916,5100,-207,55,79
9871.305,307,298,302,327,-15668,-916,5100,-207,55,79
9876.429999999998,309,299,303,328,-15668,-916,5100,-207,55,79
9879.15,309,299,303,327,-15668,-916,5100,-207,55,79
9888.212,308,299,304,326,-15668,-916,5100,-207,55,79
9888.212,309,299,303,326,-15668,-916,5100,-207,55,79
9898.707999999999,308,299,303,325,-15688,-604,5204,-174,57,84
9905.592,309,299,303,324,-15688,-604,5204,-174,57,84
9910.202,309,299,303,324,-15688,-604,5204,-174,57,84
9917.115000000002,309,298,301,323,-15688,-604,5204,-174,57,84
9921.407000000001,309,299,302,323,-15688,-604,5204,-174,57,84
9925.264000000001,308,300,302,322,-15688,-604,5204,-174,57,84
9935.115,308,299,302,321,-15688,-604,5204,-174,57,84
9935.115,308,300,303,321,-15676,-728,4916,-85,46,66
9943.421,308,299,303,320,-15676,-728,4916,-85,46,66
9952.345,308,300,304,320,-15676,-728,4916,-85,46,66
9954.265,308,300,303,319,-15676,-728,4916,-85,46,66
9963.269,309,300,304,319,-15676,-728,4916,-85,46,66
9963.269,308,301,304,319,-15676,-728,4916,-85,46,66
9969.043,309,301,304,318,-15676,-728,4916,-85,46,66
9976.385,307,301,304,317,-15692,-696,5132,-38,-64,19
9981.591,307,300,305,316,-15692,-696,5132,-38,-64,19
9987.314,307,301,305,316,-15692,-696,5132,-38,-64,19
9993.655999999999,306,301,305,317,-15692,-696,5132,-38,-64,19
9999.181,306,301,306,315,-15692,-696,5132,-38,-64,19
10001.774,307,301,306,315,-15692,-696,5132,-38,-64,19
10010.322,308,301,307,316,-15692,-696,5132,-38,-64,19
10010.322,307,301,304,314,-15700,-580,5176,63,71,-35
10020.699999999999,306,300,304,314,-15700,-580,5176,63,71,-35
10026.754,306,301,306,315,-15700,-580,5176,63,71,-35
10035.04,306,301,305,314,-15700,-580,5176,63,71,-35
10039.225999999999,306,301,304,313,-15700,-580,5176,63,71,-35
10043.188,307,301,305,314,-15700,-580,5176,63,71,-35
10047.695,307,302,305,314,-15700,-580,5176,63,71,-35
10054.652,307,301,304,314,-15700,-580,5176,63,71,-35
10059.058,306,301,304,313,-15756,-816,5076,-389,30,31
10065.117,306,301,304,314,-15756,-816,5076,-389,30,31
10072.118,306,302,305,314,-15756,-816,5076,-389,30,31
10077.008,306,302,304,315,-15756,-816,5076,-389,30,31
10085.77,306,301,304,314,-15756,-816,5076,-389,30,31
10087.774,307,302,304,315,-15756,-816,5076,-389,30,31
10098.532000000001,307,301,303,314,-15756,-816,5076,-389,30,31
10098.532000000001,307,301,301,313,-15692,-712,5128,-315,135,124
10104.755000000001,307,302,303,315,-15692,-712,5128,-315,135,124
10109.871,307,302,303,315,-15692,-712,5128,-315,135,124
10116.516000000001,306,301,302,314,-15692,-712,5128,-315,135,124
10121.083999999999,307,303,303,316,-15692,-712,5128,-315,135,124
10129.735,307,303,303,316,-15692,-712,5128,-315,135,124
10135.116999999998,308,302,303,316,-15700,-700,4956,-72,-6,42
10143.326000000001,308,301,302,315,-15700,-700,4956,-72,-6,42
10143.326000000001,306,301,302,315,-15700,-700,4956,-72,-6,42
10154.586,306,300,303,316,-15700,-700,4956,-72,-6,42
10157.624,307,300,303,315,-15700,-700,4956,-72,-6,42
10157.624,306,301,303,316,-15700,-700,4956,-72,-6,42
10165.693,307,300,304,316,-15700,-700,4956,-72,-6,42
10176.520999999999,308,301,304,316,-15700,-700,4956,-72,-6,42
10176.520999999999,306,300,303,316,-15768,-688,5024,-4,-33,68
10187.55,306,301,303,316,-15768,-688,5024,-4,-33,68
10187.55,306,301,303,316,-15768,-688,5024,-4,-33,68
10195.317,306,301,303,315,-15768,-688,5024,-4,-33,68
10198.575,306,301,303,316,-15768,-688,5024,-4,-33,68
10207.201,305,302,303,316,-15768,-688,5024,-4,-33,68
10209.77,306,302,304,316,-15768,-688,5024,-4,-33,68
10220.452,305,301,304,316,-15660,-668,5076,134,-102,-16
10223.188,305,302,304,317,-15660,-668,5076,134,-102,-16
10232.779,305,302,305,317,-15660,-668,5076,134,-102,-16
10235.293,304,302,304,318,-15660,-668,5076,134,-102,-16
10244.562,304,302,304,316,-15660,-668,5076,134,-102,-16
10244.562,304,303,303,318,-15660,-668,5076,134,-102,-16
10254.38,304,303,304,319,-15660,-668,5076,134,-102,-16
10263.298,304,304,304,319,-15712,-796,4980,-120,34,-51
10265.089,303,304,304,321,-15712,-796,4980,-120,34,-51
10267.952,303,304,305,322,-15712,-796,4980,-120,34,-51
10279.295,303,304,304,323,-15712,-796,4980,-120,34,-51
10282.437,302,304,303,322,-15712,-796,4980,-120,34,-51
10287.823,302,304,304,324,-15712,-796,4980,-120,34,-51
10293.634,303,305,303,324,-15712,-796,4980,-120,34,-51
10298.386,304,305,303,325,-15724,-648,4884,64,-72,14
10305.145,303,305,303,326,-15724,-648,4884,64,-72,14
10310.337000000001,303,304,300,325,-15724,-648,4884,64,-72,14
10313.562,303,305,303,327,-15724,-648,4884,64,-72,14
10321.385,303,305,302,327,-15724,-648,4884,64,-72,14
10321.385,303,304,302,326,-15724,-648,4884,64,-72,14
10335.236,304,304,303,326,-15724,-648,4884,64,-72,14
10339.012999999999,304,304,301,325,-15728,-732,5048,119,-7,-26
10343.115,304,304,302,325,-15728,-732,5048,119,-7,-26
10346.553,305,304,301,325,-15728,-732,5048,119,-7,-26
10354.189999999999,305,304,301,324,-15728,-732,5048,119,-7,-26
10358.43,305,305,301,323,-15728,-732,5048,119,-7,-26
10366.474999999999,305,305,301,321,-15728,-732,5048,119,-7,-26
10366.474999999999,306,305,300,320,-15728,-732,5048,119,-7,-26
10377.427000000001,306,305,301,320,-15772,-676,5152,110,-19,10
10383.330000000002,307,304,300,318,-15772,-676,5152,110,-19,10
10388.053,308,304,299,317,-15772,-676,5152,110,-19,10
10390.965,308,304,299,316,-15772,-676,5152,110,-19,10
10399.592,307,304,299,316,-15772,-676,5152,110,-19,10
10409.071000000002,308,304,298,315,-15772,-676,5152,110,-19,10
10411.305,308,304,299,314,-15772,-676,5152,110,-19,10
10411.305,309,303,297,312,-15684,-484,5276,91,-6,-49
10420.921,309,304,298,313,-15684,-484,5276,91,-6,-49
10427.907,310,304,298,312,-15684,-484,5276,91,-6,-49
10432.473999999998,310,304,299,312,-15684,-484,5276,91,-6,-49
10436.408,311,304,298,312,-15684,-484,5276,91,-6,-49
10443.294,311,304,298,312,-15684,-484,5276,91,-6,-49
10449.134,312,303,296,311,-15684,-484,5276,91,-6,-49
10454.284,313,303,296,311,-15684,-484,5276,91,-6,-49
10460.634,312,303,296,311,-15704,-620,5068,-169,125,-75
10466.146,312,303,296,311,-15704,-620,5068,-169,125,-75
10472.921,314,303,295,312,-15704,-620,5068,-169,125,-75
10478.858,314,302,294,312,-15704,-620,5068,-169,125,-75
10488.210000000001,315,302,294,312,-15704,-620,5068,-169,125,-75
10488.210000000001,316,303,295,314,-15704,-620,5068,-169,125,-75
10498.689,316,303,294,315,-15728,-660,5036,-211,88,-20
10498.689,317,303,294,315,-15728,-660,5036,-211,88,-20
10510.419,316,303,294,316,-15728,-660,5036,-211,88,-20
10514.461000000001,317,303,292,316,-15728,-660,5036,-211,88,-20
10520.227,317,303,294,316,-15728,-660,5036,-211,88,-20
10520.227,318,303,293,316,-15728,-660,5036,-211,88,-20
10531.798,317,303,294,318,-15728,-660,5036,-211,88,-20
10535.814,316,303,292,317,-15700,-736,5172,-70,86,15
10543.706,316,304,295,318,-15700,-736,5172,-70,86,15
10543.706,315,303,296,318,-15700,-736,5172,-70,86,15
10554.274,316,303,296,319,-15700,-736,5172,-70,86,15
10562.293,315,302,295,319,-15700,-736,5172,-70,86,15
10564.546999999999,314,304,297,320,-15700,-736,5172,-70,86,15
10567.047,314,304,297,320,-15700,-736,5172,-70,86,15
10576.633,313,305,296,321,-15700,-736,5172,-70,86,15
10576.633,313,305,296,320,-15736,-644,5240,148,153,-121
10587.752999999999,312,306,297,322,-15736,-644,5240,148,153,-121
10587.752999999999,312,306,298,323,-15736,-644,5240,148,153,-121
10598.787,313,306,298,323,-15736,-644,5240,148,153,-121
10606.802,312,307,298,324,-15736,-644,5240,148,153,-121
10609.112,313,306,298,324,-15736,-644,5240,148,153,-121
10616.368,312,307,298,324,-15736,-644,5240,148,153,-121
10620.983,310,306,297,323,-15728,-808,4876,84,48,-48
10624.905,310,304,298,325,-15728,-808,4876,84,48,-48
10632.48,310,304,299,325,-15728,-808,4876,84,48,-48
10635.989,310,305,299,326,-15728,-808,4876,84,48,-48
10643.128,310,304,300,326,-15728,-808,4876,84,48,-48
10649.706,311,305,301,327,-15728,-808,4876,84,48,-48
10654.439999999999,309,305,301,327,-15728,-808,4876,84,48,-48
10661.854,308,304,299,325,-15764,-480,5272,33,4,-39
10665.362,308,304,299,326,-15764,-480,5272,33,4,-39
10670.191,308,304,301,327,-15764,-480,5272,33,4,-39
10676.116,307,304,302,327,-15764,-480,5272,33,4,-39
10682.093,307,304,302,327,-15764,-480,5272,33,4,-39
10687.163,307,304,302,326,-15764,-480,5272,33,4,-39
10690.113,306,304,301,326,-15764,-480,5272,33,4,-39
10699.118999999999,307,304,303,327,-15708,-644,4996,22,47,-101
10699.118999999999,306,304,302,326,-15708,-644,4996,22,47,-101
10709.937,306,304,302,326,-15708,-644,4996,22,47,-101
10715.497,307,304,302,326,-15708,-644,4996,22,47,-101
10720.477,307,304,303,327,-15708,-644,4996,22,47,-101
10727.556,307,304,303,327,-15708,-644,4996,22,47,-101
10732.129,307,305,305,327,-15708,-644,4996,22,47,-101
10736.077,307,305,304,328,-15776,-896,4912,-277,-34,58
10742.829,306,305,304,327,-15776,-896,4912,-277,-34,58
10754.133,306,307,304,328,-15776,-896,4912,-277,-34,58
10754.609,306,306,304,328,-15776,-896,4912,-277,-34,58
10760.56,305,307,304,328,-15776,-896,4912,-277,-34,58
10765.317,306,307,304,328,-15776,-896,4912,-277,-34,58
10772.188999999998,306,307,305,329,-15776,-896,4912,-277,-34,58
10776.752999999999,305,307,305,329,-15684,-700,5084,-78,-179,125
10784.766,304,307,304,329,-15684,-700,5084,-78,-179,125
10790.59,304,306,305,329,-15684,-700,5084,-78,-179,125
10799.364000000001,304,305,306,329,-15684,-700,5084,-78,-179,125
10799.364000000001,303,304,304,328,-15684,-700,5084,-78,-179,125
10810.265,304,304,305,329,-15684,-700,5084,-78,-179,125
10812.958,304,304,306,329,-15684,-700,5084,-78,-179,125
10821.413,304,303,306,329,-15720,-764,5080,116,-80,39
10825.478000000001,304,304,306,329,-15720,-764,5080,116,-80,39
10831.851999999999,304,304,307,329,-15720,-764,5080,116,-80,39
10837.946,303,304,307,328,-15720,-764,5080,116,-80,39
10843.882000000001,303,304,306,328,-15720,-764,5080,116,-80,39
10852.436000000002,303,304,306,328,-15720,-764,5080,116,-80,39
10854.845,303,303,307,328,-15720,-764,5080,116,-80,39
10854.845,303,303,305,327,-15732,-568,5068,302,-92,75
10865.3,303,304,305,326,-15732,-568,5068,302,-92,75
10865.3,302,303,304,326,-15732,-568,5068,302,-92,75
10875.641,303,304,306,326,-15732,-568,5068,302,-92,75
10878.421,303,304,307,325,-15732,-568,5068,302,-92,75
10887.584,303,304,305,325,-15732,-568,5068,302,-92,75
10897.064999999999,304,303,305,325,-15732,-568,5068,302,-92,75
10899.333999999999,304,302,305,325,-15724,-768,5056,206,-54,39
10904.651,305,302,304,324,-15724,-768,5056,206,-54,39
10909.513,305,302,305,324,-15724,-768,5056,206,-54,39
10914.883,304,303,304,324,-15724,-768,5056,206,-54,39
10920.767,304,303,304,323,-15724,-768,5056,206,-54,39
10930.363,303,302,303,322,-15724,-768,5056,206,-54,39
10932.492999999999,303,303,303,322,-15724,-768,5056,206,-54,39
10936.509,305,302,303,321,-15684,-480,5044,99,1,7
10943.077000000001,305,303,303,319,-15684,-480,5044,99,1,7
10948.812,305,303,303,319,-15684,-480,5044,99,1,7
10953.752,305,303,303,319,-15684,-480,5044,99,1,7
10956.384,305,304,303,318,-15684,-480,5044,99,1,7
10964.395,305,303,302,317,-15684,-480,5044,99,1,7
10971.37,305,303,301,317,-15684,-480,5044,99,1,7
10975.713000000002,305,303,299,315,-15684,-480,5044,99,1,7
10983.541000000001,305,302,300,316,-15808,-720,5276,-118,18,-11
10987.681999999999,305,303,302,316,-15808,-720,5276,-118,18,-11
10992.224,306,304,302,315,-15808,-720,5276,-118,18,-11
10998.77,306,303,301,315,-15808,-720,5276,-118,18,-11
11001.262999999999,305,302,301,315,-15808,-720,5276,-118,18,-11
11010.474,305,303,298,314,-15808,-720,5276,-118,18,-11
11010.474,306,303,301,315,-15808,-720,5276,-118,18,-11
11018.76,305,304,299,315,-15708,-600,5008,79,5,122
11021.26,306,303,300,315,-15708,-600,5008,79,5,122
11032.082,306,303,300,316,-15708,-600,5008,79,5,122
11036.609999999999,306,302,300,316,-15708,-600,5008,79,5,122
11043.378,306,302,299,316,-15708,-600,5008,79,5,122
11046.727,306,302,300,317,-15708,-600,5008,79,5,122
11046.727,307,302,299,318,-15708,-600,5008,79,5,122
11053.894,307,301,299,318,-15708,-600,5008,79,5,122
11065.438,307,300,298,319,-15696,-608,5164,352,-122,37
11065.438,308,300,298,319,-15696,-608,5164,352,-122,37
11076.535,308,300,299,320,-15696,-608,5164,352,-122,37
11076.535,308,300,297,319,-15696,-608,5164,352,-122,37
11087.493999999999,308,301,298,319,-15696,-608,5164,352,-122,37
11091.798,308,301,298,319,-15696,-608,5164,352,-122,37
11098.671,306,301,297,319,-15696,-608,5164,352,-122,37
11098.671,306,300,296,317,-15736,-564,5156,387,-116,-10
11110.071,307,300,298,317,-15736,-564,5156,387,-116,-10
11118.788,308,300,299,317,-15736,-564,5156,387,-116,-10
11121.274,308,300,298,316,-15736,-564,5156,387,-116,-10
11129.935,306,300,298,316,-15736,-564,5156,387,-116,-10
11132.341999999999,307,300,299,315,-15736,-564,5156,387,-116,-10
11136.735,307,300,297,313,-15740,-676,5316,79,7,-15
11142.961,307,301,299,313,-15740,-676,5316,79,7,-15
11148.878,307,301,300,314,-15740,-676,5316,79,7,-15
11154.098,307,301,299,313,-15740,-676,5316,79,7,-15
11156.91,308,301,300,313,-15740,-676,5316,79,7,-15
11165.519,308,301,300,313,-15740,-676,5316,79,7,-15
11168.984,306,302,301,313,-15740,-676,5316,79,7,-15
11175.824,306,303,300,313,-15740,-676,5316,79,7,-15
11181.192,306,303,302,314,-15780,-520,5172,-33,92,8
11187.38,306,304,303,315,-15780,-520,5172,-33,92,8
11196.996000000001,306,303,303,316,-15780,-520,5172,-33,92,8
11199.114,307,303,302,315,-15780,-520,5172,-33,92,8
11199.114,305,304,303,315,-15780,-520,5172,-33,92,8
11207.456,307,304,304,316,-15780,-520,5172,-33,92,8
11209.527,306,304,303,317,-15780,-520,5172,-33,92,8
11220.834,305,303,301,316,-15776,-744,5032,-17,135,-3
11228.913,306,304,302,316,-15776,-744,5032,-17,135,-3
11232.217,306,304,302,316,-15776,-744,5032,-17,135,-3
11237.119,308,303,302,317,-15776,-744,5032,-17,135,-3
11243.634,308,302,302,316,-15776,-744,5032,-17,135,-3
11243.634,306,302,300,315,-15776,-744,5032,-17,135,-3
11254.092999999999,307,301,300,316,-15776,-744,5032,-17,135,-3
11254.092999999999,307,302,301,316,-15676,-488,5000,172,-130,148
11265.287,307,303,302,317,-15676,-488,5000,172,-130,148
11274.485,308,302,301,318,-15676,-488,5000,172,-130,148
11276.272,307,301,300,318,-15676,-488,5000,172,-130,148
11279.811,309,301,300,318,-15676,-488,5000,172,-130,148
11287.626,309,300,299,317,-15676,-488,5000,172,-130,148
11295.244999999999,308,300,299,317,-15676,-488,5000,172,-130,148
11298.386,307,300,300,318,-15708,-540,5024,277,-64,90
11304.56,308,300,300,319,-15708,-540,5024,277,-64,90
11309.665,309,301,299,319,-15708,-540,5024,277,-64,90
11316.464,310,300,298,319,-15708,-540,5024,277,-64,90
11321.223,311,300,297,319,-15708,-540,5024,277,-64,90
11325.712,312,300,297,321,-15708,-540,5024,277,-64,90
11332.898000000001,312,300,297,322,-15708,-540,5024,277,-64,90
11343.072,314,300,296,322,-15684,-560,4960,251,-318,138
11345.764000000001,313,300,295,322,-15684,-560,4960,251,-318,138
11353.77,312,299,295,323,-15684,-560,4960,251,-318,138
11356.04,312,299,294,323,-15684,-560,4960,251,-318,138
11362.297999999999,312,298,294,323,-15684,-560,4960,251,-318,138
11365.805999999999,313,298,295,324,-15684,-560,4960,251,-318,138
11376.697999999999,312,297,292,322,-15684,-560,4960,251,-318,138
11385.067,312,297,293,322,-15708,-536,5332,-93,-226,182
11387.703,311,298,294,323,-15708,-536,5332,-93,-226,182
11390.179,312,297,295,324,-15708,-536,5332,-93,-226,182
11399.061,311,297,293,323,-15708,-536,5332,-93,-226,182
11402.647,311,297,293,323,-15708,-536,5332,-93,-226,182
11409.605000000001,312,297,294,325,-15708,-536,5332,-93,-226,182
11415.381,312,296,295,325,-15708,-536,5332,-93,-226,182
11420.722,311,295,292,323,-15672,-464,5400,-47,-258,133
11427.16,311,295,294,324,-15672,-464,5400,-47,-258,133
11437.189,311,294,293,324,-15672,-464,5400,-47,-258,133
11440.065,311,294,294,324,-15672,-464,5400,-47,-258,133
11443.129,310,295,296,324,-15672,-464,5400,-47,-258,133
11454.529,311,294,295,324,-15672,-464,5400,-47,-258,133
11454.529,311,294,295,323,-15672,-464,5400,-47,-258,133
11465.442,311,294,295,324,-15740,-476,5528,-78,-120,20
11465.442,310,295,296,323,-15740,-476,5528,-78,-120,20
11472.802,310,295,295,322,-15740,-476,5528,-78,-120,20
11479.307999999999,311,295,294,321,-15740,-476,5528,-78,-120,20
11487.460000000001,312,295,294,320,-15740,-476,5528,-78,-120,20
11488.249,312,294,293,319,-15740,-476,5528,-78,-120,20
11499.421,312,295,294,319,-15740,-476,5528,-78,-120,20
11508.061,312,295,294,318,-15668,-608,5108,-560,187,82
11510.462,312,294,294,317,-15668,-608,5108,-560,187,82
11510.462,312,294,293,316,-15668,-608,5108,-560,187,82
11520.735,312,294,292,315,-15668,-608,5108,-560,187,82
11526.161,312,293,293,314,-15668,-608,5108,-560,187,82
11531.618,312,293,294,314,-15668,-608,5108,-560,187,82
11538.297,312,292,294,313,-15668,-608,5108,-560,187,82
11544.428,313,292,294,313,-15680,-324,5224,-813,32,61
11552.583,312,292,292,311,-15680,-324,5224,-813,32,61
11555.25,312,292,292,311,-15680,-324,5224,-813,32,61
11558.198,312,291,292,310,-15680,-324,5224,-813,32,61
11565.471000000001,312,291,294,310,-15680,-324,5224,-813,32,61
11565.471000000001,312,291,294,309,-15680,-324,5224,-813,32,61
11577.564,312,291,293,308,-15680,-324,5224,-813,32,61
11585.592,312,291,294,308,-15700,-288,5320,-639,-43,94
11587.965,313,290,293,308,-15700,-288,5320,-639,-43,94
11596.712,313,291,292,307,-15700,-288,5320,-639,-43,94
11599.049,312,291,293,306,-15700,-288,5320,-639,-43,94
11607.848,312,292,295,307,-15700,-288,5320,-639,-43,94
11614.684000000001,312,292,295,306,-15700,-288,5320,-639,-43,94
11621.458999999999,311,292,295,305,-15700,-288,5320,-639,-43,94
11621.458999999999,311,292,294,304,-15672,-532,5096,-279,139,-108
11627.871000000001,311,293,294,303,-15672,-532,5096,-279,139,-108
11637.463,312,293,295,303,-15672,-532,5096,-279,139,-108
11643.198,310,294,296,303,-15672,-532,5096,-279,139,-108
11651.524,310,294,297,302,-15672,-532,5096,-279,139,-108
11653.976,309,294,297,302,-15672,-532,5096,-279,139,-108
11662.731000000002,309,294,296,301,-15732,-880,5036,-5,-55,76
11665.483,309,294,297,301,-15732,-880,5036,-5,-55,76
11669.598,309,294,298,301,-15732,-880,5036,-5,-55,76
11675.922,308,295,299,300,-15732,-880,5036,-5,-55,76
11680.993,307,295,299,300,-15732,-880,5036,-5,-55,76
11687.353,307,295,299,300,-15732,-880,5036,-5,-55,76
11687.353,306,295,299,300,-15732,-880,5036,-5,-55,76
11698.663,306,295,299,299,-15732,-880,5036,-5,-55,76
11707.644,306,295,301,299,-15620,-1184,4720,166,-96,335
11710.26,305,294,301,298,-15620,-1184,4720,166,-96,335
11714.622000000001,304,294,302,298,-15620,-1184,4720,166,-96,335
11720.713,304,295,304,298,-15620,-1184,4720,166,-96,335
11727.187,303,295,305,298,-15620,-1184,4720,166,-96,335
11732.113,303,294,305,299,-15620,-1184,4720,166,-96,335
11738.944,303,295,306,298,-15620,-1184,4720,166,-96,335
11743.878,303,295,305,299,-15724,-1752,4232,-98,-288,829
11753.966,306,295,305,302,-15724,-1752,4232,-98,-288,829
11754.018,308,294,304,304,-15724,-1752,4232,-98,-288,829
11765.494,311,294,303,306,-15724,-1752,4232,-98,-288,829
11773.57,311,293,303,310,-15724,-1752,4232,-98,-288,829
11776.643,312,291,304,313,-15724,-1752,4232,-98,-288,829
11785.527,311,290,305,318,-15500,-4004,2296,-1324,-1196,2383
11787.661999999998,310,288,306,324,-15500,-4004,2296,-1324,-1196,2383
11798.292,310,285,307,331,-15500,-4004,2296,-1324,-1196,2383
11800.187,307,281,308,339,-15500,-4004,2296,-1324,-1196,2383
11811.211,305,278,309,347,-15500,-4004,2296,-1324,-1196,2383
11815.398,300,274,312,358,-15500,-4004,2296,-1324,-1196,2383
11821.585000000001,295,271,316,367,-15308,-4104,976,-1422,-3872,4917
11830.167,288,269,322,377,-15308,-4104,976,-1422,-3872,4917
11832.533,281,267,328,385,-15308,-4104,976,-1422,-3872,4917
11842.875,273,264,336,391,-15308,-4104,976,-1422,-3872,4917
11845.183,264,262,345,398,-15308,-4104,976,-1422,-3872,4917
11855.467,256,260,353,403,-15308,-4104,976,-1422,-3872,4917
11855.467,249,258,361,405,-15308,-4104,976,-1422,-3872,4917
11866.182999999999,241,256,369,409,-14532,-3716,1748,2119,-8817,8545
11876.094000000001,234,254,376,411,-14532,-3716,1748,2119,-8817,8545
11876.094000000001,228,252,383,410,-14532,-3716,1748,2119,-8817,8545
11888.008,224,253,388,409,-14532,-3716,1748,2119,-8817,8545
11890.199,218,256,393,407,-14532,-3716,1748,2119,-8817,8545
11899.982,212,263,399,404,-14532,-3716,1748,2119,-8817,8545
11899.982,208,270,402,399,-13476,-1624,1204,5911,-12911,11264
11910.225,207,277,407,394,-13476,-1624,1204,5911,-12911,11264
11920.420999999998,205,281,410,389,-13476,-1624,1204,5911,-12911,11264
11920.420999999998,205,284,415,383,-13476,-1624,1204,5911,-12911,11264
11932.283,206,285,419,377,-13476,-1624,1204,5911,-12911,11264
11941.399000000001,206,285,422,371,-13476,-1624,1204,5911,-12911,11264
11943.508,205,284,427,363,-11560,-308,2244,7519,-17589,14327
11953.777,201,283,431,355,-11560,-308,2244,7519,-17589,14327
11953.777,198,283,434,348,-11560,-308,2244,7519,-17589,14327
11965.502,192,281,433,339,-11560,-308,2244,7519,-17589,14327
11965.502,189,276,432,329,-11560,-308,2244,7519,-17589,14327
11978.904,185,272,431,320,-11560,-308,2244,7519,-17589,14327
11987.15,176,269,425,307,-9056,3644,5836,6751,-22073,17204
11987.694,169,267,415,295,-9056,3644,5836,6751,-22073,17204
11998.353,163,264,403,285,-9056,3644,5836,6751,-22073,17204
11998.353,159,264,390,276,-9056,3644,5836,6751,-22073,17204
12009.507,158,265,377,267,-9056,3644,5836,6751,-22073,17204
12013.315999999999,160,269,359,255,-9056,3644,5836,6751,-22073,17204
12020.628,168,262,343,248,-7404,6652,9568,3714,-22313,18649
12032.121,180,257,325,242,-7404,6652,9568,3714,-22313,18649
12033.129,191,253,309,238,-7404,6652,9568,3714,-22313,18649
12042.39,200,246,294,236,-7404,6652,9568,3714,-22313,18649
12045.949,211,238,278,236,-7404,6652,9568,3714,-22313,18649
12054.587,222,231,263,240,-7404,6652,9568,3714,-22313,18649
12057.902,232,219,251,247,-7404,6652,9568,3714,-22313,18649
12065.25,245,206,238,258,-5648,9280,11456,-4582,-18089,15823
12075.659,256,202,228,272,-5648,9280,11456,-4582,-18089,15823
12078.071,264,202,219,282,-5648,9280,11456,-4582,-18089,15823
12088.835,273,200,210,293,-5648,9280,11456,-4582,-18089,15823
12088.835,280,199,202,300,-5648,9280,11456,-4582,-18089,15823
12098.826000000001,287,199,195,305,-5648,9280,11456,-4582,-18089,15823
12108.952000000001,292,198,191,311,-3956,11444,13496,-10430,-18769,11973
12111.128,300,197,189,321,-3956,11444,13496,-10430,-18769,11973
12121.648000000001,302,198,189,326,-3956,11444,13496,-10430,-18769,11973
12123.526,307,199,188,326,-3956,11444,13496,-10430,-18769,11973
12138.021999999999,312,201,189,323,-3956,11444,13496,-10430,-18769,11973
12139.797,314,204,189,320,-3956,11444,13496,-10430,-18769,11973
12143.194,315,210,190,317,-2960,7924,15996,-10954,-17563,7516
12154.014,317,217,194,315,-2960,7924,15996,-10954,-17563,7516
12163.444,319,223,196,310,-2960,7924,15996,-10954,-17563,7516
12165.616999999998,322,235,200,306,-2960,7924,15996,-10954,-17563,7516
12173.204,325,247,201,304,-2960,7924,15996,-10954,-17563,7516
12184.595,329,264,203,300,-2960,7924,15996,-10954,-17563,7516
12188.152,332,280,204,301,-2340,5752,16480,-11317,-15613,5513
12193.838,338,300,204,307,-2340,5752,16480,-11317,-15613,5513
12198.79,341,314,206,311,-2340,5752,16480,-11317,-15613,5513
12207.192,344,327,206,317,-2340,5752,16480,-11317,-15613,5513
12210.229,344,339,208,323,-2340,5752,16480,-11317,-15613,5513
12220.838,340,350,210,330,-2340,5752,16480,-11317,-15613,5513
12228.942,334,362,215,337,-1124,6708,19484,-8236,-12739,2350
12231.165,324,373,222,346,-1124,6708,19484,-8236,-12739,2350
12238.286,313,392,227,352,-1124,6708,19484,-8236,-12739,2350
12242.883000000002,297,415,237,358,-1124,6708,19484,-8236,-12739,2350
12254.233,282,435,252,363,-1124,6708,19484,-8236,-12739,2350
12259.285,265,455,283,368,-1124,6708,19484,-8236,-12739,2350
12264.951,251,469,314,372,-1212,4640,20260,-3888,-8262,646
12271.839,237,480,351,377,-1212,4640,20260,-3888,-8262,646
12276.482,225,485,380,380,-1212,4640,20260,-3888,-8262,646
12283.972,215,489,409,383,-1212,4640,20260,-3888,-8262,646
12287.578,207,493,433,386,-1212,4640,20260,-3888,-8262,646
12298.412,200,494,456,386,-1212,4640,20260,-3888,-8262,646
12306.501,195,493,478,386,-960,4836,19056,387,-6216,24
12309.863,193,490,491,384,-960,4836,19056,387,-6216,24
12312.025,193,488,500,382,-960,4836,19056,387,-6216,24
12321.951000000001,194,483,505,378,-960,4836,19056,387,-6216,24
12327.109,195,480,513,374,-960,4836,19056,387,-6216,24
12334.661,197,478,522,373,-960,4836,19056,387,-6216,24
12339.974,197,474,531,368,-960,4836,19056,387,-6216,24
12347.38,198,471,538,364,-1180,3868,18044,-1324,-4486,704
12351.513,200,465,544,358,-1180,3868,18044,-1324,-4486,704
12360.042,202,461,547,354,-1180,3868,18044,-1324,-4486,704
12363.307999999999,204,456,549,348,-1180,3868,18044,-1324,-4486,704
12365.218,208,451,548,343,-1180,3868,18044,-1324,-4486,704
12376.476,211,445,545,339,-1180,3868,18044,-1324,-4486,704
12376.476,214,440,539,333,-1180,3868,18044,-1324,-4486,704
12387.268,219,434,531,328,672,6920,20836,1610,-2086,1546
12396.706999999999,224,428,524,324,672,6920,20836,1610,-2086,1546
12398.789,228,422,514,318,672,6920,20836,1610,-2086,1546
12402.8,233,416,505,314,672,6920,20836,1610,-2086,1546
12409.682,238,410,495,311,672,6920,20836,1610,-2086,1546
12421.082,244,405,484,306,672,6920,20836,1610,-2086,1546
12421.082,249,400,473,302,-472,4904,13752,5689,-727,1005
12432.254,256,394,463,299,-472,4904,13752,5689,-727,1005
12438.279,264,389,450,296,-472,4904,13752,5689,-727,1005
12443.13,271,384,437,292,-472,4904,13752,5689,-727,1005
12447.566,278,378,427,289,-472,4904,13752,5689,-727,1005
12454.230000000001,286,374,418,287,-472,4904,13752,5689,-727,1005
12459.868,295,369,407,285,-472,4904,13752,5689,-727,1005
12464.899000000001,303,364,398,281,-812,7132,15992,3355,-1436,195
12472.749,312,360,387,279,-812,7132,15992,3355,-1436,195
12472.749,321,355,378,275,-812,7132,15992,3355,-1436,195
12480.340999999999,330,350,369,272,-812,7132,15992,3355,-1436,195
12488.512999999999,338,346,360,269,-812,7132,15992,3355,-1436,195
12499.188,347,342,350,265,-812,7132,15992,3355,-1436,195
12499.188,355,339,341,262,-1032,4232,16112,1753,-504,-138
12509.701,364,334,332,260,-1032,4232,16112,1753,-504,-138
12509.701,370,331,324,258,-1032,4232,16112,1753,-504,-138
12520.684,377,326,316,256,-1032,4232,16112,1753,-504,-138
12525.494,384,322,308,255,-1032,4232,16112,1753,-504,-138
12531.853,389,318,302,254,-1032,4232,16112,1753,-504,-138
12538.653999999999,396,314,295,253,-1032,4232,16112,1753,-504,-138
12542.913999999999,400,310,289,253,-756,4584,15372,-386,-706,831
12549.787,405,306,284,253,-756,4584,15372,-386,-706,831
12554.553,409,303,279,251,-756,4584,15372,-386,-706,831
12562.405,412,299,274,250,-756,4584,15372,-386,-706,831
12565.409000000001,417,295,269,250,-756,4584,15372,-386,-706,831
12576.393,419,292,264,250,-756,4584,15372,-386,-706,831
12576.393,421,289,259,250,-756,4584,15372,-386,-706,831
12587.594,423,286,256,250,-528,5612,15284,261,-152,-72
12590.965,425,284,252,251,-528,5612,15284,261,-152,-72
12599.443000000001,426,283,248,250,-528,5612,15284,261,-152,-72
12599.443000000001,428,280,244,250,-528,5612,15284,261,-152,-72
12609.895,429,279,242,251,-528,5612,15284,261,-152,-72
12618.275000000001,430,278,239,252,-528,5612,15284,261,-152,-72
12620.938,431,275,236,252,-528,5612,15284,261,-152,-72
12630.001999999999,431,275,232,253,-724,4780,15524,610,102,-266
12632.233,431,273,230,253,-724,4780,15524,610,102,-266
12638.765,432,272,227,254,-724,4780,15524,610,102,-266
12642.707,432,271,224,254,-724,4780,15524,610,102,-266
12647.903,433,270,221,256,-724,4780,15524,610,102,-266
12653.734,433,269,219,256,-724,4780,15524,610,102,-266
12660.754,434,269,216,257,-724,4780,15524,610,102,-266
12665.648,434,269,213,258,-636,4856,15392,1482,-26,-178
12672.974999999999,432,269,211,260,-636,4856,15392,1482,-26,-178
12676.439,432,269,210,261,-636,4856,15392,1482,-26,-178
12687.336,431,269,209,262,-636,4856,15392,1482,-26,-178
12688.836,430,269,207,264,-636,4856,15392,1482,-26,-178
12698.551,430,269,205,266,-636,4856,15392,1482,-26,-178
12701.244,429,269,205,267,-636,4856,15392,1482,-26,-178
12710.414999999999,428,269,204,269,-596,5372,15100,-139,-43,-123
12710.414999999999,426,269,203,271,-596,5372,15100,-139,-43,-123
12718.769,426,269,203,272,-596,5372,15100,-139,-43,-123
12720.798,424,269,203,274,-596,5372,15100,-139,-43,-123
12732.033,423,269,204,276,-596,5372,15100,-139,-43,-123
12739.085,422,269,204,277,-596,5372,15100,-139,-43,-123
12742.668,420,269,205,279,-664,4952,15432,-407,43,57
12746.022,419,269,206,280,-664,4952,15432,-407,43,57
12754.899,417,269,207,282,-664,4952,15432,-407,43,57
12758.388,415,269,208,282,-664,4952,15432,-407,43,57
12765.053,414,269,209,284,-664,4952,15432,-407,43,57
12771.372,412,268,211,286,-664,4952,15432,-407,43,57
12771.372,410,268,212,287,-664,4952,15432,-407,43,57
12780.252,409,268,213,288,-664,4952,15432,-407,43,57
12788.188999999998,406,267,215,290,-600,5220,15072,499,-29,-56
12788.188999999998,405,268,216,291,-600,5220,15072,499,-29,-56
12799.206999999999,403,268,217,293,-600,5220,15072,499,-29,-56
12804.198,401,267,218,294,-600,5220,15072,499,-29,-56
12809.293,399,268,219,295,-600,5220,15072,499,-29,-56
12818.994,397,268,220,296,-600,5220,15072,499,-29,-56
12820.952,396,268,221,297,-600,5220,15072,499,-29,-56
12830.546,395,266,222,298,-620,5180,15332,444,-20,-37
12833.289999999999,393,268,224,300,-620,5180,15332,444,-20,-37
12839.128,391,268,224,300,-620,5180,15332,444,-20,-37
12842.675,389,270,225,301,-620,5180,15332,444,-20,-37
12848.535,387,270,227,303,-620,5180,15332,444,-20,-37
12853.769,385,270,228,303,-620,5180,15332,444,-20,-37
12856.725,383,271,227,304,-620,5180,15332,444,-20,-37
12865.814,382,271,228,305,-580,5372,15128,315,-5,-11
12874.688,380,272,229,308,-580,5372,15128,315,-5,-11
12876.746000000001,379,273,229,308,-580,5372,15128,315,-5,-11
12882.434,376,273,230,308,-580,5372,15128,315,-5,-11
12887.232,375,274,231,309,-580,5372,15128,315,-5,-11
12893.505,373,275,232,310,-580,5372,15128,315,-5,-11
12898.661,371,275,232,310,-580,5372,15128,315,-5,-11
12901.628,369,275,233,311,-576,5324,15184,-255,9,-2
12910.39,368,276,235,312,-576,5324,15184,-255,9,-2
12910.39,367,276,235,312,-576,5324,15184,-255,9,-2
12920.574,365,276,235,312,-576,5324,15184,-255,9,-2
12928.657,363,277,236,313,-576,5324,15184,-255,9,-2
12931.209,362,278,238,313,-576,5324,15184,-255,9,-2
12934.673,360,278,238,313,-576,5324,15184,-255,9,-2
12943.014,358,278,239,313,-576,5324,15184,-255,9,-2
12947.162,357,279,241,313,-676,5280,15212,-290,2,-14
12953.785999999998,356,279,242,314,-676,5280,15212,-290,2,-14
12958.642,353,279,243,313,-676,5280,15212,-290,2,-14
12965.189,352,279,244,313,-676,5280,15212,-290,2,-14
12974.555,350,280,245,314,-676,5280,15212,-290,2,-14
12977.888,349,280,246,314,-676,5280,15212,-290,2,-14
12982.437,347,280,247,313,-676,5280,15212,-290,2,-14
12990.044,346,279,247,313,-696,5192,15164,54,16,-18
12992.127,345,280,248,313,-696,5192,15164,54,16,-18
12999.026,343,281,249,313,-696,5192,15164,54,16,-18
12999.026,342,281,249,313,-696,5192,15164,54,16,-18
13009.684,341,281,250,313,-696,5192,15164,54,16,-18
13009.684,339,282,251,314,-696,5192,15164,54,16,-18
13019.021,338,282,252,313,-696,5192,15164,54,16,-18
13021.123,337,282,251,313,-524,5376,15164,294,-19,-47
13029.311,336,283,253,314,-524,5376,15164,294,-19,-47
13039.572,335,282,253,314,-524,5376,15164,294,-19,-47
13043.003999999999,333,283,253,314,-524,5376,15164,294,-19,-47
13044.938999999998,332,283,253,314,-524,5376,15164,294,-19,-47
13054.104000000001,331,284,254,315,-524,5376,15164,294,-19,-47
13057.107,331,285,254,315,-524,5376,15164,294,-19,-47
13057.107,330,285,254,315,-608,5272,15116,34,29,-39
13065.533,329,285,254,316,-608,5272,15116,34,29,-39
13076.482,328,286,254,316,-608,5272,15116,34,29,-39
13076.482,327,286,253,315,-608,5272,15116,34,29,-39
13088.02,327,287,254,317,-608,5272,15116,34,29,-39
13090.763,326,287,254,317,-608,5272,15116,34,29,-39
13090.763,325,288,255,317,-608,5272,15116,34,29,-39
13100.448,324,288,254,317,-608,5272,15116,34,29,-39
13107.023,324,289,255,318,-684,5368,15216,-141,-3,11
13109.944000000001,323,290,256,318,-684,5368,15216,-141,-3,11
13121.598,322,290,256,318,-684,5368,15216,-141,-3,11
13121.998,322,290,257,318,-684,5368,15216,-141,-3,11
13130.504,321,291,258,318,-684,5368,15216,-141,-3,11
13132.948,320,291,259,318,-684,5368,15216,-141,-3,11
13141.047,320,292,259,318,-684,5368,15216,-141,-3,11
13142.713,318,292,260,318,-588,5244,15148,-85,-14,3
13154.051000000001,318,293,261,319,-588,5244,15148,-85,-14,3
13154.051000000001,317,293,261,319,-588,5244,15148,-85,-14,3
13159.877,316,293,261,318,-588,5244,15148,-85,-14,3
13165.252,316,293,262,319,-588,5244,15148,-85,-14,3
13171.997,315,293,263,319,-588,5244,15148,-85,-14,3
13176.945,315,293,263,318,-588,5244,15148,-85,-14,3
13180.225,314,293,264,318,-588,5244,15148,-85,-14,3
13187.804,314,293,266,319,-580,5300,15188,-12,7,-62
13187.804,313,293,268,319,-580,5300,15188,-12,7,-62
13198.263,313,293,269,318,-580,5300,15188,-12,7,-62
13207.113,313,294,271,318,-580,5300,15188,-12,7,-62
13209.351,312,294,272,318,-580,5300,15188,-12,7,-62
13214.323,312,294,273,318,-580,5300,15188,-12,7,-62
13222.047999999999,310,294,274,317,-580,5300,15188,-12,7,-62
13222.047999999999,310,294,276,317,-620,5168,15232,-106,30,-27
13231.699,309,295,278,317,-620,5168,15232,-106,30,-27
13239.554,308,294,280,317,-620,5168,15232,-106,30,-27
13242.720000000001,308,295,280,316,-620,5168,15232,-106,30,-27
13252.769,308,295,282,316,-620,5168,15232,-106,30,-27
13254.999,307,295,283,316,-620,5168,15232,-106,30,-27
13254.999,307,295,284,316,-620,5168,15232,-106,30,-27
13265.363000000001,307,296,285,315,-660,5372,15208,-60,31,-65
13272.171,305,296,286,316,-660,5372,15208,-60,31,-65
13276.366,305,296,287,315,-660,5372,15208,-60,31,-65
13279.252,305,296,288,315,-660,5372,15208,-60,31,-65
13288.188,304,297,289,315,-660,5372,15208,-60,31,-65
13288.188,304,297,290,315,-660,5372,15208,-60,31,-65
13298.713,303,297,289,315,-660,5372,15208,-60,31,-65
13298.713,303,297,290,314,-576,5176,15168,-126,-36,-74
13309.213,303,298,290,315,-576,5176,15168,-126,-36,-74
13315.671999999999,303,298,290,315,-576,5176,15168,-126,-36,-74
13320.301000000001,302,298,291,315,-576,5176,15168,-126,-36,-74
13323.354,302,298,291,315,-576,5176,15168,-126,-36,-74
13332.494,302,298,291,315,-576,5176,15168,-126,-36,-74
13343.078,302,298,290,315,-576,5176,15168,-126,-36,-74
13346.811000000002,301,298,289,315,-604,5248,15220,-8,-7,-38
13348.959,301,297,289,316,-604,5248,15220,-8,-7,-38
13353.904999999999,301,298,289,317,-604,5248,15220,-8,-7,-38
13361.731000000002,301,297,288,317,-604,5248,15220,-8,-7,-38
13365.574,300,298,287,317,-604,5248,15220,-8,-7,-38
13369.263,300,298,288,318,-604,5248,15220,-8,-7,-38
13376.538,300,298,287,318,-604,5248,15220,-8,-7,-38
13381.154,300,297,286,319,-604,5248,15220,-8,-7,-38
13387.166000000001,300,297,285,319,-592,5340,15260,-78,26,-74
13393.167,300,297,284,320,-592,5340,15260,-78,26,-74
13398.7,299,298,283,320,-592,5340,15260,-78,26,-74
13407.731,300,298,283,320,-592,5340,15260,-78,26,-74
13409.434,300,299,282,320,-592,5340,15260,-78,26,-74
13413.479000000001,299,298,281,321,-592,5340,15260,-78,26,-74
13420.38,299,298,280,320,-592,5340,15260,-78,26,-74
13426.239000000001,299,298,279,321,-660,5288,15232,-68,33,-2
13431.571,299,298,278,322,-660,5288,15232,-68,33,-2
13441.246,298,298,278,321,-660,5288,15232,-68,33,-2
13443.512999999999,298,299,277,321,-660,5288,15232,-68,33,-2
13446.373,298,298,277,322,-660,5288,15232,-68,33,-2
13446.373,298,299,276,322,-660,5288,15232,-68,33,-2
13454.054,299,299,276,322,-660,5288,15232,-68,33,-2
13462.892,299,299,275,322,-524,5248,15172,40,-65,-46
13468.113000000001,299,299,275,323,-524,5248,15172,40,-65,-46
13476.404999999999,300,299,274,323,-524,5248,15172,40,-65,-46
13476.404999999999,299,299,274,323,-524,5248,15172,40,-65,-46
13488.042,299,300,274,323,-524,5248,15172,40,-65,-46
13491.973,299,300,275,323,-524,5248,15172,40,-65,-46
13498.267,299,300,275,323,-524,5248,15172,40,-65,-46
13498.267,299,300,275,323,-524,5248,15172,40,-65,-46
13509.422,300,300,275,323,-728,5296,15236,-109,11,-70
13509.422,300,300,276,323,-728,5296,15236,-109,11,-70
13521.697,300,300,278,322,-728,5296,15236,-109,11,-70
13521.697,299,300,278,323,-728,5296,15236,-109,11,-70
13531.57,299,301,279,323,-728,5296,15236,-109,11,-70
13531.57,299,301,281,322,-728,5296,15236,-109,11,-70
13542.919,298,301,282,321,-728,5296,15236,-109,11,-70
13542.919,299,302,284,321,-612,5192,15184,-117,81,-48
13554.59,299,302,285,321,-612,5192,15184,-117,81,-48
13556.864,299,302,287,321,-612,5192,15184,-117,81,-48
13565.484,300,303,289,320,-612,5192,15184,-117,81,-48
13570.235,299,303,290,321,-612,5192,15184,-117,81,-48
13575.744,299,304,292,320,-612,5192,15184,-117,81,-48
13582.168,298,303,294,320,-612,5192,15184,-117,81,-48
13587.049,298,304,294,320,-592,5316,15228,-166,26,-54
13589.565,299,303,296,320,-592,5316,15228,-166,26,-54
13599.311,299,303,297,319,-592,5316,15228,-166,26,-54
13599.311,298,303,297,319,-592,5316,15228,-166,26,-54
13609.686,298,304,299,320,-592,5316,15228,-166,26,-54
13609.686,298,303,300,319,-592,5316,15228,-166,26,-54
13620.414999999999,298,304,300,319,-592,5316,15228,-166,26,-54
13628.456,298,304,301,319,-636,5296,15148,-138,-11,-18
13630.853000000001,298,303,302,319,-636,5296,15148,-138,-11,-18
13641.306999999999,298,303,302,319,-636,5296,15148,-138,-11,-18
13643.305,298,303,302,319,-636,5296,15148,-138,-11,-18
13647.004,299,303,302,319,-636,5296,15148,-138,-11,-18
13654.085000000001,298,304,302,319,-636,5296,15148,-138,-11,-18
13659.678,297,304,301,319,-636,5296,15148,-138,-11,-18
13664.923,298,304,302,319,-652,5244,15224,64,62,-51
13672.430999999999,298,304,302,320,-652,5244,15224,64,62,-51
13676.114,299,303,302,319,-652,5244,15224,64,62,-51
13680.424,298,303,301,320,-652,5244,15224,64,62,-51
13687.707,298,303,302,320,-652,5244,15224,64,62,-51
13687.707,298,304,302,319,-652,5244,15224,64,62,-51
13702.673,298,304,301,319,-652,5244,15224,64,62,-51
13707.607,298,304,301,319,-620,5328,15124,-12,-18,-50
13710.966,298,304,302,319,-620,5328,15124,-12,-18,-50
13719.127999999999,298,303,302,319,-620,5328,15124,-12,-18,-50
13723.508,298,304,302,318,-620,5328,15124,-12,-18,-50
13724.519,298,304,303,318,-620,5328,15124,-12,-18,-50
13731.685000000001,299,304,303,318,-620,5328,15124,-12,-18,-50
13737.658,298,304,303,318,-620,5328,15124,-12,-18,-50
13742.504,297,304,303,317,-620,5328,15124,-12,-18,-50
13749.978000000001,298,304,303,318,-664,5244,15180,-168,28,-64
13754.181,298,304,303,317,-664,5244,15180,-168,28,-64
13758.135,298,304,303,317,-664,5244,15180,-168,28,-64
