Time (ms),EMG1,EMG2,EMG3,EMG4,AccX,AccY,AccZ,GyroX,GyroY,GyroZ
1539.4969999999998,0,0,0,0,0,0,0,0,0,0
1542.65,0,0,0,0,0,0,0,0,0,0
1545.2440000000001,307,306,302,308,0,0,0,0,0,0
1545.2440000000001,307,307,302,308,0,0,0,0,0,0
1553.955,307,306,301,308,0,0,0,0,0,0
1555.027,307,306,302,309,0,0,0,0,0,0
1560.1750000000002,307,307,302,309,0,0,0,0,0,0
1564.1750000000002,307,306,302,309,0,0,0,0,0,0
1564.1750000000002,307,307,302,308,0,0,0,0,0,0
1574.316,307,307,302,308,0,0,0,0,0,0
1575.2459999999999,307,307,302,308,0,0,0,0,0,0
1576.0510000000002,307,307,302,308,0,0,0,0,0,0
1580.313,307,307,302,309,0,0,0,0,0,0
1580.313,307,308,301,308,0,0,0,0,0,0
1587.1889999999999,306,307,301,308,116,4736,15464,-154,-17,-21
1596.695,307,308,301,308,116,4736,15464,-154,-17,-21
1600.9560000000001,306,308,302,309,116,4736,15464,-154,-17,-21
1607.7060000000001,307,308,301,308,116,4736,15464,-154,-17,-21
1612.991,307,308,301,308,116,4736,15464,-154,-17,-21
1618.91,306,307,301,308,116,4736,15464,-154,-17,-21
1621.202,306,307,300,309,116,4736,15464,-154,-17,-21
1631.958,306,309,300,308,116,4736,15464,-154,-17,-21
1636.075,306,308,300,308,164,4764,15420,-23,-27,-54
1643.779,306,307,300,309,164,4764,15420,-23,-27,-54
1648.068,306,308,300,308,164,4764,15420,-23,-27,-54
1652.7430000000002,306,308,299,308,164,4764,15420,-23,-27,-54
1655.923,306,307,298,308,164,4764,15420,-23,-27,-54
1663.5279999999998,306,307,299,308,164,4764,15420,-23,-27,-54
1667.932,306,307,299,308,164,4764,15420,-23,-27,-54
1674.9160000000002,305,308,300,308,120,4716,15360,-161,31,-28
1674.9160000000002,305,307,300,309,120,4716,15360,-161,31,-28
1685.616,305,307,300,309,120,4716,15360,-161,31,-28
1690.856,306,307,300,309,120,4716,15360,-161,31,-28
1696.391,306,307,300,309,120,4716,15360,-161,31,-28
1698.691,306,307,300,309,120,4716,15360,-161,31,-28
1706.705,306,306,300,309,120,4716,15360,-161,31,-28
1712.491,307,306,300,309,148,4788,15316,48,-33,-11
1719.5249999999999,306,305,300,309,148,4788,15316,48,-33,-11
1723.228,306,306,301,309,148,4788,15316,48,-33,-11
1730.256,306,306,301,308,148,4788,15316,48,-33,-11
1731.762,306,306,301,309,148,4788,15316,48,-33,-11
1741.853,306,305,302,309,148,4788,15316,48,-33,-11
1744.8680000000002,306,306,302,308,148,4788,15316,48,-33,-11
1748.281,306,306,302,308,148,4788,15316,48,-33,-11
1752.732,306,306,302,308,140,4716,15448,-52,20,-16
1763.115,305,306,302,308,140,4716,15448,-52,20,-16
1763.115,305,305,302,308,140,4716,15448,-52,20,-16
1774.1100000000001,305,306,301,308,140,4716,15448,-52,20,-16
1774.1100000000001,305,305,301,308,140,4716,15448,-52,20,-16
1781.6970000000001,304,305,302,308,140,4716,15448,-52,20,-16
1785.565,305,305,302,308,140,4716,15448,-52,20,-16
1793.433,305,306,303,308,88,4796,15360,-20,2,-10
1796.637,304,305,303,308,88,4796,15360,-20,2,-10
1801.976,304,305,303,308,88,4796,15360,-20,2,-10
1807.5810000000001,305,306,303,307,88,4796,15360,-20,2,-10
1813.461,305,305,303,307,88,4796,15360,-20,2,-10
1818.59,305,305,303,308,88,4796,15360,-20,2,-10
1821.614,306,305,303,307,88,4796,15360,-20,2,-10
1831.477,306,305,303,307,88,4796,15360,-20,2,-10
1831.477,306,305,303,307,164,4756,15348,-142,19,-35
1841.163,306,305,302,307,164,4756,15348,-142,19,-35
1845.189,305,305,302,307,164,4756,15348,-142,19,-35
1852.999,306,305,302,307,164,4756,15348,-142,19,-35
1852.999,306,305,302,307,164,4756,15348,-142,19,-35
1863.7330000000002,306,305,302,307,164,4756,15348,-142,19,-35
1863.7330000000002,306,304,302,307,164,4756,15348,-142,19,-35
1870.798,306,304,301,306,136,4908,15416,-5,-17,-3
1874.749,307,304,301,307,136,4908,15416,-5,-17,-3
1885.683,306,304,302,307,136,4908,15416,-5,-17,-3
1885.683,306,305,302,306,136,4908,15416,-5,-17,-3
1896.902,306,305,302,307,136,4908,15416,-5,-17,-3
1900.093,306,305,303,307,136,4908,15416,-5,-17,-3
1900.093,305,304,302,307,136,4908,15416,-5,-17,-3
1909.064,306,305,302,307,136,4908,15416,-5,-17,-3
1917.065,305,304,303,307,144,4768,15388,-52,-37,10
1919.902,305,305,303,308,144,4768,15388,-52,-37,10
1923.766,305,304,302,307,144,4768,15388,-52,-37,10
1929.8,305,305,302,307,144,4768,15388,-52,-37,10
1936.276,304,304,302,307,144,4768,15388,-52,-37,10
1941.338,304,304,301,308,144,4768,15388,-52,-37,10
1945.109,304,304,301,307,144,4768,15388,-52,-37,10
1952.974,304,304,301,307,124,4828,15376,1,-17,-44
1952.974,303,303,301,308,124,4828,15376,1,-17,-44
1963.493,303,304,301,308,124,4828,15376,1,-17,-44
1971.879,303,303,300,307,124,4828,15376,1,-17,-44
1974.564,303,303,301,307,124,4828,15376,1,-17,-44
1976.956,303,303,301,308,124,4828,15376,1,-17,-44
1986.0500000000002,303,304,300,308,124,4828,15376,1,-17,-44
1989.491,303,304,300,307,124,4828,15376,1,-17,-44
1996.627,304,303,301,307,120,4784,15364,-99,6,-46
1997.834,304,303,300,308,120,4784,15364,-99,6,-46
2007.742,304,303,300,308,120,4784,15364,-99,6,-46
2009.999,304,303,300,307,120,4784,15364,-99,6,-46
2009.999,304,303,300,307,120,4784,15364,-99,6,-46
2019.653,304,303,301,307,120,4784,15364,-99,6,-46
2026.323,304,303,301,306,120,4784,15364,-99,6,-46
2030.426,305,303,300,307,200,4876,15344,55,-7,-38
2030.426,306,303,300,307,200,4876,15344,55,-7,-38
2045.1830000000002,305,303,300,307,200,4876,15344,55,-7,-38
2045.1830000000002,306,302,300,306,200,4876,15344,55,-7,-38
2052.2909999999997,306,303,300,306,200,4876,15344,55,-7,-38
2061.033,305,303,300,306,200,4876,15344,55,-7,-38
2063.804,305,303,300,306,200,4876,15344,55,-7,-38
2063.804,305,303,299,306,200,4876,15344,55,-7,-38
2074.341,305,303,299,306,168,4828,15336,-79,-40,-40
2082.399,306,303,300,306,168,4828,15336,-79,-40,-40
2084.801,306,303,299,306,168,4828,15336,-79,-40,-40
2087.906,307,303,300,306,168,4828,15336,-79,-40,-40
2096.954,306,303,300,306,168,4828,15336,-79,-40,-40
2099.9539999999997,305,303,301,306,168,4828,15336,-79,-40,-40
2107.631,305,303,300,306,168,4828,15336,-79,-40,-40
2112.7760000000003,305,303,300,305,152,4752,15404,-2,-39,3
2118.68,305,303,301,305,152,4752,15404,-2,-39,3
2120.794,306,303,301,306,152,4752,15404,-2,-39,3
2130.881,305,303,301,305,152,4752,15404,-2,-39,3
2130.881,306,303,301,305,152,4752,15404,-2,-39,3
2137.326,305,303,302,305,152,4752,15404,-2,-39,3
2141.7329999999997,305,303,302,306,152,4752,15404,-2,-39,3
2145.971,305,303,302,305,152,4752,15404,-2,-39,3
2153.168,305,302,302,305,196,4904,15412,-7,-13,-27
2153.168,304,303,302,306,196,4904,15412,-7,-13,-27
2163.41,306,303,302,306,196,4904,15412,-7,-13,-27
2170.922,305,303,302,305,196,4904,15412,-7,-13,-27
2174.5260000000003,305,303,302,305,196,4904,15412,-7,-13,-27
2178.637,305,302,302,306,196,4904,15412,-7,-13,-27
2185.686,305,303,303,306,196,4904,15412,-7,-13,-27
2190.696,305,303,303,305,196,4904,15412,-7,-13,-27
2196.246,305,303,303,306,160,4780,15376,-79,1,-13
2198.67,305,302,303,306,160,4780,15376,-79,1,-13
2208.129,306,302,303,306,160,4780,15376,-79,1,-13
2208.129,306,302,303,305,160,4780,15376,-79,1,-13
2219.1079999999997,307,302,303,305,160,4780,15376,-79,1,-13
2219.1079999999997,307,302,304,306,160,4780,15376,-79,1,-13
2230.049,306,302,303,305,160,4780,15376,-79,1,-13
2230.049,306,303,303,304,140,4880,15384,-76,12,-27
2240.85,307,302,303,305,140,4880,15384,-76,12,-27
2245.4990000000003,306,303,303,305,140,4880,15384,-76,12,-27
2245.4990000000003,307,303,303,304,140,4880,15384,-76,12,-27
2253.602,308,303,302,304,140,4880,15384,-76,12,-27
2260.2760000000003,308,303,302,305,140,4880,15384,-76,12,-27
2263.598,307,303,301,305,140,4880,15384,-76,12,-27
2273.8450000000003,307,303,301,304,140,4880,15384,-76,12,-27
2276.014,307,303,301,305,180,4768,15408,-143,27,-16
2276.014,306,303,301,306,180,4768,15408,-143,27,-16
2285.971,307,304,300,305,180,4768,15408,-143,27,-16
2292.859,307,303,301,304,180,4768,15408,-143,27,-16
2296.813,307,304,302,305,180,4768,15408,-143,27,-16
2307.52,307,303,301,306,180,4768,15408,-143,27,-16
2309.113,307,303,300,305,180,4768,15408,-143,27,-16
2309.113,306,303,300,305,144,4832,15404,-46,23,-34
2319.339,306,303,301,306,144,4832,15404,-46,23,-34
2325.908,306,302,300,306,144,4832,15404,-46,23,-34
2330.647,306,303,300,305,144,4832,15404,-46,23,-34
2333.979,307,304,300,305,144,4832,15404,-46,23,-34
2342.129,307,303,300,306,144,4832,15404,-46,23,-34
2345.6459999999997,307,303,299,305,144,4832,15404,-46,23,-34
2352.538,306,302,299,305,168,4820,15308,-41,-18,-35
2358.321,306,303,299,306,168,4820,15308,-41,-18,-35
2363.226,306,302,299,306,168,4820,15308,-41,-18,-35
2373.1110000000003,306,302,299,306,168,4820,15308,-41,-18,-35
2375.241,306,302,299,305,168,4820,15308,-41,-18,-35
2375.241,306,301,299,306,168,4820,15308,-41,-18,-35
2385.8250000000003,306,301,300,306,168,4820,15308,-41,-18,-35
2391.353,307,301,298,305,168,4820,15308,-41,-18,-35
2396.411,307,301,300,306,164,4780,15424,-24,-6,0
2406.222,306,301,300,306,164,4780,15424,-24,-6,0
2408.303,307,301,301,306,164,4780,15424,-24,-6,0
2408.303,307,301,301,306,164,4780,15424,-24,-6,0
2416.239,306,301,301,306,164,4780,15424,-24,-6,0
2418.9219999999996,307,300,302,306,164,4780,15424,-24,-6,0
2429.774,307,300,301,306,164,4780,15424,-24,-6,0
2429.774,307,301,301,305,164,4896,15352,29,-33,-9
2436.42,307,301,302,306,164,4896,15352,29,-33,-9
2445.7870000000003,306,301,302,306,164,4896,15352,29,-33,-9
2448.9030000000002,307,301,303,306,164,4896,15352,29,-33,-9
2452.063,307,301,303,306,164,4896,15352,29,-33,-9
2463.127,307,302,303,307,164,4896,15352,29,-33,-9
2463.127,307,301,303,306,164,4896,15352,29,-33,-9
2469.5550000000003,307,301,304,306,164,4896,15352,29,-33,-9
2474.4120000000003,308,301,304,306,180,4752,15356,-50,-32,16
2477.1369999999997,307,301,305,306,180,4752,15356,-50,-32,16
2486.905,307,301,305,306,180,4752,15356,-50,-32,16
2486.905,306,302,305,305,180,4752,15356,-50,-32,16
2496.634,307,302,305,306,180,4752,15356,-50,-32,16
2502.2690000000002,307,302,305,306,180,4752,15356,-50,-32,16
2507.413,308,302,305,305,180,4752,15356,-50,-32,16
2510.9680000000003,308,302,306,305,212,4876,15344,59,-32,10
2520.1259999999997,308,303,305,305,212,4876,15344,59,-32,10
2520.1259999999997,308,302,306,306,212,4876,15344,59,-32,10
2526.726,308,303,306,305,212,4876,15344,59,-32,10
2530.17,307,303,306,305,212,4876,15344,59,-32,10
2540.766,308,303,306,306,212,4876,15344,59,-32,10
2545.853,308,302,307,306,212,4876,15344,59,-32,10
2552.009,308,303,306,305,212,4876,15344,59,-32,10
2554.748,309,302,306,305,140,4856,15360,-100,26,-19
2554.748,309,302,306,306,140,4856,15360,-100,26,-19
2569.751,309,302,306,306,140,4856,15360,-100,26,-19
2571.488,309,302,306,305,140,4856,15360,-100,26,-19
2574.656,308,303,305,305,140,4856,15360,-100,26,-19
2585.208,308,303,306,306,140,4856,15360,-100,26,-19
2587.618,308,303,305,305,140,4856,15360,-100,26,-19
2587.618,308,303,306,306,204,4756,15384,-87,15,24
2596.9500000000003,308,303,305,306,204,4756,15384,-87,15,24
2604.614,308,303,306,306,204,4756,15384,-87,15,24
2608.012,308,303,306,306,204,4756,15384,-87,15,24
2612.906,308,304,304,306,204,4756,15384,-87,15,24
2618.353,307,304,304,306,204,4756,15384,-87,15,24
2626.002,307,303,303,306,204,4756,15384,-87,15,24
2629.9260000000004,307,303,303,306,204,4756,15384,-87,15,24
2633.175,307,303,303,306,128,4852,15396,98,58,-30
2641.038,308,304,304,306,128,4852,15396,98,58,-30
2646.0530000000003,307,304,303,306,128,4852,15396,98,58,-30
2649.218,307,304,303,306,128,4852,15396,98,58,-30
2652.417,307,304,302,306,128,4852,15396,98,58,-30
2663.5480000000002,306,304,302,307,128,4852,15396,98,58,-30
2663.5480000000002,306,304,301,306,128,4852,15396,98,58,-30
2674.376,306,304,300,305,128,4852,15396,98,58,-30
2677.86,307,303,300,306,204,4920,15352,-65,31,-49
2677.86,307,304,299,306,204,4920,15352,-65,31,-49
2685.277,308,304,298,306,204,4920,15352,-65,31,-49
2696.87,308,304,298,305,204,4920,15352,-65,31,-49
2696.87,307,304,298,306,204,4920,15352,-65,31,-49
2707.602,307,304,298,306,204,4920,15352,-65,31,-49
2710.0339999999997,307,303,296,306,204,4920,15352,-65,31,-49
2710.0339999999997,307,303,296,305,204,4876,15412,-179,56,-16
2719.201,308,303,295,306,204,4876,15412,-179,56,-16
2722.855,308,304,296,306,204,4876,15412,-179,56,-16
2730.064,308,303,295,305,204,4876,15412,-179,56,-16
2740.748,308,303,294,305,204,4876,15412,-179,56,-16
2743.207,307,304,294,306,204,4876,15412,-179,56,-16
2746.2219999999998,307,303,293,305,204,4876,15412,-179,56,-16
2752.325,307,303,293,305,176,4932,15268,-117,2,-19
2760.235,307,303,293,305,176,4932,15268,-117,2,-19
2763.195,307,302,292,305,176,4932,15268,-117,2,-19
2768.311,307,302,291,305,176,4932,15268,-117,2,-19
2774.0640000000003,307,303,291,305,176,4932,15268,-117,2,-19
2780.6549999999997,306,303,293,306,176,4932,15268,-117,2,-19
2785.595,307,302,292,306,176,4932,15268,-117,2,-19
2788.329,306,302,292,306,176,4932,15268,-117,2,-19
2797.324,306,302,292,306,148,4796,15440,-144,10,-25
2797.324,306,303,293,306,148,4796,15440,-144,10,-25
2807.831,307,303,292,306,148,4796,15440,-144,10,-25
2815.882,306,303,292,305,148,4796,15440,-144,10,-25
2819.028,306,303,292,306,148,4796,15440,-144,10,-25
2828.04,306,303,292,307,148,4796,15440,-144,10,-25
2829.957,305,303,291,305,148,4796,15440,-144,10,-25
2833.4030000000002,305,303,292,305,188,4820,15332,-38,28,-43
2840.975,305,303,292,306,188,4820,15332,-38,28,-43
2846.3889999999997,305,303,293,306,188,4820,15332,-38,28,-43
2851.9519999999998,306,303,292,305,188,4820,15332,-38,28,-43
2854.1820000000002,305,303,292,306,188,4820,15332,-38,28,-43
2863.725,305,302,293,306,188,4820,15332,-38,28,-43
2863.725,305,303,292,306,188,4820,15332,-38,28,-43
2875.128,305,303,292,305,192,4852,15352,-130,43,-38
2875.128,305,303,293,306,192,4852,15352,-130,43,-38
2885.62,306,303,293,306,192,4852,15352,-130,43,-38
2893.7580000000003,306,303,293,306,192,4852,15352,-130,43,-38
2894.828,306,303,293,305,192,4852,15352,-130,43,-38
2899.868,306,304,293,306,192,4852,15352,-130,43,-38
2908.1769999999997,307,303,293,305,192,4852,15352,-130,43,-38
2908.1769999999997,306,303,293,305,192,4852,15352,-130,43,-38
2915.58,306,304,293,305,196,4824,15328,-7,19,-25
2919.038,306,304,292,305,196,4824,15328,-7,19,-25
2929.808,306,304,293,305,196,4824,15328,-7,19,-25
2929.808,307,304,293,304,196,4824,15328,-7,19,-25
2941.1839999999997,306,304,293,304,196,4824,15328,-7,19,-25
2946.455,307,304,294,305,196,4824,15328,-7,19,-25
2946.455,306,304,293,304,196,4824,15328,-7,19,-25
2952.3030000000003,306,304,293,304,132,4796,15332,-83,13,-21
2956.275,305,304,294,305,132,4796,15332,-83,13,-21
2964.452,305,304,294,305,132,4796,15332,-83,13,-21
2964.452,305,305,294,304,132,4796,15332,-83,13,-21
2975.2580000000003,304,305,294,305,132,4796,15332,-83,13,-21
2982.246,305,304,294,305,132,4796,15332,-83,13,-21
2985.6310000000003,305,304,294,304,132,4796,15332,-83,13,-21
2989.623,305,305,295,304,132,4796,15332,-83,13,-21
2999.925,303,304,295,305,248,4876,15340,-4,-16,-37
3004.0589999999997,303,304,295,305,248,4876,15340,-4,-16,-37
3011.825,303,304,295,305,248,4876,15340,-4,-16,-37
3016.0190000000002,303,304,295,305,248,4876,15340,-4,-16,-37
3019.888,303,303,295,305,248,4876,15340,-4,-16,-37
3025.299,304,303,295,305,248,4876,15340,-4,-16,-37
3030.971,304,303,295,304,248,4876,15340,-4,-16,-37
3030.971,303,303,294,304,140,4844,15308,-136,37,-53
3041.263,303,303,296,305,140,4844,15308,-136,37,-53
3046.847,302,303,296,304,140,4844,15308,-136,37,-53
3051.98,303,303,297,304,140,4844,15308,-136,37,-53
3061.2870000000003,303,303,296,305,140,4844,15308,-136,37,-53
3063.3599999999997,304,303,298,305,140,4844,15308,-136,37,-53
3067.21,304,303,298,305,140,4844,15308,-136,37,-53
3074.475,304,302,298,305,164,4884,15268,-72,21,0
3082.319,304,303,299,305,164,4884,15268,-72,21,0
3085.45,304,303,300,305,164,4884,15268,-72,21,0
3087.4139999999998,304,304,299,305,164,4884,15268,-72,21,0
3097.247,304,303,300,305,164,4884,15268,-72,21,0
3097.247,304,303,300,305,164,4884,15268,-72,21,0
3103.7780000000002,304,303,301,306,164,4884,15268,-72,21,0
3108.01,304,302,300,305,164,4884,15268,-72,21,0
3112.617,305,302,300,305,196,4876,15396,-108,24,-52
3120.011,304,303,300,305,196,4876,15396,-108,24,-52
3120.011,305,303,300,305,196,4876,15396,-108,24,-52
3130.7200000000003,304,303,301,304,196,4876,15396,-108,24,-52
3136.871,305,303,300,304,196,4876,15396,-108,24,-52
3141.427,304,303,301,305,196,4876,15396,-108,24,-52
3150.869,305,303,301,305,196,4876,15396,-108,24,-52
3153.044,305,303,300,304,196,4876,15396,-108,24,-52
3156.96,305,303,301,305,168,4796,15272,-78,28,-31
3163.107,305,303,302,305,168,4796,15272,-78,28,-31
3169.9049999999997,305,304,300,305,168,4796,15272,-78,28,-31
3174.7839999999997,305,304,301,305,168,4796,15272,-78,28,-31
3177.9790000000003,305,304,301,305,168,4796,15272,-78,28,-31
3186.284,305,304,300,306,168,4796,15272,-78,28,-31
3186.284,306,303,300,305,168,4796,15272,-78,28,-31
3196.733,305,303,299,305,228,4908,15336,-41,32,-56
3204.8450000000003,306,303,299,305,228,4908,15336,-41,32,-56
3207.987,305,304,299,305,228,4908,15336,-41,32,-56
3216.923,305,304,299,304,228,4908,15336,-41,32,-56
3218.964,305,303,299,306,228,4908,15336,-41,32,-56
3218.964,305,304,299,305,228,4908,15336,-41,32,-56
3230.103,304,304,299,305,228,4908,15336,-41,32,-56
3235.453,305,304,298,305,196,4904,15340,-166,39,-31
3240.641,304,303,297,305,196,4904,15340,-166,39,-31
3247.71,305,303,298,305,196,4904,15340,-166,39,-31
3252.631,305,303,297,305,196,4904,15340,-166,39,-31
3252.631,304,304,298,305,196,4904,15340,-166,39,-31
3263.8669999999997,304,304,298,306,196,4904,15340,-166,39,-31
3263.8669999999997,304,305,298,306,196,4904,15340,-166,39,-31
3273.363,304,304,298,305,196,4904,15340,-166,39,-31
3274.732,305,304,298,306,176,4876,15376,-87,-8,-6
3285.66,304,304,298,306,176,4876,15376,-87,-8,-6
3285.66,305,304,298,305,176,4876,15376,-87,-8,-6
3294.857,305,304,298,305,176,4876,15376,-87,-8,-6
3298.586,304,304,298,306,176,4876,15376,-87,-8,-6
3304.9750000000004,304,304,298,306,176,4876,15376,-87,-8,-6
3308.083,304,304,298,305,176,4876,15376,-87,-8,-6
3318.6200000000003,304,304,298,305,200,4856,15276,-78,-12,-19
3318.6200000000003,304,303,299,305,200,4856,15276,-78,-12,-19
3325.624,305,303,298,306,200,4856,15276,-78,-12,-19
3330.42,304,303,298,304,200,4856,15276,-78,-12,-19
3337.739,304,303,299,305,200,4856,15276,-78,-12,-19
3341.6299999999997,304,303,299,305,200,4856,15276,-78,-12,-19
3347.1259999999997,304,303,298,305,200,4856,15276,-78,-12,-19
3352.535,304,303,298,304,200,4856,15276,-78,-12,-19
3361.408,304,303,298,305,132,4832,15388,-125,-12,-40
3363.252,305,303,299,305,132,4832,15388,-125,-12,-40
3370.239,306,303,299,305,132,4832,15388,-125,-12,-40
3375.2360000000003,305,303,299,304,132,4832,15388,-125,-12,-40
3382.959,305,303,299,304,132,4832,15388,-125,-12,-40
3386.0640000000003,305,303,300,304,132,4832,15388,-125,-12,-40
3396.764,305,303,299,304,132,4832,15388,-125,-12,-40
3396.764,305,304,299,304,216,4848,15348,-80,-25,-16
3403.9640000000004,305,303,299,305,216,4848,15348,-80,-25,-16
3407.7090000000003,305,303,299,304,216,4848,15348,-80,-25,-16
3417.712,305,303,300,304,216,4848,15348,-80,-25,-16
3422.084,305,304,300,304,216,4848,15348,-80,-25,-16
3429.835,305,304,300,304,216,4848,15348,-80,-25,-16
3434.075,305,304,299,303,216,4848,15348,-80,-25,-16
3438.406,305,303,299,304,152,4852,15368,-118,-107,1
3441.6310000000003,305,303,300,304,152,4852,15368,-118,-107,1
3450.399,305,303,299,304,152,4852,15368,-118,-107,1
3452.169,306,303,299,304,152,4852,15368,-118,-107,1
3460.5350000000003,305,303,299,304,152,4852,15368,-118,-107,1
3463.293,306,303,299,304,152,4852,15368,-118,-107,1
3473.987,305,304,299,304,152,4852,15368,-118,-107,1
3473.987,305,304,299,304,120,4856,15240,-12,-40,-7
3480.675,304,304,300,305,120,4856,15240,-12,-40,-7
3485.5879999999997,304,305,300,304,120,4856,15240,-12,-40,-7
3488.647,305,305,300,304,120,4856,15240,-12,-40,-7
3497.3540000000003,304,305,300,304,120,4856,15240,-12,-40,-7
3497.3540000000003,304,304,300,305,120,4856,15240,-12,-40,-7
3507.736,305,304,300,305,120,4856,15240,-12,-40,-7
3514.401,304,304,300,304,120,4856,15240,-12,-40,-7
3518.537,304,304,301,305,184,4864,15352,344,101,-62
3528.052,304,304,300,305,184,4864,15352,344,101,-62
3529.969,305,304,300,305,184,4864,15352,344,101,-62
3533.563,305,305,300,304,184,4864,15352,344,101,-62
3541.528,305,305,300,305,184,4864,15352,344,101,-62
3547.842,306,305,300,305,184,4864,15352,344,101,-62
3551.808,306,305,300,304,184,4864,15352,344,101,-62
3557.8599999999997,306,304,299,305,240,4940,16084,-491,60,-1
3563.056,307,304,299,305,240,4940,16084,-491,60,-1
3566.37,307,304,299,304,240,4940,16084,-491,60,-1
3575.5789999999997,308,304,299,304,240,4940,16084,-491,60,-1
3575.5789999999997,308,304,299,305,240,4940,16084,-491,60,-1
3585.7019999999998,308,304,299,305,240,4940,16084,-491,60,-1
3593.992,310,304,299,304,240,4940,16084,-491,60,-1
3598.139,309,305,299,304,224,4684,15484,-116,13,25
3601.844,309,305,299,304,224,4684,15484,-116,13,25
3608.354,309,305,299,304,224,4684,15484,-116,13,25
3608.354,310,304,299,303,224,4684,15484,-116,13,25
3616.588,309,305,299,303,224,4684,15484,-116,13,25
3619.299,310,304,299,304,224,4684,15484,-116,13,25
3630.3070000000002,309,304,298,303,224,4684,15484,-116,13,25
3630.3070000000002,310,304,298,303,224,4684,15484,-116,13,25
3636.8089999999997,309,304,299,303,292,4804,15180,-32,-72,5
3641.395,309,304,299,304,292,4804,15180,-32,-72,5
3648.3379999999997,309,304,300,303,292,4804,15180,-32,-72,5
3653.1099999999997,309,304,299,303,292,4804,15180,-32,-72,5
3663.519,308,304,300,303,292,4804,15180,-32,-72,5
3664.6169999999997,309,304,299,304,292,4804,15180,-32,-72,5
3664.6169999999997,309,303,299,303,292,4804,15180,-32,-72,5
3674.776,309,304,300,303,244,4736,15140,174,-9,0
3683.62,308,304,300,304,244,4736,15140,174,-9,0
3685.918,308,305,300,303,244,4736,15140,174,-9,0
3689.4629999999997,308,304,300,303,244,4736,15140,174,-9,0
3696.0350000000003,308,304,300,304,244,4736,15140,174,-9,0
3704.076,307,304,301,304,244,4736,15140,174,-9,0
3708.2470000000003,308,304,301,304,244,4736,15140,174,-9,0
3712.691,308,304,301,303,244,4736,15140,174,-9,0
3720.848,307,303,302,303,148,4884,15736,-82,-21,-15
3724.9919999999997,306,303,303,304,148,4884,15736,-82,-21,-15
3728.638,306,303,304,304,148,4884,15736,-82,-21,-15
3730.187,306,303,304,304,148,4884,15736,-82,-21,-15
3741.0,306,303,305,304,148,4884,15736,-82,-21,-15
3741.0,306,303,305,304,148,4884,15736,-82,-21,-15
3752.333,306,303,306,304,148,4884,15736,-82,-21,-15
3754.7019999999998,305,303,306,304,232,4764,15188,11,-39,57
3762.71,306,303,307,304,232,4764,15188,11,-39,57
3764.519,306,304,307,304,232,4764,15188,11,-39,57
3771.6020000000003,305,304,307,304,232,4764,15188,11,-39,57
3774.478,305,304,308,304,232,4764,15188,11,-39,57
3780.886,304,303,309,304,232,4764,15188,11,-39,57
3786.205,304,303,309,304,232,4764,15188,11,-39,57
3795.064,305,303,309,304,232,4764,15188,11,-39,57
3797.594,304,303,310,304,152,4828,15492,87,-3,-15
3806.1150000000002,304,302,310,304,152,4828,15492,87,-3,-15
3808.566,304,302,311,304,152,4828,15492,87,-3,-15
3812.344,303,303,311,303,152,4828,15492,87,-3,-15
3818.437,303,303,312,304,152,4828,15492,87,-3,-15
3818.437,303,303,313,304,152,4828,15492,87,-3,-15
3830.177,304,304,314,304,152,4828,15492,87,-3,-15
3830.177,304,303,314,303,152,4828,15492,87,-3,-15
3840.884,304,303,315,304,216,4972,15552,-50,52,-60
3847.234,304,303,316,304,216,4972,15552,-50,52,-60
3847.234,304,303,316,304,216,4972,15552,-50,52,-60
3853.1279999999997,303,303,317,304,216,4972,15552,-50,52,-60
3863.345,303,303,317,304,216,4972,15552,-50,52,-60
3863.345,303,302,317,304,216,4972,15552,-50,52,-60
3869.627,303,303,318,303,216,4972,15552,-50,52,-60
3874.632,303,302,318,304,240,4736,15308,-11,-44,-48
3881.857,304,303,319,304,240,4736,15308,-11,-44,-48
3886.242,304,303,319,304,240,4736,15308,-11,-44,-48
3896.986,303,302,319,303,240,4736,15308,-11,-44,-48
3896.986,303,303,319,304,240,4736,15308,-11,-44,-48
3907.69,303,303,319,303,240,4736,15308,-11,-44,-48
3907.69,303,302,319,303,240,4736,15308,-11,-44,-48
3914.94,303,302,319,303,232,4968,15136,-54,11,-9
3919.504,304,301,319,304,232,4968,15136,-54,11,-9
3923.323,304,302,319,303,232,4968,15136,-54,11,-9
3930.829,304,302,318,303,232,4968,15136,-54,11,-9
3930.829,303,301,318,303,232,4968,15136,-54,11,-9
3941.306,303,301,317,304,232,4968,15136,-54,11,-9
3947.694,303,302,317,304,232,4968,15136,-54,11,-9
3952.728,303,302,316,303,232,4968,15136,-54,11,-9
3952.728,303,302,316,304,216,4684,15164,15,39,-30
3963.3940000000002,302,302,315,304,216,4684,15164,15,39,-30
3968.505,302,302,315,303,216,4684,15164,15,39,-30
3974.033,302,302,314,303,216,4684,15164,15,39,-30
3974.033,302,302,313,304,216,4684,15164,15,39,-30
3985.639,301,303,312,304,216,4684,15164,15,39,-30
3985.639,301,302,311,304,216,4684,15164,15,39,-30
3992.954,301,303,310,304,216,4684,15164,15,39,-30
3997.473,301,303,309,304,260,4920,15364,-4,0,-36
4007.573,301,302,308,304,260,4920,15364,-4,0,-36
4007.573,302,302,306,304,260,4920,15364,-4,0,-36
4013.3559999999998,302,302,305,304,260,4920,15364,-4,0,-36
4018.443,301,302,303,304,260,4920,15364,-4,0,-36
4025.9150000000004,301,302,302,305,260,4920,15364,-4,0,-36
4030.0909999999994,301,302,301,304,260,4920,15364,-4,0,-36
4033.766,301,303,300,304,168,4684,15316,-294,191,-82
4041.259,301,303,299,305,168,4684,15316,-294,191,-82
4047.7749999999996,301,302,297,305,168,4684,15316,-294,191,-82
4052.283,302,302,295,304,168,4684,15316,-294,191,-82
4059.248,301,302,294,305,168,4684,15316,-294,191,-82
4063.8639999999996,302,302,291,305,168,4684,15316,-294,191,-82
4072.9519999999998,302,303,290,305,168,4684,15316,-294,191,-82
4075.1030000000005,302,302,289,305,168,4684,15316,-294,191,-82
4083.654,302,302,288,305,236,4908,15280,-135,160,-71
4085.9550000000004,302,303,286,305,236,4908,15280,-135,160,-71
4091.9100000000003,303,302,286,305,236,4908,15280,-135,160,-71
4096.624000000001,304,302,285,305,236,4908,15280,-135,160,-71
4106.409000000001,304,302,284,306,236,4908,15280,-135,160,-71
4109.102,304,302,283,305,236,4908,15280,-135,160,-71
4111.0740000000005,304,302,283,305,236,4908,15280,-135,160,-71
4119.974,304,301,282,306,116,4780,15308,-345,35,14
4130.153,304,302,282,306,116,4780,15308,-345,35,14
4130.153,305,302,283,306,116,4780,15308,-345,35,14
4138.517,306,301,283,306,116,4780,15308,-345,35,14
4141.263,306,301,283,307,116,4780,15308,-345,35,14
4150.746,305,302,284,306,116,4780,15308,-345,35,14
4151.96,305,302,284,306,116,4780,15308,-345,35,14
4156.241,304,303,284,306,172,4668,15200,-130,-46,20
4163.176,304,302,285,307,172,4668,15200,-130,-46,20
4168.972,305,302,286,306,172,4668,15200,-130,-46,20
4174.129,305,302,287,306,172,4668,15200,-130,-46,20
4176.861,306,303,287,307,172,4668,15200,-130,-46,20
4186.740000000001,305,302,287,307,172,4668,15200,-130,-46,20
4195.316,306,302,287,307,172,4668,15200,-130,-46,20
4197.164,305,303,288,307,220,4968,15248,136,-38,-28
4197.164,305,303,289,308,220,4968,15248,136,-38,-28
4208.106,305,303,290,307,220,4968,15248,136,-38,-28
4213.974999999999,306,303,290,307,220,4968,15248,136,-38,-28
4218.606000000001,306,302,291,308,220,4968,15248,136,-38,-28
4223.057,306,302,291,308,220,4968,15248,136,-38,-28
4231.151,306,302,292,307,220,4968,15248,136,-38,-28
4231.151,306,303,293,307,220,4968,15248,136,-38,-28
4241.798,306,303,293,308,192,4780,15232,-263,-90,23
4248.401999999999,305,303,294,308,192,4780,15232,-263,-90,23
4251.887,306,303,294,307,192,4780,15232,-263,-90,23
4261.871,306,303,295,307,192,4780,15232,-263,-90,23
4264.693,306,303,296,307,192,4780,15232,-263,-90,23
4264.693,305,304,297,307,192,4780,15232,-263,-90,23
4274.5689999999995,306,304,297,307,192,4780,15232,-263,-90,23
4274.5689999999995,305,304,297,308,108,4820,15200,143,16,-38
4285.224,304,304,297,308,108,4820,15200,143,16,-38
4293.589,305,304,297,307,108,4820,15200,143,16,-38
4296.989,304,304,297,307,108,4820,15200,143,16,-38
4299.045999999999,304,305,298,308,108,4820,15200,143,16,-38
4308.044,304,305,297,308,108,4820,15200,143,16,-38
4311.61,303,304,297,306,108,4820,15200,143,16,-38
4318.648999999999,303,305,298,307,140,4852,15464,-120,17,-19
4318.648999999999,303,305,299,307,140,4852,15464,-120,17,-19
4329.765,303,305,298,306,140,4852,15464,-120,17,-19
4329.765,303,305,298,306,140,4852,15464,-120,17,-19
4341.325000000001,303,305,299,307,140,4852,15464,-120,17,-19
4345.382,302,306,299,307,140,4852,15464,-120,17,-19
4348.397,303,306,298,306,140,4852,15464,-120,17,-19
4352.8460000000005,302,306,298,307,140,4852,15464,-120,17,-19
4363.831,303,306,298,307,172,4716,15348,-11,16,-29
4367.985,301,307,298,306,172,4716,15348,-11,16,-29
4375.612,302,307,298,306,172,4716,15348,-11,16,-29
4379.747,302,306,297,306,172,4716,15348,-11,16,-29
4383.8730000000005,301,306,297,306,172,4716,15348,-11,16,-29
4387.248,301,306,296,306,172,4716,15348,-11,16,-29
4396.493,302,305,296,305,172,4716,15348,-11,16,-29
4396.493,301,305,296,306,180,4828,15400,-143,43,-56
4408.874,301,305,296,306,180,4828,15400,-143,43,-56
4408.874,300,305,295,305,180,4828,15400,-143,43,-56
4417.523,300,304,296,305,180,4828,15400,-143,43,-56
4420.3640000000005,300,304,296,306,180,4828,15400,-143,43,-56
4428.374,300,304,296,306,180,4828,15400,-143,43,-56
4429.597000000001,301,304,297,306,180,4828,15400,-143,43,-56
4440.984,301,304,297,306,296,4592,15412,-75,10,-21
4440.984,301,304,298,306,296,4592,15412,-75,10,-21
4448.6759999999995,301,304,298,306,296,4592,15412,-75,10,-21
4452.294,301,304,298,305,296,4592,15412,-75,10,-21
4459.818,301,304,299,307,296,4592,15412,-75,10,-21
4463.491,300,303,300,306,296,4592,15412,-75,10,-21
4468.094,301,303,300,305,296,4592,15412,-75,10,-21
4475.6539999999995,301,303,301,305,296,4592,15412,-75,10,-21
4475.6539999999995,302,303,301,306,212,4884,15420,-12,7,-36
4485.57,302,303,302,305,212,4884,15420,-12,7,-36
4494.686,302,302,301,305,212,4884,15420,-12,7,-36
4496.897,301,302,301,305,212,4884,15420,-12,7,-36
4500.1939999999995,301,302,301,305,212,4884,15420,-12,7,-36
4509.072,302,302,302,305,212,4884,15420,-12,7,-36
4509.072,302,302,302,304,212,4884,15420,-12,7,-36
4519.161,303,302,303,305,252,4836,15184,-109,36,-22
4527.235,303,302,303,305,252,4836,15184,-109,36,-22
4530.022,304,302,303,304,252,4836,15184,-109,36,-22
4532.841,303,302,304,304,252,4836,15184,-109,36,-22
4541.082,303,303,304,305,252,4836,15184,-109,36,-22
4545.022999999999,303,304,305,304,252,4836,15184,-109,36,-22
4552.076999999999,303,303,306,304,252,4836,15184,-109,36,-22
4552.076999999999,303,303,305,304,252,4836,15184,-109,36,-22
4563.718,304,302,305,304,224,4888,15260,-27,-35,-2
4563.718,304,302,306,304,224,4888,15260,-27,-35,-2
4574.588000000001,304,302,306,303,224,4888,15260,-27,-35,-2
4574.588000000001,303,302,307,304,224,4888,15260,-27,-35,-2
4585.381,303,303,307,304,224,4888,15260,-27,-35,-2
4585.381,303,303,308,304,224,4888,15260,-27,-35,-2
4596.241,304,303,308,304,224,4888,15260,-27,-35,-2
4596.241,303,303,308,305,224,4796,15524,-168,16,-11
4607.762,303,303,309,305,224,4796,15524,-168,16,-11
4611.141,303,304,309,304,224,4796,15524,-168,16,-11
4611.141,303,304,309,304,224,4796,15524,-168,16,-11
4625.608,302,304,309,305,224,4796,15524,-168,16,-11
4630.001,302,304,309,306,224,4796,15524,-168,16,-11
4630.001,302,304,308,305,224,4796,15524,-168,16,-11
4641.1410000000005,302,304,307,305,208,4844,15448,-58,-13,-24
4643.611,301,303,307,306,208,4844,15448,-58,-13,-24
4650.268999999999,303,303,307,305,208,4844,15448,-58,-13,-24
4652.340999999999,301,303,307,305,208,4844,15448,-58,-13,-24
4660.610000000001,301,303,306,305,208,4844,15448,-58,-13,-24
4663.389999999999,301,303,305,306,208,4844,15448,-58,-13,-24
4674.632,301,303,306,306,208,4844,15448,-58,-13,-24
4676.866,300,303,306,306,208,4844,15448,-58,-13,-24
4676.866,300,304,306,306,248,4812,15260,-195,7,-11
4686.513,300,303,306,307,248,4812,15260,-195,7,-11
4693.17,301,303,305,305,248,4812,15260,-195,7,-11
4696.728,301,303,305,306,248,4812,15260,-195,7,-11
4707.441,300,303,306,307,248,4812,15260,-195,7,-11
4708.1759999999995,301,303,305,306,248,4812,15260,-195,7,-11
4716.399,300,303,305,306,248,4812,15260,-195,7,-11
4719.5830000000005,301,302,305,306,212,4796,15312,-52,69,-42
4728.112,300,302,305,307,212,4796,15312,-52,69,-42
4730.099,302,302,304,306,212,4796,15312,-52,69,-42
4733.754,301,302,305,306,212,4796,15312,-52,69,-42
4741.927,302,302,305,306,212,4796,15312,-52,69,-42
4749.028,301,302,305,306,212,4796,15312,-52,69,-42
4751.981,301,303,305,306,212,4796,15312,-52,69,-42
4751.981,301,303,305,306,212,4796,15312,-52,69,-42
4763.7080000000005,301,303,306,306,240,4820,15328,-87,1,-24
4763.7080000000005,301,303,306,306,240,4820,15328,-87,1,-24
4774.454000000001,301,304,306,306,240,4820,15328,-87,1,-24
4774.454000000001,301,303,306,306,240,4820,15328,-87,1,-24
4784.793,301,303,307,306,240,4820,15328,-87,1,-24
4786.991999999999,301,303,307,306,240,4820,15328,-87,1,-24
4797.658,301,304,306,305,240,4820,15328,-87,1,-24
4797.658,301,304,306,306,240,4832,15420,-19,-29,5
4805.775,302,304,306,306,240,4832,15420,-19,-29,5
4808.170999999999,302,304,306,306,240,4832,15420,-19,-29,5
4818.5650000000005,302,304,305,305,240,4832,15420,-19,-29,5
4818.5650000000005,302,304,305,306,240,4832,15420,-19,-29,5
4824.395,302,304,305,306,240,4832,15420,-19,-29,5
4829.582,302,304,305,305,240,4832,15420,-19,-29,5
4836.9400000000005,302,304,304,305,240,4832,15420,-19,-29,5
4841.427000000001,301,304,305,305,168,4772,15368,-146,12,-58
4849.160000000001,301,304,304,305,168,4772,15368,-146,12,-58
4853.379,302,304,304,305,168,4772,15368,-146,12,-58
4853.379,302,304,304,305,168,4772,15368,-146,12,-58
4863.228999999999,302,304,304,306,168,4772,15368,-146,12,-58
4869.427,302,303,303,306,168,4772,15368,-146,12,-58
4874.343,303,303,302,305,168,4772,15368,-146,12,-58
4883.616,302,303,303,305,248,4872,15304,-82,-4,-26
4885.623,302,303,303,306,248,4872,15304,-82,-4,-26
4885.623,303,303,302,305,248,4872,15304,-82,-4,-26
4896.9310000000005,302,303,302,305,248,4872,15304,-82,-4,-26
4896.9310000000005,303,303,303,306,248,4872,15304,-82,-4,-26
4905.762000000001,303,303,303,306,248,4872,15304,-82,-4,-26
4911.082,303,303,303,305,248,4872,15304,-82,-4,-26
4919.174,303,302,303,306,208,4780,15356,-150,3,-40
4919.174,302,303,303,306,208,4780,15356,-150,3,-40
4926.86,302,303,303,305,208,4780,15356,-150,3,-40
4934.1759999999995,303,304,303,305,208,4780,15356,-150,3,-40
4940.772,302,304,303,305,208,4780,15356,-150,3,-40
4949.289000000001,303,303,302,305,208,4780,15356,-150,3,-40
4952.518,304,304,302,304,208,4780,15356,-150,3,-40
4952.518,304,304,302,304,208,4780,15356,-150,3,-40
4959.467,303,304,303,304,180,4736,15384,-147,58,-49
4963.657,303,304,302,304,180,4736,15384,-147,58,-49
4971.888,303,303,302,304,180,4736,15384,-147,58,-49
4974.619,303,304,301,304,180,4736,15384,-147,58,-49
4985.805,303,304,301,304,180,4736,15384,-147,58,-49
4987.8,303,304,301,303,180,4736,15384,-147,58,-49
4997.445,304,304,301,303,180,4736,15384,-147,58,-49
4999.707,303,304,301,303,240,4776,15352,-110,-61,-23
4999.707,304,304,300,303,240,4776,15352,-110,-61,-23
5008.307000000001,304,304,301,303,240,4776,15352,-110,-61,-23
5019.094,304,304,300,303,240,4776,15352,-110,-61,-23
5019.094,304,304,301,303,240,4776,15352,-110,-61,-23
5029.883,304,304,301,303,240,4776,15352,-110,-61,-23
5033.1089999999995,305,304,300,302,240,4776,15352,-110,-61,-23
5042.224,304,304,300,303,128,4692,15360,-99,32,-32
5042.224,305,304,300,303,128,4692,15360,-99,32,-32
5049.991999999999,304,303,300,302,128,4692,15360,-99,32,-32
5052.508000000001,304,304,300,302,128,4692,15360,-99,32,-32
5063.255,304,303,300,303,128,4692,15360,-99,32,-32
5065.554,305,303,299,303,128,4692,15360,-99,32,-32
5065.554,304,303,299,302,128,4692,15360,-99,32,-32
5075.947,304,303,298,302,128,4692,15360,-99,32,-32
5082.544000000001,304,303,299,303,184,4872,15392,28,4,-53
5085.751,304,302,298,303,184,4872,15392,28,4,-53
5094.824,303,303,299,302,184,4872,15392,28,4,-53
5097.263,303,302,298,303,184,4872,15392,28,4,-53
5097.263,303,302,298,304,184,4872,15392,28,4,-53
5107.834000000001,303,302,298,303,184,4872,15392,28,4,-53
5107.834000000001,303,302,298,303,184,4872,15392,28,4,-53
5119.032,302,302,298,303,184,4872,15392,28,4,-53
5123.54,303,302,299,304,188,4792,15360,-171,-52,28
5129.2080000000005,303,302,299,303,188,4792,15360,-171,-52,28
5134.9400000000005,302,302,300,303,188,4792,15360,-171,-52,28
5141.679,302,302,301,303,188,4792,15360,-171,-52,28
5149.218,302,302,301,303,188,4792,15360,-171,-52,28
5152.496,302,302,301,303,188,4792,15360,-171,-52,28
5155.174,302,302,301,303,188,4792,15360,-171,-52,28
5162.933,301,302,301,304,240,4800,15392,114,35,-30
5162.933,302,302,300,303,240,4800,15392,114,35,-30
5174.327,302,301,300,302,240,4800,15392,114,35,-30
5174.327,302,301,300,303,240,4800,15392,114,35,-30
5185.592,302,301,300,303,240,4800,15392,114,35,-30
5185.592,302,301,300,303,240,4800,15392,114,35,-30
5193.923,303,301,300,302,240,4800,15392,114,35,-30
5196.706,302,300,299,302,236,4800,15440,-44,8,2
5205.1759999999995,303,301,300,302,236,4800,15440,-44,8,2
5207.7660000000005,303,301,300,302,236,4800,15440,-44,8,2
5214.4839999999995,304,300,300,302,236,4800,15440,-44,8,2
5218.889,303,301,300,303,236,4800,15440,-44,8,2
5225.821,304,301,301,303,236,4800,15440,-44,8,2
5231.183,304,301,301,302,236,4800,15440,-44,8,2
5233.204,304,301,300,302,236,4800,15440,-44,8,2
5241.222,304,301,301,302,224,4776,15332,-3,-23,6
5241.4490000000005,304,301,301,302,224,4776,15332,-3,-23,6
5252.269,305,301,301,301,224,4776,15332,-3,-23,6
5252.269,305,301,301,302,224,4776,15332,-3,-23,6
5260.652999999999,305,301,301,302,224,4776,15332,-3,-23,6
5263.544,305,301,301,302,224,4776,15332,-3,-23,6
5271.036999999999,305,301,300,301,224,4776,15332,-3,-23,6
5274.502,305,301,301,301,224,4776,15332,-3,-23,6
5279.631,304,302,302,302,204,4756,15388,-31,5,-17
5285.571,305,301,302,302,204,4756,15388,-31,5,-17
5291.1720000000005,304,301,302,301,204,4756,15388,-31,5,-17
5296.3589999999995,304,301,302,302,204,4756,15388,-31,5,-17
5299.066,305,301,302,302,204,4756,15388,-31,5,-17
5309.659,303,301,303,302,204,4756,15388,-31,5,-17
5313.753000000001,304,301,303,302,204,4756,15388,-31,5,-17
5321.693,303,302,303,302,204,4756,15388,-31,5,-17
5325.986000000001,303,301,302,303,164,4808,15336,-59,-31,-30
5329.974,303,301,302,302,164,4808,15336,-59,-31,-30
5335.478,303,301,302,302,164,4808,15336,-59,-31,-30
5341.111,303,300,301,303,164,4808,15336,-59,-31,-30
5341.111,303,300,302,303,164,4808,15336,-59,-31,-30
5352.462,302,301,302,304,164,4808,15336,-59,-31,-30
5357.26,303,301,302,303,164,4808,15336,-59,-31,-30
5357.26,302,301,302,304,244,4816,15368,-52,-9,-8
5363.74,302,301,302,304,244,4816,15368,-52,-9,-8
5374.265,303,301,302,304,244,4816,15368,-52,-9,-8
5374.265,302,300,301,304,244,4816,15368,-52,-9,-8
5381.559,302,300,301,304,244,4816,15368,-52,-9,-8
5385.7480000000005,302,300,301,305,244,4816,15368,-52,-9,-8
5394.652,302,300,301,304,244,4816,15368,-52,-9,-8
5396.536,302,301,301,305,244,4816,15368,-52,-9,-8
5401.823,302,301,301,305,264,4816,15400,-87,11,-50
5407.428999999999,302,300,301,304,264,4816,15400,-87,11,-50
5413.71,303,301,300,304,264,4816,15400,-87,11,-50
5418.683,303,301,301,305,264,4816,15400,-87,11,-50
5425.881,303,300,301,305,264,4816,15400,-87,11,-50
5430.477,303,300,301,304,264,4816,15400,-87,11,-50
5434.523999999999,303,300,301,304,264,4816,15400,-87,11,-50
5440.764,302,301,301,305,220,4816,15312,-105,-2,-29
5448.17,303,301,300,304,220,4816,15312,-105,-2,-29
5452.018,303,302,301,304,220,4816,15312,-105,-2,-29
5454.72,303,302,302,304,220,4816,15312,-105,-2,-29
5463.8460000000005,304,301,302,305,220,4816,15312,-105,-2,-29
5466.831,304,302,302,304,220,4816,15312,-105,-2,-29
5474.898999999999,304,302,302,304,220,4816,15312,-105,-2,-29
5479.027,303,303,302,304,212,4744,15324,-63,17,-24
5485.398,304,303,302,304,212,4744,15324,-63,17,-24
5485.398,303,303,302,304,212,4744,15324,-63,17,-24
5497.106,304,303,302,304,212,4744,15324,-63,17,-24
5497.106,304,302,302,305,212,4744,15324,-63,17,-24
5507.692999999999,304,303,302,305,212,4744,15324,-63,17,-24
5512.787,305,303,301,304,212,4744,15324,-63,17,-24
5518.287,304,303,301,304,212,4744,15324,-63,17,-24
5518.287,303,302,301,305,180,4816,15380,-28,15,-42
5529.9839999999995,304,302,301,305,180,4816,15380,-28,15,-42
5529.9839999999995,303,303,301,304,180,4816,15380,-28,15,-42
5541.851000000001,304,303,301,305,180,4816,15380,-28,15,-42
5541.851000000001,304,303,301,305,180,4816,15380,-28,15,-42
5550.172,304,303,301,305,180,4816,15380,-28,15,-42
5552.155,305,303,301,305,180,4816,15380,-28,15,-42
5563.322,303,303,301,305,180,4844,15308,-56,-105,5
5563.322,304,303,300,305,180,4844,15308,-56,-105,5
5574.723,304,304,300,305,180,4844,15308,-56,-105,5
5574.723,303,303,300,305,180,4844,15308,-56,-105,5
5583.665,303,303,300,306,180,4844,15308,-56,-105,5
5586.182,303,303,301,305,180,4844,15308,-56,-105,5
5589.815,303,303,301,305,180,4844,15308,-56,-105,5
5597.044000000001,303,303,301,305,180,4844,15308,-56,-105,5
5602.746,303,303,301,307,244,4844,15280,-31,-22,21
5607.768,303,303,301,305,244,4844,15280,-31,-22,21
5614.285,302,303,301,305,244,4844,15280,-31,-22,21
5619.33,303,303,301,305,244,4844,15280,-31,-22,21
5628.269,303,304,302,306,244,4844,15280,-31,-22,21
5630.5560000000005,303,303,302,305,244,4844,15280,-31,-22,21
5636.067,303,303,302,305,244,4844,15280,-31,-22,21
5644.614,305,303,302,306,232,4860,15432,-24,9,-11
5647.541,303,303,302,306,232,4860,15432,-24,9,-11
5652.312,303,303,301,305,232,4860,15432,-24,9,-11
5652.312,304,304,301,305,232,4860,15432,-24,9,-11
5663.339,304,303,302,306,232,4860,15432,-24,9,-11
5668.002,304,303,302,305,232,4860,15432,-24,9,-11
5674.568,305,303,301,305,232,4860,15432,-24,9,-11
5675.97,304,303,301,305,232,4860,15432,-24,9,-11
5686.067,304,303,301,306,208,4808,15356,-144,21,-16
5686.067,304,304,301,305,208,4808,15356,-144,21,-16
5696.897,304,304,300,304,208,4808,15356,-144,21,-16
5696.897,304,304,301,305,208,4808,15356,-144,21,-16
5707.4220000000005,304,304,301,306,208,4808,15356,-144,21,-16
5715.707,304,304,301,305,208,4808,15356,-144,21,-16
5718.907,305,304,301,305,208,4808,15356,-144,21,-16
5720.7699999999995,304,304,301,305,264,4880,15280,-32,-20,-35
5731.506,305,304,301,305,264,4880,15280,-32,-20,-35
5736.112999999999,305,304,300,304,264,4880,15280,-32,-20,-35
5740.25,305,304,300,305,264,4880,15280,-32,-20,-35
5747.942,305,304,300,305,264,4880,15280,-32,-20,-35
5752.119000000001,305,305,300,305,264,4880,15280,-32,-20,-35
5755.326,305,304,300,304,264,4880,15280,-32,-20,-35
5764.599999999999,304,304,300,305,196,4788,15368,-175,39,-19
5764.599999999999,305,304,300,305,196,4788,15368,-175,39,-19
5770.504,304,304,298,304,196,4788,15368,-175,39,-19
5774.731,304,304,299,304,196,4788,15368,-175,39,-19
5782.857,304,304,299,305,196,4788,15368,-175,39,-19
5785.669000000001,304,304,299,305,196,4788,15368,-175,39,-19
5796.599999999999,304,304,299,305,196,4788,15368,-175,39,-19
5798.764,304,303,299,306,196,4788,15368,-175,39,-19
5808.173,304,303,299,306,296,4848,15412,-160,58,-53
5810.723999999999,305,303,299,306,296,4848,15412,-160,58,-53
5810.723999999999,305,303,299,306,296,4848,15412,-160,58,-53
5818.951,304,303,299,306,296,4848,15412,-160,58,-53
5830.104,304,303,299,306,296,4848,15412,-160,58,-53
5830.104,304,303,299,306,296,4848,15412,-160,58,-53
5841.052000000001,304,303,299,306,296,4848,15412,-160,58,-53
5841.052000000001,305,303,299,306,240,4772,15392,-254,102,-76
5850.778,304,303,299,306,240,4772,15392,-254,102,-76
5852.22,304,303,299,305,240,4772,15392,-254,102,-76
5861.682,303,303,299,305,240,4772,15392,-254,102,-76
5863.488,303,303,299,305,240,4772,15392,-254,102,-76
5874.499,303,303,300,305,240,4772,15392,-254,102,-76
5874.499,303,303,301,305,240,4772,15392,-254,102,-76
5885.483,303,303,301,305,208,4648,15432,-216,157,-77
5889.161,303,303,300,304,208,4648,15432,-216,157,-77
5889.161,303,303,300,304,208,4648,15432,-216,157,-77
5897.836,304,303,300,305,208,4648,15432,-216,157,-77
5908.08,304,303,302,305,208,4648,15432,-216,157,-77
5916.08,304,304,302,305,208,4648,15432,-216,157,-77
5918.756,304,303,301,305,208,4648,15432,-216,157,-77
5918.756,305,303,302,305,360,5448,15888,227,337,-139
5929.984,305,303,301,305,360,5448,15888,227,337,-139
5929.984,305,302,301,304,360,5448,15888,227,337,-139
5940.964,305,301,300,304,360,5448,15888,227,337,-139
5948.974999999999,308,301,299,304,360,5448,15888,227,337,-139
5952.125,311,301,297,302,360,5448,15888,227,337,-139
5961.442,315,299,296,301,360,5448,15888,227,337,-139
5963.4929999999995,319,299,295,302,-164,5228,16284,510,1113,-377
5967.133,326,297,295,301,-164,5228,16284,510,1113,-377
5974.3060000000005,332,296,294,299,-164,5228,16284,510,1113,-377
5979.221,340,294,295,298,-164,5228,16284,510,1113,-377
5986.015,349,294,296,300,-164,5228,16284,510,1113,-377
5991.081999999999,357,292,297,299,-164,5228,16284,510,1113,-377
5996.557,366,290,298,300,-164,5228,16284,510,1113,-377
6003.482,377,289,301,301,488,6920,17180,1010,2303,-611
6007.967,390,287,301,301,488,6920,17180,1010,2303,-611
6012.330000000001,401,285,302,300,488,6920,17180,1010,2303,-611
6019.6230000000005,414,284,304,301,488,6920,17180,1010,2303,-611
6029.752,426,283,305,302,488,6920,17180,1010,2303,-611
6029.752,437,283,306,301,488,6920,17180,1010,2303,-611
6041.836,447,282,307,300,488,6920,17180,1010,2303,-611
6041.836,454,282,307,301,416,5740,17580,995,4252,-1263
6052.412,463,282,307,302,416,5740,17580,995,4252,-1263
6057.603,467,283,307,301,416,5740,17580,995,4252,-1263
6062.717000000001,470,284,307,302,416,5740,17580,995,4252,-1263
6062.717000000001,470,285,309,304,416,5740,17580,995,4252,-1263
6074.549,466,287,308,304,416,5740,17580,995,4252,-1263
6083.585,459,289,308,305,416,5740,17580,995,4252,-1263
6085.777,450,292,306,307,-136,7600,19188,3034,6926,-4231
6089.742,438,295,303,305,-136,7600,19188,3034,6926,-4231
6096.752,425,299,299,304,-136,7600,19188,3034,6926,-4231
6107.762,411,304,298,305,-136,7600,19188,3034,6926,-4231
6110.026000000001,399,311,295,305,-136,7600,19188,3034,6926,-4231
6120.342,385,318,294,307,-136,7600,19188,3034,6926,-4231
6120.342,375,328,296,312,-148,7916,20352,4463,10396,-5780
6130.649,368,354,304,317,-148,7916,20352,4463,10396,-5780
6130.649,370,408,298,322,-148,7916,20352,4463,10396,-5780
6141.449,378,495,271,328,-148,7916,20352,4463,10396,-5780
6148.227000000001,394,572,237,334,-148,7916,20352,4463,10396,-5780
6154.157999999999,424,651,233,341,-148,7916,20352,4463,10396,-5780
6159.672,455,702,243,351,-148,7916,20352,4463,10396,-5780
6163.8279999999995,485,728,246,361,-456,6096,19696,3572,13797,-6660
6174.409,518,737,253,373,-456,6096,19696,3572,13797,-6660
6182.66,546,732,262,382,-456,6096,19696,3572,13797,-6660
6185.593,569,720,278,391,-456,6096,19696,3572,13797,-6660
6193.314,585,706,297,396,-456,6096,19696,3572,13797,-6660
6196.621,595,693,312,400,-456,6096,19696,3572,13797,-6660
6204.776,595,687,321,405,-1112,9368,19172,6346,17165,-8268
6207.645,582,697,318,408,-1112,9368,19172,6346,17165,-8268
6216.856,566,701,310,410,-1112,9368,19172,6346,17165,-8268
6222.31,536,698,297,415,-1112,9368,19172,6346,17165,-8268
6231.035000000001,506,688,286,420,-1112,9368,19172,6346,17165,-8268
6239.585,474,675,276,424,-1112,9368,19172,6346,17165,-8268
6245.717,440,658,264,429,-1888,8288,15240,5354,19376,-11023
6252.028,409,643,255,434,-1888,8288,15240,5354,19376,-11023
6252.028,384,629,248,438,-1888,8288,15240,5354,19376,-11023
6263.650000000001,359,611,239,443,-1888,8288,15240,5354,19376,-11023
6272.5470000000005,330,596,231,451,-1888,8288,15240,5354,19376,-11023
6275.118,307,583,224,460,-1888,8288,15240,5354,19376,-11023
6282.3330000000005,285,567,217,472,-3292,7172,11952,5242,20494,-12486
6285.656,260,549,219,484,-3292,7172,11952,5242,20494,-12486
6296.745,241,531,227,494,-3292,7172,11952,5242,20494,-12486
6304.794,223,511,242,505,-3292,7172,11952,5242,20494,-12486
6307.976,202,490,263,515,-3292,7172,11952,5242,20494,-12486
6317.357,186,478,277,520,-3292,7172,11952,5242,20494,-12486
6319.381,171,459,296,527,-3292,7172,11952,5242,20494,-12486
6329.977000000001,161,440,303,535,-5928,4404,10304,2259,19731,-13174
6338.51,155,416,307,546,-5928,4404,10304,2259,19731,-13174
6341.148999999999,152,396,303,555,-5928,4404,10304,2259,19731,-13174
6350.234,148,368,294,569,-5928,4404,10304,2259,19731,-13174
6352.3189999999995,144,345,286,577,-5928,4404,10304,2259,19731,-13174
6360.307,139,312,277,588,-5928,4404,10304,2259,19731,-13174
6363.329000000001,131,280,266,595,-8432,2424,7996,883,17735,-13111
6374.939,115,245,251,601,-8432,2424,7996,883,17735,-13111
6382.990000000001,95,214,238,605,-8432,2424,7996,883,17735,-13111
6386.018,72,188,225,607,-8432,2424,7996,883,17735,-13111
6395.205,49,163,213,608,-8432,2424,7996,883,17735,-13111
6397.186,27,133,197,604,-8432,2424,7996,883,17735,-13111
6400.779,6,98,177,600,-10316,1772,6228,690,15695,-11450
6407.786,0,55,157,595,-10316,1772,6228,690,15695,-11450
6418.607,0,24,141,592,-10316,1772,6228,690,15695,-11450
6421.433999999999,0,0,126,589,-10316,1772,6228,690,15695,-11450
6431.1449999999995,0,0,115,584,-10316,1772,6228,690,15695,-11450
6431.1449999999995,0,0,109,580,-10316,1772,6228,690,15695,-11450
6438.1630000000005,0,0,103,575,-10316,1772,6228,690,15695,-11450
6441.35,0,0,99,571,-11772,1868,6360,384,14708,-10453
6452.081999999999,0,0,96,565,-11772,1868,6360,384,14708,-10453
6460.432,0,0,89,557,-11772,1868,6360,384,14708,-10453
6463.427000000001,0,0,78,547,-11772,1868,6360,384,14708,-10453
6466.974999999999,0,0,69,538,-11772,1868,6360,384,14708,-10453
6476.059,0,0,80,522,-11772,1868,6360,384,14708,-10453
6476.059,0,0,98,510,-11772,1868,6360,384,14708,-10453
6486.194,0,0,120,493,-13028,1396,4468,70,12574,-9428
6486.194,0,0,142,480,-13028,1396,4468,70,12574,-9428
6497.012,0,0,161,471,-13028,1396,4468,70,12574,-9428
6505.82,0,0,184,460,-13028,1396,4468,70,12574,-9428
6508.573,0,0,205,448,-13028,1396,4468,70,12574,-9428
6511.707,0,0,220,437,-13028,1396,4468,70,12574,-9428
6519.001,0,0,238,429,-13028,1396,4468,70,12574,-9428
6524.151,0,0,250,419,-14412,1252,4284,-404,10295,-7750
6529.826,0,0,263,405,-14412,1252,4284,-404,10295,-7750
6535.88,0,5,271,393,-14412,1252,4284,-404,10295,-7750
6540.94,2,14,284,383,-14412,1252,4284,-404,10295,-7750
6551.069,18,21,290,366,-14412,1252,4284,-404,10295,-7750
6552.548,35,27,298,350,-14412,1252,4284,-404,10295,-7750
6563.61,50,34,302,333,-14412,1252,4284,-404,10295,-7750
6563.61,62,44,308,315,-14716,392,2856,1063,8719,-6311
6574.4220000000005,75,60,315,294,-14716,392,2856,1063,8719,-6311
6583.71,82,72,319,276,-14716,392,2856,1063,8719,-6311
6586.215,92,89,327,260,-14716,392,2856,1063,8719,-6311
6588.897,99,108,331,243,-14716,392,2856,1063,8719,-6311
6596.555,104,129,337,229,-14716,392,2856,1063,8719,-6311
6602.407,112,151,342,215,-15084,-1516,1928,-814,6684,-4523
6607.51,127,178,348,199,-15084,-1516,1928,-814,6684,-4523
6619.076,138,198,353,186,-15084,-1516,1928,-814,6684,-4523
6621.782999999999,149,217,358,172,-15084,-1516,1928,-814,6684,-4523
6630.938999999999,162,238,364,153,-15084,-1516,1928,-814,6684,-4523
6634.188,175,255,367,137,-15084,-1516,1928,-814,6684,-4523
6640.973,189,268,370,123,-15084,-1516,1928,-814,6684,-4523
6647.897999999999,207,281,375,106,-15708,-536,1892,-340,4706,-3444
6652.189,223,294,377,90,-15708,-536,1892,-340,4706,-3444
6661.6140000000005,238,308,381,78,-15708,-536,1892,-340,4706,-3444
6665.078,254,321,382,67,-15708,-536,1892,-340,4706,-3444
6672.375,272,333,383,56,-15708,-536,1892,-340,4706,-3444
6674.464,288,344,382,45,-15708,-536,1892,-340,4706,-3444
6685.589,304,357,379,32,-15732,-1184,2708,429,2598,-2317
6694.706,320,373,381,26,-15732,-1184,2708,429,2598,-2317
6696.644,336,388,380,20,-15732,-1184,2708,429,2598,-2317
6699.804,349,401,380,15,-15732,-1184,2708,429,2598,-2317
6709.131,367,412,380,12,-15732,-1184,2708,429,2598,-2317
6717.324,383,420,378,9,-15732,-1184,2708,429,2598,-2317
6719.379,399,427,379,8,-15732,-1184,2708,429,2598,-2317
6730.3730000000005,418,434,377,6,-16052,-776,3232,1890,1604,-1223
6730.3730000000005,438,442,375,5,-16052,-776,3232,1890,1604,-1223
6741.494000000001,450,448,373,4,-16052,-776,3232,1890,1604,-1223
6745.148,466,457,368,2,-16052,-776,3232,1890,1604,-1223
6753.647,481,466,371,5,-16052,-776,3232,1890,1604,-1223
6753.647,495,475,370,4,-16052,-776,3232,1890,1604,-1223
6763.9259999999995,505,483,369,7,-16044,-312,4376,1402,400,195
6770.445,516,492,367,10,-16044,-312,4376,1402,400,195
6774.999,522,496,366,11,-16044,-312,4376,1402,400,195
6784.149,529,501,367,13,-16044,-312,4376,1402,400,195
6786.3730000000005,538,505,366,15,-16044,-312,4376,1402,400,195
6789.652,545,510,363,15,-16044,-312,4376,1402,400,195
6796.469,553,513,363,17,-16044,-312,4376,1402,400,195
6803.154,560,515,365,21,-16004,-456,3588,-1045,693,457
6807.835,569,515,363,24,-16004,-456,3588,-1045,693,457
6815.094,575,514,361,24,-16004,-456,3588,-1045,693,457
6819.253,581,513,359,28,-16004,-456,3588,-1045,693,457
6827.4980000000005,587,511,358,30,-16004,-456,3588,-1045,693,457
6829.879,595,509,357,35,-16004,-456,3588,-1045,693,457
6841.1,599,506,355,37,-16004,-456,3588,-1045,693,457
6841.1,601,502,353,39,-16132,-80,3564,-2422,311,1228
6852.237999999999,604,497,353,45,-16132,-80,3564,-2422,311,1228
6855.879,606,494,352,47,-16132,-80,3564,-2422,311,1228
6864.737,607,490,349,51,-16132,-80,3564,-2422,311,1228
6864.737,608,486,349,56,-16132,-80,3564,-2422,311,1228
6874.603999999999,609,483,346,60,-16132,-80,3564,-2422,311,1228
6881.069,608,479,345,63,-16132,-80,3564,-2422,311,1228
6885.576,608,476,346,69,-16100,792,4572,-1670,490,1439
6888.918000000001,606,473,346,73,-16100,792,4572,-1670,490,1439
6896.777,604,470,344,76,-16100,792,4572,-1670,490,1439
6906.037,603,467,344,83,-16100,792,4572,-1670,490,1439
6911.478,599,463,341,87,-16100,792,4572,-1670,490,1439
6918.591,597,460,341,91,-16100,792,4572,-1670,490,1439
6918.591,594,459,339,97,-16100,792,4572,-1670,490,1439
6929.978,590,458,338,102,-16084,1176,3624,112,248,1190
6933.418,586,456,339,107,-16084,1176,3624,112,248,1190
6933.418,580,454,337,111,-16084,1176,3624,112,248,1190
6942.148,574,451,335,115,-16084,1176,3624,112,248,1190
6952.393,569,451,336,121,-16084,1176,3624,112,248,1190
6961.424,564,450,335,125,-16084,1176,3624,112,248,1190
6963.295999999999,557,448,334,130,-16084,1176,3624,112,248,1190
6972.349,552,445,333,134,-16076,1540,3596,745,7,638
6974.612999999999,546,442,332,138,-16076,1540,3596,745,7,638
6979.391,542,441,332,142,-16076,1540,3596,745,7,638
6986.002,539,439,333,146,-16076,1540,3596,745,7,638
6991.023,535,436,334,151,-16076,1540,3596,745,7,638
6996.798,532,434,335,155,-16076,1540,3596,745,7,638
6999.071,527,428,335,158,-16076,1540,3596,745,7,638
7008.464,524,425,336,161,-16132,1376,3728,60,13,6
7008.464,522,420,335,166,-16132,1376,3728,60,13,6
7015.197999999999,520,417,334,169,-16132,1376,3728,60,13,6
7019.031,517,414,333,172,-16132,1376,3728,60,13,6
7030.577,514,409,333,175,-16132,1376,3728,60,13,6
7030.577,510,405,333,179,-16132,1376,3728,60,13,6
7041.147,507,400,331,181,-16132,1376,3728,60,13,6
7041.147,503,395,331,185,-16076,992,3444,-337,113,-444
7052.286,500,390,330,187,-16076,992,3444,-337,113,-444
7052.286,496,387,330,190,-16076,992,3444,-337,113,-444
7063.574,491,385,329,194,-16076,992,3444,-337,113,-444
7063.574,487,382,330,197,-16076,992,3444,-337,113,-444
7072.632,482,380,330,199,-16076,992,3444,-337,113,-444
7084.43,478,376,329,202,-16076,992,3444,-337,113,-444
7087.348999999999,473,373,329,205,-16192,1092,3620,-62,-461,-271
7095.73,466,371,326,207,-16192,1092,3620,-62,-461,-271
7100.476,463,369,327,211,-16192,1092,3620,-62,-461,-271
7108.063999999999,458,369,328,214,-16192,1092,3620,-62,-461,-271
7111.718,453,367,326,216,-16192,1092,3620,-62,-461,-271
7112.974,450,367,328,219,-16192,1092,3620,-62,-461,-271
7119.781,446,366,327,220,-16192,1092,3620,-62,-461,-271
7126.023,442,366,329,225,-16056,604,3824,16,-556,-41
7130.4169999999995,437,364,328,228,-16056,604,3824,16,-556,-41
7140.914000000001,435,363,327,228,-16056,604,3824,16,-556,-41
7140.914000000001,433,364,329,233,-16056,604,3824,16,-556,-41
7152.156,429,364,328,234,-16056,604,3824,16,-556,-41
7152.156,428,364,329,238,-16056,604,3824,16,-556,-41
7163.334,425,362,330,241,-16056,604,3824,16,-556,-41
7166.974,423,360,330,243,-16080,664,4072,698,-613,41
7166.974,422,357,330,246,-16080,664,4072,698,-613,41
7181.602,420,354,330,247,-16080,664,4072,698,-613,41
7185.718,419,351,330,249,-16080,664,4072,698,-613,41
7193.789,417,348,330,251,-16080,664,4072,698,-613,41
7196.4259999999995,417,345,330,253,-16080,664,4072,698,-613,41
7196.4259999999995,416,343,329,254,-16080,664,4072,698,-613,41
7208.567999999999,414,342,330,258,-16044,448,4160,296,-400,121
7212.702,412,340,331,260,-16044,448,4160,296,-400,121
7212.702,411,338,329,261,-16044,448,4160,296,-400,121
7219.9929999999995,408,335,330,261,-16044,448,4160,296,-400,121
7230.113,405,332,330,263,-16044,448,4160,296,-400,121
7239.384,401,331,330,266,-16044,448,4160,296,-400,121
7241.31,398,329,329,267,-16044,448,4160,296,-400,121
7251.201,393,329,328,269,-16044,412,4268,-44,-457,571
7252.213000000001,389,328,329,271,-16044,412,4268,-44,-457,571
7257.3910000000005,386,327,329,272,-16044,412,4268,-44,-457,571
7263.147,382,327,328,271,-16044,412,4268,-44,-457,571
7269.819,378,327,327,273,-16044,412,4268,-44,-457,571
7274.552,373,326,327,274,-16044,412,4268,-44,-457,571
7281.87,369,326,326,277,-16044,412,4268,-44,-457,571
7286.071,366,325,326,277,-15968,988,4296,328,-533,774
7289.991,363,327,324,276,-15968,988,4296,328,-533,774
7297.706,361,327,325,278,-15968,988,4296,328,-533,774
7308.755,357,327,324,279,-15968,988,4296,328,-533,774
7308.755,354,327,324,279,-15968,988,4296,328,-533,774
7314.622,352,326,321,278,-15968,988,4296,328,-533,774
7319.205,350,329,323,281,-15968,988,4296,328,-533,774
7327.152,347,328,322,281,-16096,1028,4176,-21,-408,930
7329.95,345,328,322,282,-16096,1028,4176,-21,-408,930
7341.094,343,327,322,283,-16096,1028,4176,-21,-408,930
7349.196,340,326,322,284,-16096,1028,4176,-21,-408,930
7352.514,339,325,321,284,-16096,1028,4176,-21,-408,930
7354.966,338,324,321,285,-16096,1028,4176,-21,-408,930
7364.526,335,323,321,286,-16096,1028,4176,-21,-408,930
7364.526,334,324,322,288,-15900,1388,4248,-27,-202,681
7374.645,332,323,321,287,-15900,1388,4248,-27,-202,681
7383.111000000001,332,324,321,289,-15900,1388,4248,-27,-202,681
7390.497,331,324,320,289,-15900,1388,4248,-27,-202,681
7394.577,330,325,321,290,-15900,1388,4248,-27,-202,681
7399.085999999999,330,324,321,290,-15900,1388,4248,-27,-202,681
7400.795999999999,329,323,320,292,-15900,1388,4248,-27,-202,681
7409.055,328,322,318,291,-15992,1316,4268,26,-4,384
7417.296,329,322,319,293,-15992,1316,4268,26,-4,384
7419.598,328,321,319,294,-15992,1316,4268,26,-4,384
7425.119,328,321,319,294,-15992,1316,4268,26,-4,384
7429.986000000001,328,321,319,295,-15992,1316,4268,26,-4,384
7437.8460000000005,327,321,319,296,-15992,1316,4268,26,-4,384
7441.735000000001,326,321,319,297,-15992,1316,4268,26,-4,384
7451.461,324,322,319,297,-15932,1348,4016,-147,-123,410
7453.741,323,322,319,297,-15932,1348,4016,-147,-123,410
7463.849,322,322,319,299,-15932,1348,4016,-147,-123,410
7463.849,320,321,320,300,-15932,1348,4016,-147,-123,410
7474.910000000001,319,320,318,299,-15932,1348,4016,-147,-123,410
7478.008,318,319,319,301,-15932,1348,4016,-147,-123,410
7489.031,317,318,319,302,-15932,1348,4016,-147,-123,410
7493.278,315,318,318,301,-15976,1280,4132,-142,-280,326
7498.657999999999,314,318,318,303,-15976,1280,4132,-142,-280,326
7503.051,313,318,319,304,-15976,1280,4132,-142,-280,326
7507.9580000000005,312,318,317,304,-15976,1280,4132,-142,-280,326
7517.416,311,319,317,305,-15976,1280,4132,-142,-280,326
7520.357,310,319,317,306,-15976,1280,4132,-142,-280,326
7530.1179999999995,307,319,317,306,-15980,1292,4012,-182,-130,168
7531.223,306,320,318,307,-15980,1292,4012,-182,-130,168
7540.913,305,319,318,308,-15980,1292,4012,-182,-130,168
7543.421,303,319,318,310,-15980,1292,4012,-182,-130,168
7552.008,301,318,317,310,-15980,1292,4012,-182,-130,168
7559.090999999999,301,319,317,311,-15980,1292,4012,-182,-130,168
7563.096,300,319,317,311,-15980,1292,4012,-182,-130,168
7569.110000000001,300,319,317,312,-16040,1300,4460,-21,-166,193
7573.9710000000005,299,319,317,313,-16040,1300,4460,-21,-166,193
7581.01,298,319,318,314,-16040,1300,4460,-21,-166,193
7585.54,297,319,316,315,-16040,1300,4460,-21,-166,193
7589.26,296,318,315,314,-16040,1300,4460,-21,-166,193
7597.259,297,318,315,315,-16040,1300,4460,-21,-166,193
7607.657999999999,296,319,317,317,-16040,1300,4460,-21,-166,193
7608.042,296,319,317,318,-15912,1308,4180,316,-337,118
7618.482,296,320,316,318,-15912,1308,4180,316,-337,118
7618.482,295,320,313,318,-15912,1308,4180,316,-337,118
7629.849,294,320,315,319,-15912,1308,4180,316,-337,118
7633.897,294,320,317,320,-15912,1308,4180,316,-337,118
7636.984,294,319,316,321,-15912,1308,4180,316,-337,118
7647.0830000000005,294,319,317,323,-15936,1420,4456,295,-323,107
7651.968,294,319,317,322,-15936,1420,4456,295,-323,107
7657.893,294,318,317,322,-15936,1420,4456,295,-323,107
7663.784,291,317,317,324,-15936,1420,4456,295,-323,107
7668.768,290,317,317,325,-15936,1420,4456,295,-323,107
7674.803,289,317,317,325,-15936,1420,4456,295,-323,107
7681.714,288,317,317,326,-15936,1420,4456,295,-323,107
7689.254,286,315,317,327,-15872,1680,4632,716,134,-253
7689.254,286,315,316,326,-15872,1680,4632,716,134,-253
7701.745,284,314,316,328,-15872,1680,4632,716,134,-253
7701.745,283,313,317,330,-15872,1680,4632,716,134,-253
7710.044,281,312,317,329,-15872,1680,4632,716,134,-253
7718.650000000001,281,311,317,330,-15872,1680,4632,716,134,-253
7720.244,280,310,316,330,-15872,1680,4632,716,134,-253
7730.7699999999995,280,309,317,332,-15952,1080,4376,679,429,-637
7730.7699999999995,279,308,316,332,-15952,1080,4376,679,429,-637
7741.254,278,309,315,332,-15952,1080,4376,679,429,-637
7744.639,275,308,315,333,-15952,1080,4376,679,429,-637
7752.056,274,308,313,333,-15952,1080,4376,679,429,-637
7756.188,272,306,311,332,-15952,1080,4376,679,429,-637
7763.179,272,306,311,333,-15952,1080,4376,679,429,-637
7769.46,272,306,311,334,-16040,936,4000,-44,437,-296
7774.621,272,306,310,332,-16040,936,4000,-44,437,-296
7783.906,272,307,310,333,-16040,936,4000,-44,437,-296
7785.802000000001,271,306,309,332,-16040,936,4000,-44,437,-296
7794.909,272,306,308,332,-16040,936,4000,-44,437,-296
7796.96,272,306,307,332,-16040,936,4000,-44,437,-296
7804.531,272,306,307,332,-16040,936,4000,-44,437,-296
7807.379,273,307,308,333,-15948,768,3920,-446,302,-130
7814.856,274,306,307,332,-15948,768,3920,-446,302,-130
7818.9580000000005,275,305,306,333,-15948,768,3920,-446,302,-130
7826.7,276,304,306,333,-15948,768,3920,-446,302,-130
7831.312,277,304,306,332,-15948,768,3920,-446,302,-130
7841.014,279,302,304,331,-15948,768,3920,-446,302,-130
7841.014,280,303,305,332,-15948,768,3920,-446,302,-130
7852.15,280,302,305,333,-15980,1044,3876,-103,59,-97
7852.15,283,302,304,332,-15980,1044,3876,-103,59,-97
7863.145,283,302,304,331,-15980,1044,3876,-103,59,-97
7867.392,285,302,304,332,-15980,1044,3876,-103,59,-97
7874.194,286,302,305,332,-15980,1044,3876,-103,59,-97
7879.711,288,302,305,332,-15980,1044,3876,-103,59,-97
7885.3910000000005,287,303,305,332,-15980,1044,3876,-103,59,-97
7887.789,288,303,305,332,-16036,1196,4076,87,-171,221
7897.057,289,303,304,332,-16036,1196,4076,87,-171,221
7906.081,289,304,304,332,-16036,1196,4076,87,-171,221
7908.362,290,305,304,331,-16036,1196,4076,87,-171,221
7912.111000000001,291,306,304,332,-16036,1196,4076,87,-171,221
7918.963,289,306,303,331,-16036,1196,4076,87,-171,221
7925.3330000000005,290,307,303,331,-16036,1196,4076,87,-171,221
7930.209,290,307,303,330,-15844,1224,4516,17,-51,152
7937.183,291,306,302,329,-15844,1224,4516,17,-51,152
7941.757,293,305,302,330,-15844,1224,4516,17,-51,152
7951.668,293,304,302,329,-15844,1224,4516,17,-51,152
7952.009,294,304,302,328,-15844,1224,4516,17,-51,152
7957.19,294,304,301,328,-15844,1224,4516,17,-51,152
7963.197,294,303,301,329,-15844,1224,4516,17,-51,152
7969.603,295,303,300,327,-15984,1252,4304,-425,143,126
7974.954000000001,296,302,300,328,-15984,1252,4304,-425,143,126
7981.772999999999,298,302,300,327,-15984,1252,4304,-425,143,126
7985.9400000000005,298,302,299,327,-15984,1252,4304,-425,143,126
7996.792,298,302,299,327,-15984,1252,4304,-425,143,126
8004.8820000000005,300,301,298,326,-15984,1252,4304,-425,143,126
8007.956,300,301,297,326,-16032,1200,4320,-436,180,52
8007.956,301,301,297,325,-16032,1200,4320,-436,180,52
8019.482,303,301,297,326,-16032,1200,4320,-436,180,52
8023.536,304,301,296,326,-16032,1200,4320,-436,180,52
8029.915000000001,304,300,294,324,-16032,1200,4320,-436,180,52
8031.239,305,300,294,324,-16032,1200,4320,-436,180,52
8040.817000000001,306,300,293,324,-16032,1200,4320,-436,180,52
8040.817000000001,306,299,294,324,-15872,1240,4116,159,58,-42
8052.481,306,299,294,323,-15872,1240,4116,159,58,-42
8052.481,307,299,294,323,-15872,1240,4116,159,58,-42
8063.304999999999,306,300,293,322,-15872,1240,4116,159,58,-42
8068.317,307,300,293,323,-15872,1240,4116,159,58,-42
8074.065,308,301,294,323,-15872,1240,4116,159,58,-42
8080.747,308,300,292,320,-15872,1240,4116,159,58,-42
8085.592000000001,308,300,294,322,-15872,1240,4116,159,58,-42
8088.8369999999995,307,300,293,322,-15916,1624,4172,541,5,-34
8097.400000000001,307,300,293,322,-15916,1624,4172,541,5,-34
8097.400000000001,307,300,294,323,-15916,1624,4172,541,5,-34
8108.216,306,301,295,324,-15916,1624,4172,541,5,-34
8113.320999999999,306,300,294,323,-15916,1624,4172,541,5,-34
8118.544999999999,306,300,294,323,-15916,1624,4172,541,5,-34
8128.403,305,300,293,323,-15916,1624,4172,541,5,-34
8131.031,305,300,293,324,-16028,1664,4444,725,112,-45
8139.401,305,300,294,322,-16028,1664,4444,725,112,-45
8141.75,306,300,294,324,-16028,1664,4444,725,112,-45
8146.741000000001,306,300,295,325,-16028,1664,4444,725,112,-45
8152.207,306,300,294,324,-16028,1664,4444,725,112,-45
8158.067000000001,304,299,293,323,-16028,1664,4444,725,112,-45
8163.295,304,298,293,322,-16028,1664,4444,725,112,-45
8170.118,304,298,294,323,-15920,1272,4168,207,200,-60
8174.943000000001,304,300,294,323,-15920,1272,4168,207,200,-60
8185.259,303,300,295,324,-15920,1272,4168,207,200,-60
8185.656,302,299,295,324,-15920,1272,4168,207,200,-60
8196.61,302,298,294,323,-15920,1272,4168,207,200,-60
8199.428,302,296,294,324,-15920,1272,4168,207,200,-60
8207.448,302,295,295,325,-15920,1272,4168,207,200,-60
8209.343,302,294,295,325,-15972,876,3792,-585,74,115
8215.69,301,293,295,324,-15972,876,3792,-585,74,115
8219.056999999999,301,294,296,324,-15972,876,3792,-585,74,115
8229.925,299,294,296,325,-15972,876,3792,-585,74,115
8229.925,299,293,296,325,-15972,876,3792,-585,74,115
8241.066,300,293,296,324,-15972,876,3792,-585,74,115
8243.608,299,293,296,324,-15972,876,3792,-585,74,115
8252.768,301,294,296,325,-16092,1228,4052,-419,-127,360
8255.931999999999,301,295,297,324,-16092,1228,4052,-419,-127,360
8263.033,300,295,298,326,-16092,1228,4052,-419,-127,360
8263.033,300,295,297,325,-16092,1228,4052,-419,-127,360
8274.445,300,296,297,325,-16092,1228,4052,-419,-127,360
8283.557999999999,301,296,298,326,-16092,1228,4052,-419,-127,360
8285.668,300,298,299,326,-16092,1228,4052,-419,-127,360
8294.759,301,300,299,327,-15960,1656,4472,4,-317,298
8297.171,301,301,300,327,-15960,1656,4472,4,-317,298
8307.872,300,301,299,326,-15960,1656,4472,4,-317,298
8307.872,300,303,300,327,-15960,1656,4472,4,-317,298
8314.698999999999,299,304,300,327,-15960,1656,4472,4,-317,298
8318.939,299,304,300,327,-15960,1656,4472,4,-317,298
8326.271,301,304,300,328,-15960,1656,4472,4,-317,298
8330.17,300,304,300,328,-15904,1784,4596,-6,-46,-64
8335.494,301,304,300,327,-15904,1784,4596,-6,-46,-64
8342.124,300,305,300,327,-15904,1784,4596,-6,-46,-64
8352.686,299,305,300,327,-15904,1784,4596,-6,-46,-64
8352.686,299,304,299,327,-15904,1784,4596,-6,-46,-64
8358.979,299,305,300,327,-15904,1784,4596,-6,-46,-64
8363.780999999999,299,304,300,327,-15904,1784,4596,-6,-46,-64
8371.526,300,304,299,326,-15952,1612,4508,-255,214,-346
8374.617,300,304,299,326,-15952,1612,4508,-255,214,-346
8385.725,300,303,300,326,-15952,1612,4508,-255,214,-346
8393.815999999999,299,302,299,326,-15952,1612,4508,-255,214,-346
8396.713,300,302,298,326,-15952,1612,4508,-255,214,-346
8396.713,300,302,298,325,-15952,1612,4508,-255,214,-346
8408.262999999999,300,301,297,325,-16008,1212,4216,-668,204,-378
8408.262999999999,302,300,297,324,-16008,1212,4216,-668,204,-378
8418.719,302,300,297,324,-16008,1212,4216,-668,204,-378
8425.546,303,301,297,325,-16008,1212,4216,-668,204,-378
8430.035,302,301,297,324,-16008,1212,4216,-668,204,-378
8437.377,302,300,296,322,-16008,1212,4216,-668,204,-378
8441.167,301,299,297,323,-16008,1212,4216,-668,204,-378
8449.032000000001,300,299,296,322,-16056,1068,4084,-562,143,-125
8458.875,302,299,295,322,-16056,1068,4084,-562,143,-125
8463.388,300,299,295,323,-16056,1068,4084,-562,143,-125
8471.691,300,299,296,322,-16056,1068,4084,-562,143,-125
8475.853000000001,302,300,295,322,-16056,1068,4084,-562,143,-125
8483.536,301,301,295,322,-16056,1068,4084,-562,143,-125
8485.947,301,300,295,322,-16056,1068,4084,-562,143,-125
8485.947,301,300,295,322,-15964,1184,4224,204,-98,46
8496.698,302,300,295,321,-15964,1184,4224,204,-98,46
8502.494999999999,301,299,296,320,-15964,1184,4224,204,-98,46
8507.272,303,299,295,320,-15964,1184,4224,204,-98,46
8514.797,303,300,295,320,-15964,1184,4224,204,-98,46
8518.826000000001,303,300,295,321,-15964,1184,4224,204,-98,46
8522.983999999999,303,300,295,321,-15964,1184,4224,204,-98,46
8530.856,303,301,296,321,-16036,1300,4124,109,-123,62
8541.396,304,301,295,321,-16036,1300,4124,109,-123,62
8541.396,304,301,296,321,-16036,1300,4124,109,-123,62
8547.354000000001,303,300,296,322,-16036,1300,4124,109,-123,62
8553.494999999999,303,300,296,321,-16036,1300,4124,109,-123,62
8559.386999999999,304,300,296,320,-16036,1300,4124,109,-123,62
8564.011,303,300,297,320,-16036,1300,4124,109,-123,62
8572.418000000001,303,300,297,321,-15968,1416,4244,21,64,44
8574.603,303,300,298,321,-15968,1416,4244,21,64,44
8581.375,304,300,298,321,-15968,1416,4244,21,64,44
8585.985,304,300,297,321,-15968,1416,4244,21,64,44
8595.107,304,300,297,321,-15968,1416,4244,21,64,44
8596.970000000001,304,300,298,321,-15968,1416,4244,21,64,44
8601.87,304,300,297,321,-15968,1416,4244,21,64,44
8608.57,304,300,297,321,-15952,1308,4152,-180,-1,75
8608.57,304,300,297,321,-15952,1308,4152,-180,-1,75
8619.510999999999,304,300,297,321,-15952,1308,4152,-180,-1,75
8625.364,304,300,298,321,-15952,1308,4152,-180,-1,75
8630.193000000001,304,300,297,320,-15952,1308,4152,-180,-1,75
8637.663999999999,305,300,297,321,-15952,1308,4152,-180,-1,75
8641.310000000001,304,300,297,320,-15952,1308,4152,-180,-1,75
8646.243999999999,305,301,298,321,-16000,1404,4176,-264,-57,95
8653.455,305,301,297,320,-16000,1404,4176,-264,-57,95
8663.596,305,301,297,319,-16000,1404,4176,-264,-57,95
8663.596,305,301,296,320,-16000,1404,4176,-264,-57,95
8671.407000000001,306,300,295,319,-16000,1404,4176,-264,-57,95
8674.596,306,300,296,319,-16000,1404,4176,-264,-57,95
8685.166000000001,306,299,296,319,-16000,1404,4176,-264,-57,95
8685.534,306,300,296,319,-15956,1404,4160,58,-35,16
8697.131000000001,307,300,295,318,-15956,1404,4160,58,-35,16
8697.131000000001,307,300,295,317,-15956,1404,4160,58,-35,16
8709.319000000001,307,300,295,317,-15956,1404,4160,58,-35,16
8710.438999999998,307,300,294,316,-15956,1404,4160,58,-35,16
8718.439,308,300,294,316,-15956,1404,4160,58,-35,16
8720.303,309,300,294,315,-15956,1404,4160,58,-35,16
8729.939,309,300,293,314,-15956,1404,4160,58,-35,16
8729.939,311,300,292,313,-15992,1324,4160,123,31,-70
8740.985999999999,311,300,291,311,-15992,1324,4160,123,31,-70
8740.985999999999,312,300,290,312,-15992,1324,4160,123,31,-70
8750.655999999999,313,300,291,311,-15992,1324,4160,123,31,-70
8753.791,315,300,289,310,-15992,1324,4160,123,31,-70
8760.669,315,299,289,308,-15992,1324,4160,123,31,-70
8763.360999999999,316,300,288,309,-15992,1324,4160,123,31,-70
8774.302,316,300,289,308,-15992,1480,4240,-13,-10,6
8774.302,317,300,288,307,-15992,1480,4240,-13,-10,6
8785.714,317,300,287,307,-15992,1480,4240,-13,-10,6
8785.714,317,299,286,306,-15992,1480,4240,-13,-10,6
8793.819,317,299,286,305,-15992,1480,4240,-13,-10,6
8796.569,317,299,286,304,-15992,1480,4240,-13,-10,6
8807.651,318,299,287,306,-15992,1480,4240,-13,-10,6
8807.651,318,298,286,306,-15908,1328,4076,28,14,-34
8818.742,317,298,286,305,-15908,1328,4076,28,14,-34
8821.829,317,298,287,305,-15908,1328,4076,28,14,-34
8821.829,317,298,288,305,-15908,1328,4076,28,14,-34
8831.14,317,299,288,305,-15908,1328,4076,28,14,-34
8838.516,317,298,287,304,-15908,1328,4076,28,14,-34
8841.337,317,298,288,306,-15908,1328,4076,28,14,-34
8852.546999999999,316,298,288,306,-16016,1456,4128,-28,-15,-26
8857.069,316,299,289,306,-16016,1456,4128,-28,-15,-26
8864.734,316,298,290,307,-16016,1456,4128,-28,-15,-26
8869.163,315,298,291,308,-16016,1456,4128,-28,-15,-26
8876.796,314,299,291,308,-16016,1456,4128,-28,-15,-26
8880.864000000001,314,298,291,307,-16016,1456,4128,-28,-15,-26
8886.155,315,298,293,309,-16016,1456,4128,-28,-15,-26
8886.155,314,299,294,310,-15928,1176,4116,-95,95,-48
8897.121000000001,314,299,294,310,-15928,1176,4116,-95,95,-48
8897.121000000001,312,299,295,311,-15928,1176,4116,-95,95,-48
8908.626999999999,310,299,295,310,-15928,1176,4116,-95,95,-48
8908.626999999999,310,299,297,312,-15928,1176,4116,-95,95,-48
8920.579,310,299,297,312,-15928,1176,4116,-95,95,-48
8920.579,310,299,298,314,-15928,1176,4116,-95,95,-48
8929.880000000001,308,300,299,314,-15988,1416,4184,124,43,25
8929.880000000001,308,300,299,314,-15988,1416,4184,124,43,25
8941.19,307,301,299,315,-15988,1416,4184,124,43,25
8941.19,306,301,300,316,-15988,1416,4184,124,43,25
8953.575,305,301,301,317,-15988,1416,4184,124,43,25
8956.967,305,302,302,318,-15988,1416,4184,124,43,25
8962.958,304,302,303,318,-15988,1416,4184,124,43,25
8962.958,303,302,303,319,-15988,1416,4184,124,43,25
8974.108,302,302,304,319,-15988,1304,4048,126,49,30
8974.108,302,303,305,320,-15988,1304,4048,126,49,30
8985.497000000001,300,302,306,320,-15988,1304,4048,126,49,30
8990.162,299,303,307,321,-15988,1304,4048,126,49,30
8996.046,299,303,306,321,-15988,1304,4048,126,49,30
8996.046,298,303,307,322,-15988,1304,4048,126,49,30
9007.531,297,303,307,323,-15988,1304,4048,126,49,30
9016.586,296,304,308,323,-16016,1316,3960,-49,-153,170
9019.241,295,305,308,323,-16016,1316,3960,-49,-153,170
9022.498000000001,295,305,310,324,-16016,1316,3960,-49,-153,170
9030.408,293,305,309,324,-16016,1316,3960,-49,-153,170
9034.98,293,306,309,325,-16016,1316,3960,-49,-153,170
9040.974,292,306,311,326,-16016,1316,3960,-49,-153,170
9046.493,291,306,311,327,-16016,1316,3960,-49,-153,170
9053.679,292,307,310,326,-16004,1456,4424,-54,-170,118
9058.981,291,307,310,326,-16004,1456,4424,-54,-170,118
9063.991,291,307,311,327,-16004,1456,4424,-54,-170,118
9071.225999999999,290,307,311,327,-16004,1456,4424,-54,-170,118
9074.817,291,307,311,327,-16004,1456,4424,-54,-170,118
9085.253,291,307,311,326,-16004,1456,4424,-54,-170,118
9087.478000000001,291,307,311,327,-15864,1712,4360,95,13,-88
9097.085,291,307,311,327,-15864,1712,4360,95,13,-88
9099.697,292,307,310,326,-15864,1712,4360,95,13,-88
9099.697,291,308,311,328,-15864,1712,4360,95,13,-88
9107.872000000001,292,308,310,328,-15864,1712,4360,95,13,-88
9118.995,291,308,310,328,-15864,1712,4360,95,13,-88
9118.995,291,307,310,327,-15864,1712,4360,95,13,-88
9129.964,291,308,310,328,-15864,1712,4360,95,13,-88
9129.964,292,308,310,328,-15964,1680,4096,83,-25,-120
9137.833,293,308,309,328,-15964,1680,4096,83,-25,-120
9141.064999999999,292,308,309,329,-15964,1680,4096,83,-25,-120
9152.25,291,307,309,328,-15964,1680,4096,83,-25,-120
9153.764000000001,291,307,308,327,-15964,1680,4096,83,-25,-120
9163.856,291,307,308,328,-15964,1680,4096,83,-25,-120
9163.856,291,307,308,328,-15964,1680,4096,83,-25,-120
9174.694000000001,290,306,308,327,-16016,1452,4264,10,241,-187
9174.694000000001,291,306,307,326,-16016,1452,4264,10,241,-187
9185.576,291,306,306,326,-16016,1452,4264,10,241,-187
9190.480000000001,291,305,307,327,-16016,1452,4264,10,241,-187
9196.39,290,305,307,326,-16016,1452,4264,10,241,-187
9202.89,290,305,307,326,-16016,1452,4264,10,241,-187
9207.765,290,306,306,326,-16016,1452,4264,10,241,-187
9211.203,290,306,306,326,-16080,1300,4120,-258,91,-40
9220.181,290,306,305,325,-16080,1300,4120,-258,91,-40
9228.249,290,305,306,326,-16080,1300,4120,-258,91,-40
9230.760999999999,290,305,305,324,-16080,1300,4120,-258,91,-40
9235.647,290,304,305,324,-16080,1300,4120,-258,91,-40
9241.192,290,305,305,325,-16080,1300,4120,-258,91,-40
9247.894,290,305,306,325,-16080,1300,4120,-258,91,-40
9253.846,290,305,305,324,-15992,1288,4112,-202,108,-37
9260.036,290,305,304,323,-15992,1288,4112,-202,108,-37
9263.474,290,305,305,324,-15992,1288,4112,-202,108,-37
9274.282,291,305,304,323,-15992,1288,4112,-202,108,-37
9276.287999999999,291,305,303,323,-15992,1288,4112,-202,108,-37
9286.396999999999,291,305,303,323,-15992,1288,4112,-202,108,-37
9286.396999999999,291,306,304,324,-15976,1360,3940,5,-9,-12
9292.921,292,305,303,322,-15976,1360,3940,5,-9,-12
9297.515000000001,292,305,304,323,-15976,1360,3940,5,-9,-12
9305.926,292,303,303,320,-15976,1360,3940,5,-9,-12
9307.866,293,303,303,321,-15976,1360,3940,5,-9,-12
9319.044999999998,293,304,303,322,-15976,1360,3940,5,-9,-12
9319.044999999998,294,303,304,322,-15976,1360,3940,5,-9,-12
9325.176000000001,294,304,303,322,-15976,1360,3940,5,-9,-12
9330.235999999999,295,305,304,323,-16060,1212,4284,-165,-29,71
9337.354,295,305,303,322,-16060,1212,4284,-165,-29,71
9341.586,295,304,303,321,-16060,1212,4284,-165,-29,71
9352.543000000001,295,305,302,321,-16060,1212,4284,-165,-29,71
9354.048999999999,296,305,302,321,-16060,1212,4284,-165,-29,71
9364.023,296,304,302,321,-16060,1212,4284,-165,-29,71
9364.023,296,304,302,321,-16060,1212,4284,-165,-29,71
9374.902,297,304,302,320,-15948,1356,4012,16,-102,82
9378.097,298,304,302,320,-15948,1356,4012,16,-102,82
9385.384,297,304,302,320,-15948,1356,4012,16,-102,82
9385.384,297,304,302,321,-15948,1356,4012,16,-102,82
9397.06,298,305,302,321,-15948,1356,4012,16,-102,82
9397.06,298,304,302,320,-15948,1356,4012,16,-102,82
9408.02,298,305,302,321,-15948,1356,4012,16,-102,82
9408.02,298,305,302,321,-16056,1576,4292,18,-4,20
9416.615,298,306,302,319,-16056,1576,4292,18,-4,20
9418.786,298,306,302,320,-16056,1576,4292,18,-4,20
9429.934,297,306,302,320,-16056,1576,4292,18,-4,20
9431.699999999999,297,307,302,320,-16056,1576,4292,18,-4,20
9441.888,298,307,302,320,-16056,1576,4292,18,-4,20
9441.888,297,306,302,320,-16056,1576,4292,18,-4,20
9450.496,297,305,302,320,-15872,1408,4532,62,-35,-81
9454.222,297,305,302,318,-15872,1408,4532,62,-35,-81
9463.115,297,305,302,319,-15872,1408,4532,62,-35,-81
9463.115,297,306,303,320,-15872,1408,4532,62,-35,-81
9474.078000000001,297,306,303,319,-15872,1408,4532,62,-35,-81
9474.078000000001,297,307,303,319,-15872,1408,4532,62,-35,-81
9486.005000000001,298,306,304,320,-15872,1408,4532,62,-35,-81
9489.445,298,306,304,320,-15872,1408,4532,62,-35,-81
9489.445,299,306,304,319,-15932,1436,4260,122,76,-138
9496.978000000001,298,306,303,320,-15932,1436,4260,122,76,-138
9507.61,298,306,303,320,-15932,1436,4260,122,76,-138
9516.002,298,307,302,320,-15932,1436,4260,122,76,-138
9519.128,299,308,302,319,-15932,1436,4260,122,76,-138
9522.809000000001,300,307,302,320,-15932,1436,4260,122,76,-138
9531.801,300,307,301,319,-15988,1312,4188,109,86,-50
9531.801,301,307,301,319,-15988,1312,4188,109,86,-50
9542.24,299,307,301,319,-15988,1312,4188,109,86,-50
9547.256000000001,300,306,301,319,-15988,1312,4188,109,86,-50
9552.165,301,305,300,318,-15988,1312,4188,109,86,-50
9561.969,301,305,300,318,-15988,1312,4188,109,86,-50
9564.007,301,304,300,318,-15988,1312,4188,109,86,-50
9564.007,301,304,298,317,-15988,1312,4188,109,86,-50
9574.454,303,304,298,318,-15964,1316,4120,20,196,15
9580.3,302,304,298,317,-15964,1316,4120,20,196,15
9585.183,302,305,298,317,-15964,1316,4120,20,196,15
9591.223,302,304,298,317,-15964,1316,4120,20,196,15
9596.464,302,303,297,316,-15964,1316,4120,20,196,15
9599.617,303,304,297,316,-15964,1316,4120,20,196,15
9609.056,303,303,298,316,-15964,1316,4120,20,196,15
9609.056,302,302,297,315,-15920,1296,4136,-41,156,-36
9619.065,303,302,297,315,-15920,1296,4136,-41,156,-36
9627.458,303,302,296,315,-15920,1296,4136,-41,156,-36
9630.011,303,303,297,316,-15920,1296,4136,-41,156,-36
9639.135,303,303,296,315,-15920,1296,4136,-41,156,-36
9640.82,304,303,296,315,-15920,1296,4136,-41,156,-36
9645.437,303,302,296,315,-15920,1296,4136,-41,156,-36
9654.503999999999,304,303,296,315,-15984,1536,4164,136,148,26
9654.503999999999,305,302,295,314,-15984,1536,4164,136,148,26
9663.42,305,302,296,314,-15984,1536,4164,136,148,26
9669.85,304,302,296,314,-15984,1536,4164,136,148,26
9674.677000000001,304,302,295,313,-15984,1536,4164,136,148,26
9682.31,304,302,295,313,-15984,1536,4164,136,148,26
9685.446,304,301,295,314,-15984,1536,4164,136,148,26
9690.435000000001,305,302,295,313,-16004,1256,3936,-77,94,28
9697.794,304,301,294,311,-16004,1256,3936,-77,94,28
9697.794,305,301,295,313,-16004,1256,3936,-77,94,28
9707.959,304,301,296,313,-16004,1256,3936,-77,94,28
9715.533000000001,305,302,296,312,-16004,1256,3936,-77,94,28
9718.68,304,302,296,312,-16004,1256,3936,-77,94,28
9727.976,304,302,296,313,-16004,1256,3936,-77,94,28
9733.631000000001,304,301,296,313,-16060,1316,3972,-153,-34,126
9740.895,304,301,296,312,-16060,1316,3972,-153,-34,126
9740.895,304,300,296,312,-16060,1316,3972,-153,-34,126
9752.136999999999,304,300,297,313,-16060,1316,3972,-153,-34,126
9755.635,304,302,297,313,-16060,1316,3972,-153,-34,126
9755.635,304,301,298,312,-16060,1316,3972,-153,-34,126
9763.969,304,301,297,312,-16060,1316,3972,-153,-34,126
9774.649,305,301,297,312,-15908,1608,4296,13,-30,57
9782.65,306,301,298,312,-15908,1608,4296,13,-30,57
9785.584,305,301,298,312,-15908,1608,4296,13,-30,57
9785.584,305,302,298,312,-15908,1608,4296,13,-30,57
9797.389000000001,305,303,298,312,-15908,1608,4296,13,-30,57
9797.389000000001,306,303,298,312,-15908,1608,4296,13,-30,57
9807.362,305,304,298,313,-15908,1608,4296,13,-30,57
9807.737,305,304,299,312,-16016,1540,4072,60,-62,-53
9818.955,305,304,298,312,-16016,1540,4072,60,-62,-53
9818.955,306,303,298,311,-16016,1540,4072,60,-62,-53
9831.966,305,303,299,312,-16016,1540,4072,60,-62,-53
9835.536,306,303,299,312,-16016,1540,4072,60,-62,-53
9844.069,305,304,298,311,-16016,1540,4072,60,-62,-53
9848.155,305,303,299,312,-16016,1540,4072,60,-62,-53
9852.315,305,303,299,312,-15960,1484,4200,-44,-26,10
9854.851999999999,305,303,299,311,-15960,1484,4200,-44,-26,10
9864.003,305,303,298,312,-15960,1484,4200,-44,-26,10
9864.003,306,303,298,312,-15960,1484,4200,-44,-26,10
9874.574,306,303,299,311,-15960,1484,4200,-44,-26,10
9874.574,306,303,299,311,-15960,1484,4200,-44,-26,10
9885.33,306,304,299,312,-15960,1484,4200,-44,-26,10
9890.886999999999,305,304,299,312,-16004,1416,4364,-97,-25,-55
9896.328000000001,306,304,299,312,-16004,1416,4364,-97,-25,-55
9898.76,306,303,299,311,-16004,1416,4364,-97,-25,-55
9908.644,307,303,299,312,-16004,1416,4364,-97,-25,-55
9917.038,307,303,298,311,-16004,1416,4364,-97,-25,-55
9919.449,307,303,298,311,-16004,1416,4364,-97,-25,-55
9919.449,306,303,299,312,-16004,1416,4364,-97,-25,-55
9930.094000000001,305,303,298,312,-16000,1360,4108,-17,35,-41
9936.686,306,303,299,311,-16000,1360,4108,-17,35,-41
9940.997,305,303,300,312,-16000,1360,4108,-17,35,-41
9948.247,305,303,300,312,-16000,1360,4108,-17,35,-41
9953.146999999999,304,303,300,312,-16000,1360,4108,-17,35,-41
9957.020999999999,304,303,299,311,-16000,1360,4108,-17,35,-41
9963.666,304,303,300,312,-16000,1360,4108,-17,35,-41
9968.764000000001,303,303,300,313,-16000,1360,4108,-17,35,-41
9974.258000000002,303,303,300,312,-15984,1336,3996,-122,-73,-26
9980.649,303,303,300,312,-15984,1336,3996,-122,-73,-26
9985.695,302,304,300,313,-15984,1336,3996,-122,-73,-26
9992.928,302,305,300,312,-15984,1336,3996,-122,-73,-26
9996.839,302,304,300,312,-15984,1336,3996,-122,-73,-26
10007.771999999999,302,304,301,313,-15984,1336,3996,-122,-73,-26
10015.815,302,304,302,313,-15936,1344,3992,-172,58,-32
10018.584,302,304,302,312,-15936,1344,3992,-172,58,-32
10018.584,301,304,301,313,-15936,1344,3992,-172,58,-32
10030.146999999999,301,304,303,314,-15936,1344,3992,-172,58,-32
10034.237,301,303,303,314,-15936,1344,3992,-172,58,-32
10034.237,302,303,302,314,-15936,1344,3992,-172,58,-32
10041.565,302,303,302,313,-15936,1344,3992,-172,58,-32
10052.536,302,303,303,314,-15960,1420,4144,3,-16,55
10055.049,302,304,303,314,-15960,1420,4144,3,-16,55
10063.92,302,304,303,314,-15960,1420,4144,3,-16,55
10063.92,302,304,303,314,-15960,1420,4144,3,-16,55
10074.687000000002,302,304,303,314,-15960,1420,4144,3,-16,55
10074.687000000002,303,304,303,314,-15960,1420,4144,3,-16,55
10084.793,304,304,303,314,-15960,1420,4144,3,-16,55
10087.090999999999,303,304,303,314,-15960,1420,4144,3,-16,55
10097.728,304,304,303,314,-15980,1492,4276,42,99,-62
10097.728,303,304,302,313,-15980,1492,4276,42,99,-62
10108.482,303,304,303,313,-15980,1492,4276,42,99,-62
10111.963,303,304,303,314,-15980,1492,4276,42,99,-62
10118.445,303,304,302,313,-15980,1492,4276,42,99,-62
10118.445,304,304,301,313,-15980,1492,4276,42,99,-62
10129.579,304,304,301,313,-15980,1492,4276,42,99,-62
10129.579,304,304,301,313,-16044,1456,4156,9,-26,1
10136.812000000002,304,305,300,311,-16044,1456,4156,9,-26,1
10141.498,304,305,300,312,-16044,1456,4156,9,-26,1
10149.206,304,305,299,311,-16044,1456,4156,9,-26,1
10155.208,304,305,299,312,-16044,1456,4156,9,-26,1
10163.156,305,305,300,312,-16044,1456,4156,9,-26,1
10163.156,306,305,300,311,-16044,1456,4156,9,-26,1
10169.863,306,305,299,311,-16044,1456,4156,9,-26,1
10174.652,306,305,299,311,-15968,1324,4124,-93,-53,140
10181.595,306,305,299,311,-15968,1324,4124,-93,-53,140
10186.439,305,305,298,311,-15968,1324,4124,-93,-53,140
10189.280999999999,305,305,297,310,-15968,1324,4124,-93,-53,140
10196.954,306,304,297,309,-15968,1324,4124,-93,-53,140
10208.059000000001,307,305,298,310,-15968,1324,4124,-93,-53,140
10208.059000000001,306,305,298,310,-15968,1324,4124,-93,-53,140
10214.415,306,305,298,309,-15972,1432,4124,-3,3,67
10219.103000000001,306,304,298,309,-15972,1432,4124,-3,3,67
10226.52,305,304,298,309,-15972,1432,4124,-3,3,67
10229.957,306,304,298,308,-15972,1432,4124,-3,3,67
10235.045,306,304,298,308,-15972,1432,4124,-3,3,67
10241.293000000001,306,304,297,307,-15972,1432,4124,-3,3,67
10248.378,305,304,297,309,-15972,1432,4124,-3,3,67
10253.696,306,304,297,308,-15908,1444,4048,-11,39,27
10255.253,306,304,297,307,-15908,1444,4048,-11,39,27
10264.427,306,305,296,308,-15908,1444,4048,-11,39,27
10264.427,305,305,296,306,-15908,1444,4048,-11,39,27
10274.843,306,305,296,307,-15908,1444,4048,-11,39,27
10280.75,306,306,296,307,-15908,1444,4048,-11,39,27
10285.74,305,306,296,308,-15908,1444,4048,-11,39,27
10287.946,304,305,297,308,-15908,1444,4048,-11,39,27
10297.518,305,306,296,307,-16072,1476,4220,18,-49,110
10306.176000000001,305,306,296,308,-16072,1476,4220,18,-49,110
10308.151,304,306,296,307,-16072,1476,4220,18,-49,110
10313.314999999999,303,307,296,307,-16072,1476,4220,18,-49,110
10318.216,303,306,296,306,-16072,1476,4220,18,-49,110
10326.324,303,306,297,308,-16072,1476,4220,18,-49,110
10330.015,302,306,296,307,-16072,1476,4220,18,-49,110
10333.458999999999,303,306,297,307,-15944,1496,4148,21,0,-53
10342.087,302,304,297,306,-15944,1496,4148,21,0,-53
10342.087,302,304,297,307,-15944,1496,4148,21,0,-53
10355.333999999999,302,304,298,307,-15944,1496,4148,21,0,-53
10355.333999999999,302,304,298,307,-15944,1496,4148,21,0,-53
10362.911,301,304,298,307,-15944,1496,4148,21,0,-53
10365.443000000001,301,304,298,307,-15944,1496,4148,21,0,-53
10375.484,301,304,298,307,-16152,1480,4212,-84,209,-101
10375.484,302,303,299,307,-16152,1480,4212,-84,209,-101
10385.821,302,304,299,308,-16152,1480,4212,-84,209,-101
10390.841,301,304,299,308,-16152,1480,4212,-84,209,-101
10396.406,301,304,297,307,-16152,1480,4212,-84,209,-101
10403.745,300,304,299,308,-16152,1480,4212,-84,209,-101
10407.947999999999,300,304,299,309,-16152,1480,4212,-84,209,-101
10415.219000000001,300,304,299,308,-15940,1352,3996,29,10,80
10419.877,299,304,298,308,-15940,1352,3996,29,10,80
10422.699,300,305,299,309,-15940,1352,3996,29,10,80
10430.478000000001,299,305,298,307,-15940,1352,3996,29,10,80
10435.803,300,305,298,308,-15940,1352,3996,29,10,80
10440.789999999999,299,306,298,309,-15940,1352,3996,29,10,80
10447.363,299,307,298,309,-15940,1352,3996,29,10,80
10452.947,300,307,298,309,-16052,1352,4108,-123,-63,149
10455.565999999999,300,307,298,309,-16052,1352,4108,-123,-63,149
10464.068,300,306,298,309,-16052,1352,4108,-123,-63,149
10474.856000000002,301,306,298,309,-16052,1352,4108,-123,-63,149
10474.917,301,306,298,309,-16052,1352,4108,-123,-63,149
10485.564999999999,301,306,298,309,-16052,1352,4108,-123,-63,149
10485.564999999999,301,305,298,309,-16052,1352,4108,-123,-63,149
10493.455000000002,301,305,298,309,-16000,1496,3996,84,7,85
10496.612000000001,301,304,298,309,-16000,1496,3996,84,7,85
10507.688999999998,301,304,298,308,-16000,1496,3996,84,7,85
10507.688999999998,301,303,298,309,-16000,1496,3996,84,7,85
10514.633,302,303,297,308,-16000,1496,3996,84,7,85
10518.779999999999,302,303,297,308,-16000,1496,3996,84,7,85
10525.838,301,303,298,308,-16000,1496,3996,84,7,85
10530.613000000001,301,303,297,308,-16000,1496,3996,84,7,85
10533.314,301,302,296,309,-16076,1448,4036,96,34,105
10542.234,301,303,297,309,-16076,1448,4036,96,34,105
10542.234,301,303,297,309,-16076,1448,4036,96,34,105
10555.375,302,303,297,309,-16076,1448,4036,96,34,105
10558.393,302,303,296,308,-16076,1448,4036,96,34,105
10563.498,303,303,296,309,-16076,1448,4036,96,34,105
10573.167,302,304,297,309,-16076,1448,4036,96,34,105
10575.077000000001,302,304,297,308,-15968,1584,3976,32,-8,166
10575.077000000001,303,305,297,309,-15968,1584,3976,32,-8,166
10585.514,303,304,297,310,-15968,1584,3976,32,-8,166
10591.643,303,304,297,310,-15968,1584,3976,32,-8,166
10596.373,304,305,296,308,-15968,1584,3976,32,-8,166
10599.159,304,306,297,309,-15968,1584,3976,32,-8,166
10608.455,304,306,297,309,-15968,1584,3976,32,-8,166
10608.455,305,306,297,309,-15944,1592,4020,-31,8,147
10618.979,305,306,297,308,-15944,1592,4020,-31,8,147
10618.979,305,307,297,309,-15944,1592,4020,-31,8,147
10630.186,306,307,297,310,-15944,1592,4020,-31,8,147
10639.394,307,307,297,310,-15944,1592,4020,-31,8,147
10641.585,307,306,297,309,-15944,1592,4020,-31,8,147
10650.212,308,306,297,310,-15944,1592,4020,-31,8,147
10652.403,308,305,296,309,-15944,1592,4020,-31,8,147
10657.344000000001,307,305,296,308,-15932,1636,4060,-50,-65,89
10662.743,307,305,297,308,-15932,1636,4060,-50,-65,89
10669.22,308,305,297,309,-15932,1636,4060,-50,-65,89
10674.498,308,305,297,309,-15932,1636,4060,-50,-65,89
10676.923,308,305,297,309,-15932,1636,4060,-50,-65,89
10685.483,308,305,298,309,-15932,1636,4060,-50,-65,89
10689.421,309,305,298,309,-15932,1636,4060,-50,-65,89
10696.997,308,305,298,308,-16028,1652,4084,-126,-89,25
10702.185,308,305,298,309,-16028,1652,4084,-126,-89,25
10707.606,307,305,298,309,-16028,1652,4084,-126,-89,25
10713.621,308,305,298,309,-16028,1652,4084,-126,-89,25
10719.22,308,304,298,308,-16028,1652,4084,-126,-89,25
10726.482,308,304,299,309,-16028,1652,4084,-126,-89,25
10730.022,307,304,299,309,-16028,1652,4084,-126,-89,25
10735.044,308,304,299,309,-15968,1444,4076,-41,-154,50
10741.983,306,304,299,309,-15968,1444,4076,-41,-154,50
10753.037,306,304,300,309,-15968,1444,4076,-41,-154,50
10755.553000000002,305,304,299,308,-15968,1444,4076,-41,-154,50
10761.624,305,305,299,308,-15968,1444,4076,-41,-154,50
10768.286,305,305,299,309,-15968,1444,4076,-41,-154,50
10772.527,306,305,299,309,-15968,1444,4076,-41,-154,50
10774.896999999999,307,306,300,308,-15952,1492,3960,-7,-109,20
10785.7,306,305,300,308,-15952,1492,3960,-7,-109,20
10785.7,306,305,300,309,-15952,1492,3960,-7,-109,20
10794.956,306,305,299,308,-15952,1492,3960,-7,-109,20
10799.023,307,304,300,308,-15952,1492,3960,-7,-109,20
10804.228000000001,307,305,300,309,-15952,1492,3960,-7,-109,20
10808.645999999999,307,305,300,309,-15952,1492,3960,-7,-109,20
10818.857,308,305,300,308,-15948,1600,4152,-49,-136,84
10827.21,308,305,300,309,-15948,1600,4152,-49,-136,84
10830.271,308,304,300,309,-15948,1600,4152,-49,-136,84
10830.271,308,304,301,308,-15948,1600,4152,-49,-136,84
10841.076,308,304,300,307,-15948,1600,4152,-49,-136,84
10845.091,309,304,301,309,-15948,1600,4152,-49,-136,84
10855.591,308,304,300,309,-15948,1600,4152,-49,-136,84
10857.853000000001,309,304,300,309,-15916,1512,3944,-72,-187,-54
10862.909,309,304,300,309,-15916,1512,3944,-72,-187,-54
10869.156,309,305,300,308,-15916,1512,3944,-72,-187,-54
10874.833,309,305,300,308,-15916,1512,3944,-72,-187,-54
10877.534000000001,308,304,300,308,-15916,1512,3944,-72,-187,-54
10886.348999999998,308,304,301,308,-15916,1512,3944,-72,-187,-54
10894.752,309,305,301,309,-15916,1512,3944,-72,-187,-54
10897.449999999999,308,304,300,308,-15964,1668,4160,-62,-150,65
10908.557999999999,309,304,300,308,-15964,1668,4160,-62,-150,65
10908.557999999999,307,305,300,308,-15964,1668,4160,-62,-150,65
10914.632,307,304,300,308,-15964,1668,4160,-62,-150,65
10922.067000000001,307,304,300,308,-15964,1668,4160,-62,-150,65
10929.889,306,304,300,308,-15964,1668,4160,-62,-150,65
10929.889,307,304,300,308,-15972,1568,4336,8,-172,67
10941.162,307,304,300,308,-15972,1568,4336,8,-172,67
10941.162,307,303,300,308,-15972,1568,4336,8,-172,67
10952.584,307,304,300,307,-15972,1568,4336,8,-172,67
10955.601,307,304,301,308,-15972,1568,4336,8,-172,67
10961.645,307,303,300,307,-15972,1568,4336,8,-172,67
10964.01,307,303,300,308,-15972,1568,4336,8,-172,67
10974.073,307,304,301,308,-15972,1568,4336,8,-172,67
10974.073,308,303,299,306,-15960,1544,4136,-193,-48,53
10985.88,308,302,300,307,-15960,1544,4136,-193,-48,53
10985.88,308,302,301,308,-15960,1544,4136,-193,-48,53
10996.882,308,302,300,307,-15960,1544,4136,-193,-48,53
10996.882,308,302,300,307,-15960,1544,4136,-193,-48,53
11007.538,307,302,301,308,-15960,1544,4136,-193,-48,53
11015.627,308,302,300,307,-15960,1544,4136,-193,-48,53
11018.945,308,302,301,306,-15932,1592,4272,-29,43,23
11020.986,309,301,301,307,-15932,1592,4272,-29,43,23
11030.856,308,302,301,308,-15932,1592,4272,-29,43,23
11030.856,307,301,301,307,-15932,1592,4272,-29,43,23
11041.914,307,301,301,306,-15932,1592,4272,-29,43,23
11041.914,307,302,301,307,-15932,1592,4272,-29,43,23
11052.435,306,302,302,308,-15932,1592,4272,-29,43,23
11055.962,307,302,301,307,-15876,1580,4192,99,45,-3
11063.243,308,303,302,308,-15876,1580,4192,99,45,-3
11063.243,308,303,302,308,-15876,1580,4192,99,45,-3
11075.043000000001,307,303,302,308,-15876,1580,4192,99,45,-3
11075.043000000001,307,302,301,306,-15876,1580,4192,99,45,-3
11082.766,307,303,302,307,-15876,1580,4192,99,45,-3
11085.744,307,303,302,308,-15876,1580,4192,99,45,-3
11096.784,307,303,303,307,-15948,1580,4288,-57,184,-83
11098.888,307,303,302,306,-15948,1580,4288,-57,184,-83
11108.134,307,302,302,307,-15948,1580,4288,-57,184,-83
11110.756,306,302,302,307,-15948,1580,4288,-57,184,-83
11118.931999999999,307,302,301,306,-15948,1580,4288,-57,184,-83
11122.929,307,302,301,306,-15948,1580,4288,-57,184,-83
11129.965,307,301,302,307,-15948,1580,4288,-57,184,-83
11129.965,307,301,301,306,-15836,1628,4004,-274,216,-113
11141.296,307,301,301,305,-15836,1628,4004,-274,216,-113
11150.257,306,301,301,306,-15836,1628,4004,-274,216,-113
11152.478000000001,307,301,301,306,-15836,1628,4004,-274,216,-113
11155.992,308,301,302,305,-15836,1628,4004,-274,216,-113
11164.205,307,300,302,306,-15836,1628,4004,-274,216,-113
11174.972,306,300,301,306,-15836,1628,4004,-274,216,-113
11179.161,306,300,301,305,-16016,1628,4276,-255,132,19
11183.268,307,300,301,306,-16016,1628,4276,-255,132,19
11191.694,306,301,301,306,-16016,1628,4276,-255,132,19
11195.831999999999,307,301,301,306,-16016,1628,4276,-255,132,19
11201.507,307,301,301,305,-16016,1628,4276,-255,132,19
11207.696,307,301,301,305,-16016,1628,4276,-255,132,19
11207.696,306,302,301,306,-16016,1628,4276,-255,132,19
11218.771,307,302,302,306,-15868,1608,3944,115,76,-88
11221.957,306,301,301,306,-15868,1608,3944,115,76,-88
11231.234,307,301,301,306,-15868,1608,3944,115,76,-88
11231.234,307,301,301,306,-15868,1608,3944,115,76,-88
11241.094000000001,307,301,301,306,-15868,1608,3944,115,76,-88
11249.162,307,302,301,306,-15868,1608,3944,115,76,-88
11252.012999999999,307,302,301,307,-15868,1608,3944,115,76,-88
11256.018,306,302,301,306,-16008,1564,4032,229,173,-89
11263.786,306,302,301,306,-16008,1564,4032,229,173,-89
11263.786,306,302,301,306,-16008,1564,4032,229,173,-89
11274.679,306,302,301,306,-16008,1564,4032,229,173,-89
11274.679,306,301,300,305,-16008,1564,4032,229,173,-89
11285.334,307,301,300,305,-16008,1564,4032,229,173,-89
11289.962,306,302,301,306,-16008,1564,4032,229,173,-89
11297.976,305,301,301,306,-15896,1336,3616,-123,34,23
11300.636,305,302,301,306,-15896,1336,3616,-123,34,23
11309.846,304,302,300,306,-15896,1336,3616,-123,34,23
11312.448,305,302,300,306,-15896,1336,3616,-123,34,23
11318.414999999999,305,303,301,306,-15896,1336,3616,-123,34,23
11323.829,305,302,300,306,-15896,1336,3616,-123,34,23
11329.712000000001,304,303,301,307,-15896,1336,3616,-123,34,23
11336.560000000001,305,302,300,307,-16044,1232,3924,-356,0,163
11341.456,305,303,301,306,-16044,1232,3924,-356,0,163
11344.332,305,303,301,307,-16044,1232,3924,-356,0,163
11353.104,305,303,301,307,-16044,1232,3924,-356,0,163
11356.123,305,303,300,306,-16044,1232,3924,-356,0,163
11363.778999999999,306,303,301,307,-16044,1232,3924,-356,0,163
11369.626999999999,306,303,301,308,-16044,1232,3924,-356,0,163
11374.423,307,304,301,307,-15904,1124,3472,-17,-160,441
11382.011,307,304,301,308,-15904,1124,3472,-17,-160,441
11385.559000000001,307,305,301,309,-15904,1124,3472,-17,-160,441
11396.62,307,305,301,309,-15904,1124,3472,-17,-160,441
11396.651,308,306,301,309,-15904,1124,3472,-17,-160,441
11407.642,310,306,300,309,-15904,1124,3472,-17,-160,441
11410.460000000001,309,306,301,310,-15904,1124,3472,-17,-160,441
11420.476,311,306,301,309,-16068,560,3344,139,73,805
11420.476,311,307,301,310,-16068,560,3344,139,73,805
11426.902,311,307,301,310,-16068,560,3344,139,73,805
11430.213,313,309,301,311,-16068,560,3344,139,73,805
11440.908,313,310,303,312,-16068,560,3344,139,73,805
11440.908,314,311,303,312,-16068,560,3344,139,73,805
11452.185,315,311,303,313,-16068,560,3344,139,73,805
11456.202,315,312,303,313,-16068,784,3428,1285,-644,1135
11464.567000000001,316,312,303,313,-16068,784,3428,1285,-644,1135
11464.567000000001,316,311,304,314,-16068,784,3428,1285,-644,1135
11474.528,316,311,304,315,-16068,784,3428,1285,-644,1135
11480.072,317,308,304,315,-16068,784,3428,1285,-644,1135
11485.227,316,303,304,317,-16068,784,3428,1285,-644,1135
11492.39,315,297,304,320,-16068,784,3428,1285,-644,1135
11496.688,314,293,305,321,-15836,1316,3472,1093,-1018,1464
11504.419,312,293,306,323,-15836,1316,3472,1093,-1018,1464
11508.317,311,295,308,324,-15836,1316,3472,1093,-1018,1464
11518.617,310,296,310,325,-15836,1316,3472,1093,-1018,1464
11526.648,308,296,311,326,-15836,1316,3472,1093,-1018,1464
11529.956,305,297,313,329,-15836,1316,3472,1093,-1018,1464
11539.225999999999,304,299,314,330,-15840,88,2896,-214,-1290,2201
11541.347,301,303,315,333,-15840,88,2896,-214,-1290,2201
11545.743999999999,298,305,317,336,-15840,88,2896,-214,-1290,2201
11552.786,294,309,319,338,-15840,88,2896,-214,-1290,2201
11556.806999999999,291,313,321,341,-15840,88,2896,-214,-1290,2201
11563.503,287,317,324,344,-15840,88,2896,-214,-1290,2201
11570.328,284,320,325,347,-15840,88,2896,-214,-1290,2201
11574.973999999998,281,322,326,349,-15800,-836,2400,-1208,-3582,4213
11586.053,279,324,328,352,-15800,-836,2400,-1208,-3582,4213
11590.512999999999,276,327,329,356,-15800,-836,2400,-1208,-3582,4213
11596.456,275,331,330,357,-15800,-836,2400,-1208,-3582,4213
11603.446999999998,275,333,330,359,-15800,-836,2400,-1208,-3582,4213
11607.915,275,336,329,360,-15800,-836,2400,-1208,-3582,4213
11615.426,275,341,331,360,-15440,-300,2088,-1922,-5392,6417
11619.343,277,347,333,360,-15440,-300,2088,-1922,-5392,6417
11630.233,277,354,336,362,-15440,-300,2088,-1922,-5392,6417
11638.233,279,365,339,361,-15440,-300,2088,-1922,-5392,6417
11640.991,279,377,341,361,-15440,-300,2088,-1922,-5392,6417
11650.202,280,395,343,361,-15440,-300,2088,-1922,-5392,6417
11656.794,279,419,344,361,-15440,-300,2088,-1922,-5392,6417
11659.849,280,433,346,362,-14012,-360,4296,-1939,-8276,8171
11663.378,279,445,344,363,-14012,-360,4296,-1939,-8276,8171
11674.527,279,454,346,365,-14012,-360,4296,-1939,-8276,8171
11682.882,279,460,347,367,-14012,-360,4296,-1939,-8276,8171
11685.743,284,464,349,369,-14012,-360,4296,-1939,-8276,8171
11693.943000000001,292,467,348,370,-14012,-360,4296,-1939,-8276,8171
11696.725,303,468,344,370,-13708,2468,4780,534,-10728,10515
11707.804,321,468,341,371,-13708,2468,4780,534,-10728,10515
11715.947999999999,342,468,341,374,-13708,2468,4780,534,-10728,10515
11718.832,363,467,342,374,-13708,2468,4780,534,-10728,10515
11728.03,384,464,344,373,-13708,2468,4780,534,-10728,10515
11730.073,398,459,345,372,-13708,2468,4780,534,-10728,10515
11739.02,410,450,347,369,-12836,4888,6288,-988,-11534,11449
11740.911,417,438,349,366,-12836,4888,6288,-988,-11534,11449
11752.198,419,429,350,364,-12836,4888,6288,-988,-11534,11449
11756.821,418,417,352,361,-12836,4888,6288,-988,-11534,11449
11763.128,413,402,353,357,-12836,4888,6288,-988,-11534,11449
11772.203,398,389,355,355,-12836,4888,6288,-988,-11534,11449
11774.737,376,375,355,350,-12084,3892,6384,-4454,-11626,12177
11785.531,359,359,355,348,-12084,3892,6384,-4454,-11626,12177
11794.131,348,343,356,349,-12084,3892,6384,-4454,-11626,12177
11797.732999999998,342,326,352,347,-12084,3892,6384,-4454,-11626,12177
11800.732,340,309,347,345,-12084,3892,6384,-4454,-11626,12177
11808.527,339,293,342,342,-12084,3892,6384,-4454,-11626,12177
11815.851999999999,339,281,338,338,-10500,6036,6760,-8086,-13760,12389
11827.012,339,270,332,335,-10500,6036,6760,-8086,-13760,12389
11829.838,340,257,327,330,-10500,6036,6760,-8086,-13760,12389
11836.624,343,243,322,327,-10500,6036,6760,-8086,-13760,12389
11841.182999999999,346,233,317,322,-10500,6036,6760,-8086,-13760,12389
11849.038,349,228,315,320,-10500,6036,6760,-8086,-13760,12389
11857.381,353,224,311,316,-9536,7472,10452,-7031,-13664,11120
11863.738,358,217,306,310,-9536,7472,10452,-7031,-13664,11120
11871.758,364,213,302,309,-9536,7472,10452,-7031,-13664,11120
11874.203,372,210,296,305,-9536,7472,10452,-7031,-13664,11120
11885.964,379,210,287,301,-9536,7472,10452,-7031,-13664,11120
11885.964,383,212,278,297,-9536,7472,10452,-7031,-13664,11120
11897.031,383,215,269,290,-8032,8204,11760,-4613,-13944,9805
11897.031,376,218,258,281,-8032,8204,11760,-4613,-13944,9805
11908.009,368,220,251,278,-8032,8204,11760,-4613,-13944,9805
11918.922999999999,364,221,247,274,-8032,8204,11760,-4613,-13944,9805
11922.401,361,221,246,271,-8032,8204,11760,-4613,-13944,9805
11930.38,359,221,246,267,-8032,8204,11760,-4613,-13944,9805
11934.063999999998,361,222,248,255,-8032,8204,11760,-4613,-13944,9805
11941.011,364,223,250,243,-6748,7364,12432,-6198,-12902,8044
11946.542000000001,368,226,251,232,-6748,7364,12432,-6198,-12902,8044
11957.364,368,230,256,227,-6748,7364,12432,-6198,-12902,8044
11963.431999999999,366,234,261,223,-6748,7364,12432,-6198,-12902,8044
11967.362,362,237,267,222,-6748,7364,12432,-6198,-12902,8044
11974.574999999999,356,240,273,221,-6748,7364,12432,-6198,-12902,8044
11979.189,350,243,276,220,-5788,7772,13828,-7436,-12005,7011
11985.253,342,247,284,222,-5788,7772,13828,-7436,-12005,7011
11996.916000000001,333,250,292,224,-5788,7772,13828,-7436,-12005,7011
11996.916000000001,323,253,299,225,-5788,7772,13828,-7436,-12005,7011
12007.999,314,252,301,228,-5788,7772,13828,-7436,-12005,7011
12007.999,304,248,300,233,-5788,7772,13828,-7436,-12005,7011
12019.051,293,241,298,237,-5108,8244,14960,-7993,-11339,5572
12030.431999999999,279,223,293,245,-5108,8244,14960,-7993,-11339,5572
12030.431999999999,266,200,289,254,-5108,8244,14960,-7993,-11339,5572
12041.805999999999,251,168,284,266,-5108,8244,14960,-7993,-11339,5572
12045.3,243,144,280,277,-5108,8244,14960,-7993,-11339,5572
12052.732,232,127,276,294,-5108,8244,14960,-7993,-11339,5572
12063.766,223,115,274,308,-4660,6928,15244,-7286,-11907,4719
12063.766,214,108,271,322,-4660,6928,15244,-7286,-11907,4719
12074.728000000001,208,104,269,333,-4660,6928,15244,-7286,-11907,4719
12077.91,204,103,266,341,-4660,6928,15244,-7286,-11907,4719
12086.246,200,105,265,348,-4660,6928,15244,-7286,-11907,4719
12089.779,197,111,263,355,-4660,6928,15244,-7286,-11907,4719
12096.587,197,117,259,359,-3508,6564,14476,-5223,-11621,3538
12107.766,196,126,254,364,-3508,6564,14476,-5223,-11621,3538
12110.804999999998,196,135,246,368,-3508,6564,14476,-5223,-11621,3538
12119.365,198,146,234,372,-3508,6564,14476,-5223,-11621,3538
12119.365,198,153,225,375,-3508,6564,14476,-5223,-11621,3538
12130.164,201,159,222,379,-3508,6564,14476,-5223,-11621,3538
12140.902,204,168,219,379,-3024,5336,15032,-6843,-10410,2804
12140.902,208,179,217,379,-3024,5336,15032,-6843,-10410,2804
12152.282,208,190,215,379,-3024,5336,15032,-6843,-10410,2804
12157.681,203,204,215,378,-3024,5336,15032,-6843,-10410,2804
12163.201000000001,194,216,216,376,-3024,5336,15032,-6843,-10410,2804
12174.557999999999,178,229,220,375,-3024,5336,15032,-6843,-10410,2804
12175.562,163,240,226,374,-3024,5336,15032,-6843,-10410,2804
12186.443000000001,144,252,235,371,-1464,5336,15728,-4278,-9980,2311
12186.443000000001,125,263,243,368,-1464,5336,15728,-4278,-9980,2311
12196.547,109,272,249,366,-1464,5336,15728,-4278,-9980,2311
12201.087,92,283,253,364,-1464,5336,15728,-4278,-9980,2311
12207.712000000001,75,294,252,360,-1464,5336,15728,-4278,-9980,2311
12212.825,59,301,246,358,-1464,5336,15728,-4278,-9980,2311
12218.724,41,312,239,355,-1052,4276,16184,-4511,-8528,1567
12225.516000000001,27,323,230,354,-1052,4276,16184,-4511,-8528,1567
12230.123000000001,12,332,220,353,-1052,4276,16184,-4511,-8528,1567
12237.803,0,337,212,351,-1052,4276,16184,-4511,-8528,1567
12241.428000000002,0,343,200,351,-1052,4276,16184,-4511,-8528,1567
12252.511,0,347,192,353,-1052,4276,16184,-4511,-8528,1567
12258.324,0,352,188,355,-404,3620,17436,-4245,-7157,1565
12263.085000000001,0,359,187,355,-404,3620,17436,-4245,-7157,1565
12273.109,0,364,189,355,-404,3620,17436,-4245,-7157,1565
12275.368,0,370,194,353,-404,3620,17436,-4245,-7157,1565
12283.97,0,377,204,349,-404,3620,17436,-4245,-7157,1565
12286.455,0,382,219,345,-404,3620,17436,-4245,-7157,1565
12297.291,3,387,238,342,-404,3620,17436,-4245,-7157,1565
12297.291,9,392,259,336,384,3372,18008,-2162,-5956,2479
12308.215,18,397,283,332,384,3372,18008,-2162,-5956,2479
12308.215,29,401,308,328,384,3372,18008,-2162,-5956,2479
12321.901,42,403,332,322,384,3372,18008,-2162,-5956,2479
12323.753,57,407,355,318,384,3372,18008,-2162,-5956,2479
12329.812,71,409,376,312,384,3372,18008,-2162,-5956,2479
12335.451000000001,86,413,395,306,384,3372,18008,-2162,-5956,2479
12340.988,101,417,414,299,964,4312,18116,-294,-5104,2305
12348.034,114,420,429,293,964,4312,18116,-294,-5104,2305
12352.731,129,424,443,285,964,4312,18116,-294,-5104,2305
12363.127999999999,142,426,457,277,964,4312,18116,-294,-5104,2305
12364.349,153,428,468,271,964,4312,18116,-294,-5104,2305
12375.273,165,428,477,266,964,4312,18116,-294,-5104,2305
12375.273,178,429,483,260,1568,4332,21888,3687,-767,-35
12385.71,189,429,486,255,1568,4332,21888,3687,-767,-35
12385.71,200,428,488,252,1568,4332,21888,3687,-767,-35
12396.663,212,427,488,247,1568,4332,21888,3687,-767,-35
12401.640000000001,224,425,485,243,1568,4332,21888,3687,-767,-35
12407.449,235,422,482,240,1568,4332,21888,3687,-767,-35
12413.691,247,419,476,237,1568,4332,21888,3687,-767,-35
12418.974,258,416,468,235,648,3184,13388,1201,474,-260
12421.699,269,413,459,233,648,3184,13388,1201,474,-260
12430.724,277,409,451,232,648,3184,13388,1201,474,-260
12439.342999999999,288,404,439,231,648,3184,13388,1201,474,-260
12441.449999999999,298,400,426,230,648,3184,13388,1201,474,-260
12447.794,308,396,415,231,648,3184,13388,1201,474,-260
12452.445000000002,316,392,406,231,648,3184,13388,1201,474,-260
12458.604,326,387,394,230,364,4504,17360,-2316,139,110
12464.1,337,381,380,230,364,4504,17360,-2316,139,110
12472.607,345,378,371,230,364,4504,17360,-2316,139,110
12474.666,354,374,363,231,364,4504,17360,-2316,139,110
12485.391,362,370,353,231,364,4504,17360,-2316,139,110
12485.391,371,366,344,232,364,4504,17360,-2316,139,110
12496.627,378,361,337,233,364,4504,17360,-2316,139,110
12499.976,384,358,330,234,-256,3888,14776,1002,536,92
12499.976,393,354,322,235,-256,3888,14776,1002,536,92
12509.074999999999,399,350,317,237,-256,3888,14776,1002,536,92
12519.006,404,347,312,238,-256,3888,14776,1002,536,92
12519.006,409,343,307,239,-256,3888,14776,1002,536,92
12530.265,415,341,304,241,-256,3888,14776,1002,536,92
12532.96,419,337,300,242,-256,3888,14776,1002,536,92
12542.501,423,334,296,243,712,4384,16360,1367,-1292,8
12546.632000000001,427,331,292,245,712,4384,16360,1367,-1292,8
12552.107,430,328,291,247,712,4384,16360,1367,-1292,8
12559.735999999999,433,325,288,248,712,4384,16360,1367,-1292,8
12563.548,435,322,286,249,712,4384,16360,1367,-1292,8
12568.676,437,319,284,252,712,4384,16360,1367,-1292,8
12574.764,440,317,282,254,712,4384,16360,1367,-1292,8
12574.764,440,314,280,255,756,3792,15400,957,-59,-49
12585.886999999999,442,312,279,257,756,3792,15400,957,-59,-49
12585.886999999999,443,310,278,259,756,3792,15400,957,-59,-49
12596.686,444,308,276,260,756,3792,15400,957,-59,-49
12604.688,444,307,275,261,756,3792,15400,957,-59,-49
12607.767000000002,445,304,273,263,756,3792,15400,957,-59,-49
12607.767000000002,446,303,271,265,756,3792,15400,957,-59,-49
12618.976999999999,446,301,268,265,628,4448,15740,1018,-257,-117
12623.259,447,299,267,267,628,4448,15740,1018,-257,-117
12630.071,447,298,266,268,628,4448,15740,1018,-257,-117
12634.506,448,296,264,270,628,4448,15740,1018,-257,-117
12640.905,447,295,262,270,628,4448,15740,1018,-257,-117
12647.097,448,293,262,272,628,4448,15740,1018,-257,-117
12652.333,448,291,262,273,628,4448,15740,1018,-257,-117
12658.835,447,290,261,273,520,4044,15312,-445,404,-5
12663.956,445,288,259,275,520,4044,15312,-445,404,-5
12663.956,444,287,260,276,520,4044,15312,-445,404,-5
12675.66,444,287,260,278,520,4044,15312,-445,404,-5
12680.707,442,285,262,278,520,4044,15312,-445,404,-5
12685.407,442,284,263,279,520,4044,15312,-445,404,-5
12692.122,441,284,264,281,520,4044,15312,-445,404,-5
12696.947,439,283,264,281,520,4044,15312,-445,404,-5
12700.715,438,282,265,282,640,4212,15428,-121,65,-7
12708.752,435,281,266,284,640,4212,15428,-121,65,-7
12708.752,434,281,267,286,640,4212,15428,-121,65,-7
12719.907,433,280,267,287,640,4212,15428,-121,65,-7
12719.907,430,280,267,287,640,4212,15428,-121,65,-7
12730.07,430,279,268,290,640,4212,15428,-121,65,-7
12730.07,428,278,269,290,640,4212,15428,-121,65,-7
12741.379,426,278,269,290,568,4264,15500,340,-274,-99
12741.379,424,278,271,292,568,4264,15500,340,-274,-99
12750.330999999998,421,278,271,293,568,4264,15500,340,-274,-99
12758.782,419,278,271,293,568,4264,15500,340,-274,-99
12764.093,417,277,271,294,568,4264,15500,340,-274,-99
12766.801,416,278,272,295,568,4264,15500,340,-274,-99
12775.533,414,277,273,296,568,4264,15500,340,-274,-99
12775.533,413,277,272,296,552,4180,15708,269,71,-91
12787.095000000001,411,277,272,297,552,4180,15708,269,71,-91
12790.089,408,277,273,298,552,4180,15708,269,71,-91
12796.338,407,277,273,298,552,4180,15708,269,71,-91
12796.338,404,277,272,299,552,4180,15708,269,71,-91
12808.094000000001,403,277,273,299,552,4180,15708,269,71,-91
12808.094000000001,401,278,274,300,552,4180,15708,269,71,-91
12818.849999999999,400,277,274,300,552,4180,15708,269,71,-91
12818.849999999999,398,277,274,301,632,4404,15636,248,193,-139
12830.166000000001,396,277,274,302,632,4404,15636,248,193,-139
12833.895999999999,395,278,274,302,632,4404,15636,248,193,-139
12839.171,393,278,273,302,632,4404,15636,248,193,-139
12845.024000000001,391,278,274,303,632,4404,15636,248,193,-139
12847.699999999999,390,279,273,303,632,4404,15636,248,193,-139
12859.126,389,279,272,303,632,4404,15636,248,193,-139
12863.261,389,278,272,303,616,4364,15624,-48,144,-218
12871.282000000001,387,278,272,304,616,4364,15624,-48,144,-218
12874.148,385,278,271,305,616,4364,15624,-48,144,-218
12882.296999999999,384,278,270,304,616,4364,15624,-48,144,-218
12885.925000000001,382,278,270,305,616,4364,15624,-48,144,-218
12885.925000000001,381,279,270,306,616,4364,15624,-48,144,-218
12896.909000000001,380,279,270,306,616,4364,15624,-48,144,-218
12901.45,379,278,270,306,520,4080,15260,-52,41,-123
12907.648,378,279,270,307,520,4080,15260,-52,41,-123
12907.648,377,279,269,307,520,4080,15260,-52,41,-123
12918.756,376,279,269,306,520,4080,15260,-52,41,-123
12928.037,375,279,270,306,520,4080,15260,-52,41,-123
12930.047,374,280,272,307,520,4080,15260,-52,41,-123
12930.047,374,280,272,308,520,4080,15260,-52,41,-123
12941.083,372,280,273,307,520,4020,15392,-250,7,-83
12941.083,371,280,273,307,520,4020,15392,-250,7,-83
12950.039999999999,369,280,274,308,520,4020,15392,-250,7,-83
12955.363,368,280,276,308,520,4020,15392,-250,7,-83
12959.36,366,281,278,308,520,4020,15392,-250,7,-83
12967.316,365,282,280,308,520,4020,15392,-250,7,-83
12967.316,363,282,281,309,520,4020,15392,-250,7,-83
12975.662,361,282,282,309,648,4196,15616,98,96,-13
12985.491,359,282,283,309,648,4196,15616,98,96,-13
12985.491,358,282,283,309,648,4196,15616,98,96,-13
12996.327000000001,357,283,285,309,648,4196,15616,98,96,-13
12996.327000000001,355,283,286,309,648,4196,15616,98,96,-13
13003.173999999999,354,283,287,309,648,4196,15616,98,96,-13
13008.444000000001,352,284,288,310,648,4196,15616,98,96,-13
13017.373,351,284,288,309,648,4196,15616,98,96,-13
13019.37,350,284,287,308,532,4388,15440,531,-212,-57
13029.897,348,284,288,309,532,4388,15440,531,-212,-57
13029.897,347,284,289,309,532,4388,15440,531,-212,-57
13039.178,347,285,289,309,532,4388,15440,531,-212,-57
13040.965999999999,346,285,289,309,532,4388,15440,531,-212,-57
13048.837000000001,344,286,290,309,532,4388,15440,531,-212,-57
13052.426000000001,343,286,290,309,532,4388,15440,531,-212,-57
13063.407,342,286,289,309,588,4384,15548,97,83,-86
13064.596,340,286,289,309,588,4384,15548,97,83,-86
13064.596,339,287,289,310,588,4384,15548,97,83,-86
13078.974,338,286,288,310,588,4384,15548,97,83,-86
13083.520999999999,338,287,288,309,588,4384,15548,97,83,-86
13087.942,337,288,289,309,588,4384,15548,97,83,-86
13092.119999999999,335,288,289,310,588,4384,15548,97,83,-86
13099.962,335,289,289,310,588,4384,15548,97,83,-86
13101.226,334,289,289,310,528,4376,15376,78,-33,-55
13107.618,333,288,288,310,528,4376,15376,78,-33,-55
13109.832,332,288,288,310,528,4376,15376,78,-33,-55
13119.69,333,288,287,310,528,4376,15376,78,-33,-55
13119.69,333,288,287,310,528,4376,15376,78,-33,-55
13129.98,331,289,288,311,528,4376,15376,78,-33,-55
13135.206,330,289,287,311,528,4376,15376,78,-33,-55
13140.618,330,289,286,311,600,4376,15520,-126,9,-75
13140.618,330,289,286,312,600,4376,15520,-126,9,-75
13152.203,330,290,287,312,600,4376,15520,-126,9,-75
13154.745,330,289,287,311,600,4376,15520,-126,9,-75
13159.26,330,289,286,311,600,4376,15520,-126,9,-75
13164.253,330,290,287,311,600,4376,15520,-126,9,-75
13171.854,330,290,287,311,600,4376,15520,-126,9,-75
13174.645,329,290,287,311,600,4376,15520,-126,9,-75
13185.235,331,291,287,311,436,4284,15428,-21,173,-76
13187.398,332,291,288,312,436,4284,15428,-21,173,-76
13195.407,334,291,288,312,436,4284,15428,-21,173,-76
13197.123,335,291,288,312,436,4284,15428,-21,173,-76
13205.203,338,291,288,312,436,4284,15428,-21,173,-76
13207.858,340,291,288,312,436,4284,15428,-21,173,-76
13218.707,342,291,289,312,436,4284,15428,-21,173,-76
13220.445,344,292,288,311,608,4208,15348,25,-48,-54
13220.445,346,292,290,312,608,4208,15348,25,-48,-54
13231.161,348,292,291,312,608,4208,15348,25,-48,-54
13237.216999999999,349,292,291,312,608,4208,15348,25,-48,-54
13241.392,349,292,291,311,608,4208,15348,25,-48,-54
13251.746000000001,349,292,291,312,608,4208,15348,25,-48,-54
13251.746000000001,348,292,292,312,608,4208,15348,25,-48,-54
13259.437,346,292,292,312,520,4336,15444,-202,-61,-31
13263.552000000001,343,293,293,311,520,4336,15444,-202,-61,-31
13269.619999999999,341,293,294,312,520,4336,15444,-202,-61,-31
13275.018,337,293,294,311,520,4336,15444,-202,-61,-31
13282.432999999999,334,294,295,311,520,4336,15444,-202,-61,-31
13285.517,332,294,296,311,520,4336,15444,-202,-61,-31
13296.324999999999,329,293,297,312,520,4336,15444,-202,-61,-31
13296.324999999999,326,294,297,311,520,4336,15444,-202,-61,-31
13303.438,322,294,297,311,600,4300,15524,77,5,-28
13307.748,320,295,298,311,600,4300,15524,77,5,-28
13315.155,318,293,298,312,600,4300,15524,77,5,-28
13318.999,316,295,298,311,600,4300,15524,77,5,-28
13323.929,313,295,298,310,600,4300,15524,77,5,-28
13329.953,312,295,299,311,600,4300,15524,77,5,-28
13337.94,310,295,300,311,600,4300,15524,77,5,-28
13341.255000000001,309,295,300,310,520,4340,15496,13,55,-19
13343.143,307,295,300,311,520,4340,15496,13,55,-19
13353.315,305,296,300,311,520,4340,15496,13,55,-19
13353.315,304,296,301,311,520,4340,15496,13,55,-19
13360.588,303,297,301,310,520,4340,15496,13,55,-19
13363.247,302,297,302,310,520,4340,15496,13,55,-19
13374.484,301,296,302,310,520,4340,15496,13,55,-19
13374.484,300,297,302,310,520,4340,15496,13,55,-19
13381.553,298,297,302,310,616,4384,15436,3,-41,-69
13385.537,296,297,301,310,616,4384,15436,3,-41,-69
13392.894999999999,295,297,301,310,616,4384,15436,3,-41,-69
13397.707,293,297,301,310,616,4384,15436,3,-41,-69
13400.404,292,298,301,309,616,4384,15436,3,-41,-69
13408.095,291,298,301,310,616,4384,15436,3,-41,-69
13408.095,289,298,301,310,616,4384,15436,3,-41,-69
13419.456,289,298,300,309,616,4384,15436,3,-41,-69
13428.093,288,299,300,309,556,4400,15624,-8,43,-76
13430.033,287,299,301,310,556,4400,15624,-8,43,-76
13430.033,286,299,300,309,556,4400,15624,-8,43,-76
13437.884,286,299,300,309,556,4400,15624,-8,43,-76
13441.037,285,299,300,308,556,4400,15624,-8,43,-76
13452.025000000001,286,299,300,309,556,4400,15624,-8,43,-76
13452.025000000001,286,299,300,309,556,4400,15624,-8,43,-76
13463.215999999999,286,299,300,308,536,4464,15520,58,45,-112
13463.215999999999,286,299,300,309,536,4464,15520,58,45,-112
13471.166000000001,286,299,300,309,536,4464,15520,58,45,-112
13474.38,286,299,300,309,536,4464,15520,58,45,-112
13485.498,286,299,299,308,536,4464,15520,58,45,-112
13485.543,286,300,300,308,536,4464,15520,58,45,-112
13497.114,286,300,301,309,536,4464,15520,58,45,-112
13501.428,287,301,300,308,536,4464,15520,58,45,-112
13506.67,287,300,300,308,556,4420,15404,-98,76,-68
13513.014,289,300,301,309,556,4420,15404,-98,76,-68
13518.252,289,301,301,308,556,4420,15404,-98,76,-68
13518.756,289,301,300,308,556,4420,15404,-98,76,-68
13523.467999999999,289,301,300,308,556,4420,15404,-98,76,-68
13529.758,290,300,301,309,556,4420,15404,-98,76,-68
13536.532,291,300,300,308,556,4420,15404,-98,76,-68
13541.130000000001,292,300,299,309,608,4280,15516,-268,23,-43
13544.672999999999,292,300,301,309,608,4280,15516,-268,23,-43
13552.391,292,300,301,309,608,4280,15516,-268,23,-43
13552.391,293,300,301,309,608,4280,15516,-268,23,-43
13563.365,293,301,301,309,608,4280,15516,-268,23,-43
13571.845,294,302,302,309,608,4280,15516,-268,23,-43
13573.711,294,302,302,309,608,4280,15516,-268,23,-43
13576.739,295,302,302,309,472,4416,15476,-28,9,21
13586.026,297,302,301,308,472,4416,15476,-28,9,21
13586.026,296,302,302,309,472,4416,15476,-28,9,21
13596.755,297,302,303,309,472,4416,15476,-28,9,21
13596.755,298,302,303,308,472,4416,15476,-28,9,21
13607.981,298,302,303,309,472,4416,15476,-28,9,21
13607.981,298,303,303,309,472,4416,15476,-28,9,21
13618.869999999999,298,303,303,309,472,4416,15476,-28,9,21
13622.079,299,304,303,309,612,4376,15564,50,33,-38
13622.079,299,303,303,309,612,4376,15564,50,33,-38
13631.705,299,303,304,309,612,4376,15564,50,33,-38
13639.712,300,304,304,309,612,4376,15564,50,33,-38
13642.253,300,303,303,309,612,4376,15564,50,33,-38
13642.253,300,304,303,308,612,4376,15564,50,33,-38
13652.536,300,304,303,309,612,4376,15564,50,33,-38
13660.109999999999,301,304,302,309,612,4376,15564,50,33,-38
13663.413999999999,301,305,302,309,520,4312,15356,14,0,-23
13667.313,302,305,302,309,520,4312,15356,14,0,-23
13675.41,302,304,301,309,520,4312,15356,14,0,-23
13675.41,302,304,300,309,520,4312,15356,14,0,-23
13685.841,303,304,301,309,520,4312,15356,14,0,-23
