Time (ms),EMG1,EMG2,EMG3,EMG4,AccX,AccY,AccZ,GyroX,GyroY,GyroZ
1546.842,0,0,0,0,0,0,0,0,0,0
1546.842,0,0,0,0,0,0,0,0,0,0
1546.842,371,300,312,159,0,0,0,0,0,0
1546.842,370,301,313,160,0,0,0,0,0,0
1561.0120000000002,370,301,312,161,0,0,0,0,0,0
1562.518,370,302,314,163,0,0,0,0,0,0
1567.046,368,302,313,164,0,0,0,0,0,0
1567.046,368,302,314,166,0,0,0,0,0,0
1575.738,367,303,314,168,0,0,0,0,0,0
1575.738,367,304,314,171,0,0,0,0,0,0
1581.17,365,304,314,173,0,0,0,0,0,0
1583.601,365,305,315,176,0,0,0,0,0,0
1586.031,364,305,315,178,0,0,0,0,0,0
1586.031,363,305,315,180,0,0,0,0,0,0
1599.675,361,306,315,182,1496,7360,13960,-394,1370,-1211
1603.643,360,306,316,185,1496,7360,13960,-394,1370,-1211
1608.318,360,307,315,189,1496,7360,13960,-394,1370,-1211
1611.1100000000001,359,308,315,191,1496,7360,13960,-394,1370,-1211
1619.588,359,307,314,193,1496,7360,13960,-394,1370,-1211
1630.331,359,307,314,196,1496,7360,13960,-394,1370,-1211
1638.412,359,306,313,197,1496,7360,13960,-394,1370,-1211
1641.602,358,305,314,198,976,7116,13904,211,1123,-724
1641.602,358,306,314,200,976,7116,13904,211,1123,-724
1653.733,359,306,316,201,976,7116,13904,211,1123,-724
1656.16,357,307,316,202,976,7116,13904,211,1123,-724
1662.67,357,308,317,205,976,7116,13904,211,1123,-724
1668.431,356,308,319,208,976,7116,13904,211,1123,-724
1674.315,355,308,320,211,976,7116,13904,211,1123,-724
1683.8770000000002,354,308,322,216,1104,7064,14544,102,296,-433
1686.002,354,308,325,222,1104,7064,14544,102,296,-433
1694.697,354,309,326,226,1104,7064,14544,102,296,-433
1699.609,355,309,329,230,1104,7064,14544,102,296,-433
1702.075,355,310,330,234,1104,7064,14544,102,296,-433
1712.1409999999998,356,312,333,237,1104,7064,14544,102,296,-433
1712.1409999999998,357,314,335,238,1104,7064,14544,102,296,-433
1720.288,356,318,337,239,1092,6504,14500,-275,378,-335
1726.001,357,322,340,241,1092,6504,14500,-275,378,-335
1730.299,356,325,341,241,1092,6504,14500,-275,378,-335
1738.5790000000002,356,328,343,242,1092,6504,14500,-275,378,-335
1741.713,357,331,345,244,1092,6504,14500,-275,378,-335
1752.57,358,334,347,245,1092,6504,14500,-275,378,-335
1754.8760000000002,357,336,348,244,1092,6504,14500,-275,378,-335
1765.031,356,339,349,245,1044,6840,14388,186,228,-262
1765.031,355,343,352,243,1044,6840,14388,186,228,-262
1773.036,355,346,353,240,1044,6840,14388,186,228,-262
1774.901,354,350,354,238,1044,6840,14388,186,228,-262
1785.7069999999999,354,352,355,237,1044,6840,14388,186,228,-262
1793.77,353,356,357,235,1044,6840,14388,186,228,-262
1796.863,353,358,358,235,1044,6840,14388,186,228,-262
1806.012,352,362,359,234,976,7020,14604,714,-841,-157
1807.986,350,363,360,234,976,7020,14604,714,-841,-157
1811.774,349,365,359,234,976,7020,14604,714,-841,-157
1819.24,348,366,359,234,976,7020,14604,714,-841,-157
1825.11,348,367,359,234,976,7020,14604,714,-841,-157
1829.783,347,366,359,234,976,7020,14604,714,-841,-157
1836.453,346,365,358,234,976,7020,14604,714,-841,-157
1841.2679999999998,344,364,357,234,892,7060,14616,910,-873,-205
1846.744,342,362,357,236,892,7060,14616,910,-873,-205
1853.734,341,361,357,237,892,7060,14616,910,-873,-205
1861.754,339,359,356,238,892,7060,14616,910,-873,-205
1864.261,337,358,356,240,892,7060,14616,910,-873,-205
1869.71,335,355,354,242,892,7060,14616,910,-873,-205
1874.591,333,354,352,242,892,7060,14616,910,-873,-205
1882.4209999999998,331,352,351,244,976,7088,14536,196,-153,-25
1885.563,328,351,349,246,976,7088,14536,196,-153,-25
1896.912,327,349,347,247,976,7088,14536,196,-153,-25
1899.973,324,348,345,249,976,7088,14536,196,-153,-25
1907.687,323,346,342,252,976,7088,14536,196,-153,-25
1910.221,322,345,340,253,976,7088,14536,196,-153,-25
1910.221,321,343,337,253,976,7088,14536,196,-153,-25
1919.9489999999998,322,341,335,255,1028,7204,14536,47,45,27
1926.98,321,339,332,256,1028,7204,14536,47,45,27
1930.136,320,338,329,256,1028,7204,14536,47,45,27
1941.481,320,337,327,256,1028,7204,14536,47,45,27
1942.8110000000001,320,336,325,258,1028,7204,14536,47,45,27
1942.8110000000001,320,334,323,260,1028,7204,14536,47,45,27
1953.5620000000001,319,333,320,260,1028,7204,14536,47,45,27
1961.8210000000001,320,332,319,261,1056,7252,14484,234,-84,-39
1961.8210000000001,319,330,317,263,1056,7252,14484,234,-84,-39
1968.9650000000001,317,330,315,264,1056,7252,14484,234,-84,-39
1977.9750000000001,316,328,311,264,1056,7252,14484,234,-84,-39
1977.9750000000001,316,327,310,266,1056,7252,14484,234,-84,-39
1985.442,316,326,309,267,1056,7252,14484,234,-84,-39
1993.05,315,325,307,268,1056,7252,14484,234,-84,-39
1996.698,314,323,305,269,1040,7220,14468,389,-384,34
2006.332,314,321,303,270,1040,7220,14468,389,-384,34
2008.7220000000002,314,321,302,271,1040,7220,14468,389,-384,34
2018.713,313,320,301,271,1040,7220,14468,389,-384,34
2020.671,312,319,299,272,1040,7220,14468,389,-384,34
2028.6719999999998,311,318,297,274,1040,7220,14468,389,-384,34
2030.428,310,316,296,274,1040,7220,14468,389,-384,34
2037.2430000000002,309,315,294,276,1100,7336,14496,340,-193,60
2041.191,309,313,291,277,1100,7336,14496,340,-193,60
2051.671,309,312,290,279,1100,7336,14496,340,-193,60
2053.424,308,311,290,280,1100,7336,14496,340,-193,60
2064.264,308,310,289,280,1100,7336,14496,340,-193,60
2064.264,306,309,289,282,1100,7336,14496,340,-193,60
2070.292,306,308,288,284,1100,7336,14496,340,-193,60
2075.228,306,307,287,284,1100,7336,14496,340,-193,60
2084.154,306,306,287,286,1136,7236,14436,-160,250,-30
2089.818,306,305,286,288,1136,7236,14436,-160,250,-30
2096.781,306,304,285,288,1136,7236,14436,-160,250,-30
2100.297,305,303,284,289,1136,7236,14436,-160,250,-30
2108.25,305,303,286,291,1136,7236,14436,-160,250,-30
2110.62,305,302,285,292,1136,7236,14436,-160,250,-30
2119.659,305,301,284,292,1136,7236,14436,-160,250,-30
2123.598,305,301,285,294,1124,7248,14312,-169,163,6
2130.2120000000004,306,301,286,296,1124,7248,14312,-169,163,6
2131.98,306,300,286,296,1124,7248,14312,-169,163,6
2141.812,305,300,286,297,1124,7248,14312,-169,163,6
2141.812,306,299,286,299,1124,7248,14312,-169,163,6
2152.208,305,299,286,300,1124,7248,14312,-169,163,6
2152.208,304,299,286,300,1124,7248,14312,-169,163,6
2160.915,304,298,286,301,1164,7180,14276,204,-57,-10
2166.07,304,298,286,302,1164,7180,14276,204,-57,-10
2174.625,304,297,286,303,1164,7180,14276,204,-57,-10
2182.711,304,298,287,303,1164,7180,14276,204,-57,-10
2185.381,305,297,287,303,1164,7180,14276,204,-57,-10
2188.555,304,296,287,304,1164,7180,14276,204,-57,-10
2198.3,304,297,287,303,1164,7180,14276,204,-57,-10
2200.3149999999996,304,297,287,304,1112,7212,14404,54,-82,11
2207.8410000000003,304,297,288,304,1112,7212,14404,54,-82,11
2215.8940000000002,304,297,288,304,1112,7212,14404,54,-82,11
2218.782,304,298,288,304,1112,7212,14404,54,-82,11
2218.782,304,297,288,304,1112,7212,14404,54,-82,11
2230.607,304,297,288,305,1112,7212,14404,54,-82,11
2233.337,304,298,288,305,1112,7212,14404,54,-82,11
2233.337,303,298,289,306,1124,7316,14248,-45,19,-13
2241.1409999999996,302,298,289,306,1124,7316,14248,-45,19,-13
2252.578,302,298,289,307,1124,7316,14248,-45,19,-13
2252.578,302,297,289,307,1124,7316,14248,-45,19,-13
2263.2690000000002,302,297,290,306,1124,7316,14248,-45,19,-13
2266.816,302,298,290,307,1124,7316,14248,-45,19,-13
2266.816,302,298,291,307,1124,7316,14248,-45,19,-13
2275.89,301,298,290,307,1124,7316,14248,-45,19,-13
2285.557,301,298,291,307,1128,7356,14432,-124,202,-9
2285.557,300,298,291,308,1128,7356,14432,-124,202,-9
2296.565,301,297,291,307,1128,7356,14432,-124,202,-9
2300.553,301,297,291,308,1128,7356,14432,-124,202,-9
2309.103,301,297,292,310,1128,7356,14432,-124,202,-9
2309.103,302,297,292,310,1128,7356,14432,-124,202,-9
2315.913,302,296,292,310,1128,7356,14432,-124,202,-9
2319.063,301,297,292,310,1124,7224,14316,-41,7,-29
2330.48,302,297,292,311,1124,7224,14316,-41,7,-29
2332.868,303,297,292,311,1124,7224,14316,-41,7,-29
2342.5750000000003,303,297,293,311,1124,7224,14316,-41,7,-29
2342.5750000000003,304,296,294,311,1124,7224,14316,-41,7,-29
2348.964,306,296,294,311,1124,7224,14316,-41,7,-29
2352.464,306,297,295,310,1124,7224,14316,-41,7,-29
2363.229,307,298,295,310,1140,7276,14376,159,-43,-35
2363.229,307,298,296,311,1140,7276,14376,159,-43,-35
2374.33,307,298,297,310,1140,7276,14376,159,-43,-35
2376.8340000000003,307,299,297,309,1140,7276,14376,159,-43,-35
2384.837,308,299,297,309,1140,7276,14376,159,-43,-35
2386.371,308,299,298,309,1140,7276,14376,159,-43,-35
2396.645,308,299,298,309,1140,7276,14376,159,-43,-35
2400.672,308,299,299,310,1160,7336,14304,56,-33,0
2407.431,308,299,300,311,1160,7336,14304,56,-33,0
2409.995,308,299,300,311,1160,7336,14304,56,-33,0
2409.995,309,299,299,311,1160,7336,14304,56,-33,0
2419.6420000000003,309,299,299,312,1160,7336,14304,56,-33,0
2426.685,309,299,299,313,1160,7336,14304,56,-33,0
2430.196,310,299,300,313,1160,7336,14304,56,-33,0
2435.808,310,300,300,313,1160,7336,14304,56,-33,0
2440.825,309,300,301,314,1064,7348,14264,15,93,39
2446.8399999999997,308,300,302,316,1064,7348,14264,15,93,39
2451.91,308,300,302,316,1064,7348,14264,15,93,39
2454.934,308,300,302,317,1064,7348,14264,15,93,39
2463.9669999999996,309,300,302,317,1064,7348,14264,15,93,39
2463.9669999999996,309,300,302,318,1064,7348,14264,15,93,39
2471.4049999999997,310,300,302,318,1064,7348,14264,15,93,39
2474.77,309,300,302,318,1088,7308,14288,63,50,20
2485.854,310,300,302,319,1088,7308,14288,63,50,20
2485.854,311,300,302,320,1088,7308,14288,63,50,20
2496.95,311,300,301,320,1088,7308,14288,63,50,20
2500.73,311,301,301,320,1088,7308,14288,63,50,20
2500.73,312,301,300,322,1088,7308,14288,63,50,20
2509.097,312,301,300,322,1088,7308,14288,63,50,20
2517.102,314,302,300,322,1088,7308,14288,63,50,20
2519.4030000000002,314,302,300,322,1108,7348,14304,-17,58,-23
2526.0950000000003,315,303,300,323,1108,7348,14304,-17,58,-23
2530.258,315,303,300,322,1108,7348,14304,-17,58,-23
2537.453,315,303,301,322,1108,7348,14304,-17,58,-23
2541.275,315,304,300,322,1108,7348,14304,-17,58,-23
2545.682,315,304,301,323,1108,7348,14304,-17,58,-23
2553.048,314,304,301,322,1108,7348,14304,-17,58,-23
2553.048,315,303,300,321,1048,7156,14316,-67,93,0
2563.5319999999997,315,304,300,321,1048,7156,14316,-67,93,0
2569.442,315,304,301,321,1048,7156,14316,-67,93,0
2574.6099999999997,314,304,300,320,1048,7156,14316,-67,93,0
2577.835,314,304,300,320,1048,7156,14316,-67,93,0
2586.23,313,304,301,320,1048,7156,14316,-67,93,0
2589.9339999999997,313,304,300,320,1048,7156,14316,-67,93,0
2596.397,312,302,299,319,1048,7156,14316,-67,93,0
2600.925,313,303,298,319,1164,7348,14340,-22,14,-31
2608.445,312,303,298,318,1164,7348,14340,-22,14,-31
2613.6710000000003,311,303,298,318,1164,7348,14340,-22,14,-31
2619.769,309,304,298,317,1164,7348,14340,-22,14,-31
2619.769,309,303,298,316,1164,7348,14340,-22,14,-31
2630.202,308,303,297,316,1164,7348,14340,-22,14,-31
2630.646,306,303,297,315,1164,7348,14340,-22,14,-31
2641.444,306,303,297,314,1092,7236,14256,68,-43,41
2641.444,305,303,297,314,1092,7236,14256,68,-43,41
2652.258,304,303,296,314,1092,7236,14256,68,-43,41
2656.2389999999996,304,303,296,313,1092,7236,14256,68,-43,41
2656.2389999999996,303,303,296,312,1092,7236,14256,68,-43,41
2664.083,302,303,295,312,1092,7236,14256,68,-43,41
2674.4970000000003,302,302,295,312,1092,7236,14256,68,-43,41
2674.4970000000003,301,302,293,311,1092,7236,14256,68,-43,41
2685.638,301,301,292,312,1156,7480,14244,110,-128,-7
2685.638,301,301,292,311,1156,7480,14244,110,-128,-7
2693.586,300,301,291,310,1156,7480,14244,110,-128,-7
2700.9599999999996,299,302,291,310,1156,7480,14244,110,-128,-7
2705.875,298,302,290,310,1156,7480,14244,110,-128,-7
2708.054,298,301,290,310,1156,7480,14244,110,-128,-7
2719.518,297,301,289,309,1156,7480,14244,110,-128,-7
2719.518,296,301,289,310,1160,7288,14348,-160,91,-9
2730.859,297,301,290,310,1160,7288,14348,-160,91,-9
2730.859,296,300,288,310,1160,7288,14348,-160,91,-9
2737.877,296,300,287,309,1160,7288,14348,-160,91,-9
2741.096,296,301,287,310,1160,7288,14348,-160,91,-9
2752.664,295,300,288,311,1160,7288,14348,-160,91,-9
2752.664,295,300,287,310,1160,7288,14348,-160,91,-9
2763.275,295,299,286,310,1080,7392,14324,-153,169,-46
2766.581,295,300,287,311,1080,7392,14324,-153,169,-46
2775.7839999999997,296,300,288,310,1080,7392,14324,-153,169,-46
2775.7839999999997,295,300,288,310,1080,7392,14324,-153,169,-46
2785.618,296,299,289,310,1080,7392,14324,-153,169,-46
2793.97,296,300,289,310,1080,7392,14324,-153,169,-46
2796.621,296,300,289,309,1080,7392,14324,-153,169,-46
2801.139,296,300,289,309,1204,7284,14312,-70,16,33
2809.2540000000004,296,299,289,309,1204,7284,14312,-70,16,33
2809.2540000000004,298,299,290,310,1204,7284,14312,-70,16,33
2816.061,297,299,288,309,1204,7284,14312,-70,16,33
2819.097,298,299,288,309,1204,7284,14312,-70,16,33
2829.986,299,300,288,310,1204,7284,14312,-70,16,33
2829.986,298,299,287,310,1204,7284,14312,-70,16,33
2840.958,298,299,287,310,1128,7320,14332,41,-31,59
2844.574,298,299,287,310,1128,7320,14332,41,-31,59
2844.574,298,298,286,311,1128,7320,14332,41,-31,59
2853.258,298,298,285,310,1128,7320,14332,41,-31,59
2863.458,298,298,284,310,1128,7320,14332,41,-31,59
2863.458,298,298,284,311,1128,7320,14332,41,-31,59
2874.526,298,298,283,312,1128,7320,14332,41,-31,59
2876.84,297,298,283,311,1128,7320,14332,41,-31,59
2884.849,296,297,282,312,1120,7348,14280,-216,-125,43
2886.607,296,298,282,312,1120,7348,14280,-216,-125,43
2893.785,296,299,281,312,1120,7348,14280,-216,-125,43
2901.229,295,299,280,312,1120,7348,14280,-216,-125,43
2907.962,295,300,281,313,1120,7348,14280,-216,-125,43
2907.962,295,300,282,314,1120,7348,14280,-216,-125,43
2918.6169999999997,295,302,281,314,1120,7348,14280,-216,-125,43
2918.6169999999997,295,303,281,314,1092,7356,14372,-137,58,-19
2930.109,295,304,282,316,1092,7356,14372,-137,58,-19
2934.726,295,304,282,316,1092,7356,14372,-137,58,-19
2934.726,295,304,281,318,1092,7356,14372,-137,58,-19
2942.416,296,304,283,318,1092,7356,14372,-137,58,-19
2952.828,297,305,284,320,1092,7356,14372,-137,58,-19
2952.828,297,304,284,319,1092,7356,14372,-137,58,-19
2964.175,297,304,285,320,1056,7340,14392,8,-32,-50
2964.175,297,303,287,321,1056,7340,14392,8,-32,-50
2971.3129999999996,298,302,288,322,1056,7340,14392,8,-32,-50
2974.679,298,301,289,322,1056,7340,14392,8,-32,-50
2985.741,299,300,290,322,1056,7340,14392,8,-32,-50
2985.741,299,298,292,323,1056,7340,14392,8,-32,-50
2996.791,300,297,294,323,1056,7340,14392,8,-32,-50
3001.792,300,296,296,323,1136,7332,14400,179,-12,-89
3001.792,301,295,298,324,1136,7332,14400,179,-12,-89
3008.001,302,294,301,325,1136,7332,14400,179,-12,-89
3018.793,303,294,303,324,1136,7332,14400,179,-12,-89
3026.835,304,293,305,323,1136,7332,14400,179,-12,-89
3030.81,306,293,308,323,1136,7332,14400,179,-12,-89
3030.81,306,293,310,321,1136,7332,14400,179,-12,-89
3041.281,306,293,311,320,1136,7332,14400,179,-12,-89
3041.281,306,292,313,319,1228,7396,14192,196,-127,-1
3050.3300000000004,306,292,315,319,1228,7396,14192,196,-127,-1
3052.645,306,293,316,318,1228,7396,14192,196,-127,-1
3061.4919999999997,305,293,318,317,1228,7396,14192,196,-127,-1
3070.735,305,293,319,316,1228,7396,14192,196,-127,-1
3075.835,305,293,320,316,1228,7396,14192,196,-127,-1
3075.835,304,293,320,314,1228,7396,14192,196,-127,-1
3085.871,303,294,320,314,1236,7428,14296,-208,-4,0
3090.325,303,294,319,313,1236,7428,14296,-208,-4,0
3096.391,303,294,319,313,1236,7428,14296,-208,-4,0
3102.019,303,295,318,312,1236,7428,14296,-208,-4,0
3107.714,303,296,317,312,1236,7428,14296,-208,-4,0
3110.497,304,296,316,312,1236,7428,14296,-208,-4,0
3119.392,304,296,315,312,1236,7428,14296,-208,-4,0
3125.409,304,297,314,311,1108,7324,14272,-411,225,66
3127.024,305,298,313,310,1108,7324,14272,-411,225,66
3130.3160000000003,304,299,312,310,1108,7324,14272,-411,225,66
3141.6719999999996,304,300,311,308,1108,7324,14272,-411,225,66
3141.6719999999996,304,300,310,307,1108,7324,14272,-411,225,66
3152.404,305,302,310,306,1108,7324,14272,-411,225,66
3155.438,305,303,309,304,1108,7324,14272,-411,225,66
3164.23,304,304,308,303,1072,7400,14324,-124,87,103
3164.23,304,305,307,302,1072,7400,14324,-124,87,103
3172.6290000000004,304,305,306,301,1072,7400,14324,-124,87,103
3175.221,302,306,305,301,1072,7400,14324,-124,87,103
3185.705,303,307,305,301,1072,7400,14324,-124,87,103
3185.705,302,308,304,301,1072,7400,14324,-124,87,103
3197.7799999999997,303,309,304,301,1072,7400,14324,-124,87,103
3202.644,305,310,303,301,1124,7300,14320,-18,5,32
3206.589,306,309,303,303,1124,7300,14320,-18,5,32
3209.159,307,309,303,304,1124,7300,14320,-18,5,32
3219.033,308,309,303,304,1124,7300,14320,-18,5,32
3219.033,309,309,302,305,1124,7300,14320,-18,5,32
3230.172,310,309,302,306,1124,7300,14320,-18,5,32
3230.172,312,309,302,306,1124,7300,14320,-18,5,32
3237.331,312,307,301,307,1124,7300,14320,-18,5,32
3241.689,313,308,301,307,1200,7324,14328,58,-35,11
3251.7290000000003,314,307,301,308,1200,7324,14328,58,-35,11
3253.506,314,307,300,308,1200,7324,14328,58,-35,11
3261.654,311,307,300,308,1200,7324,14328,58,-35,11
3263.854,310,306,300,308,1200,7324,14328,58,-35,11
3270.015,309,305,299,309,1200,7324,14328,58,-35,11
3274.867,307,305,299,308,1200,7324,14328,58,-35,11
3278.613,306,304,300,308,1176,7436,14248,88,-27,4
3285.701,304,304,300,308,1176,7436,14248,88,-27,4
3285.701,303,304,300,308,1176,7436,14248,88,-27,4
3296.938,301,304,300,308,1176,7436,14248,88,-27,4
3302.5190000000002,300,304,300,308,1176,7436,14248,88,-27,4
3307.7740000000003,298,304,300,309,1176,7436,14248,88,-27,4
3307.7740000000003,298,303,299,309,1176,7436,14248,88,-27,4
3318.781,296,302,298,309,1176,7436,14248,88,-27,4
3323.673,296,302,298,309,1152,7428,14324,-65,-3,-72
3329.685,296,301,298,311,1152,7428,14324,-65,-3,-72
3331.547,295,300,297,311,1152,7428,14324,-65,-3,-72
3341.834,296,299,296,312,1152,7428,14324,-65,-3,-72
3341.834,296,299,296,313,1152,7428,14324,-65,-3,-72
3352.674,297,299,296,314,1152,7428,14324,-65,-3,-72
3352.674,298,299,295,315,1152,7428,14324,-65,-3,-72
3363.1980000000003,299,299,296,314,1156,7356,14328,-94,40,-71
3363.1980000000003,300,298,296,314,1156,7356,14328,-94,40,-71
3374.48,302,297,296,314,1156,7356,14328,-94,40,-71
3374.48,303,298,295,313,1156,7356,14328,-94,40,-71
3386.7560000000003,305,298,297,313,1156,7356,14328,-94,40,-71
3391.242,305,298,298,313,1156,7356,14328,-94,40,-71
3396.479,306,298,300,311,1156,7356,14328,-94,40,-71
3403.679,307,298,300,310,1156,7356,14328,-94,40,-71
3408.1389999999997,309,298,301,310,1172,7472,14288,20,166,-16
3409.152,311,298,303,309,1172,7472,14288,20,166,-16
3418.8869999999997,312,298,303,308,1172,7472,14288,20,166,-16
3421.621,313,299,303,308,1172,7472,14288,20,166,-16
3421.621,314,299,304,309,1172,7472,14288,20,166,-16
3431.063,314,299,304,309,1172,7472,14288,20,166,-16
3438.859,315,299,305,309,1172,7472,14288,20,166,-16
3441.3089999999997,315,300,305,309,1128,7444,14296,-5,-44,-6
3452.128,315,301,306,310,1128,7444,14296,-5,-44,-6
3454.3469999999998,315,301,306,310,1128,7444,14296,-5,-44,-6
3462.367,315,301,307,310,1128,7444,14296,-5,-44,-6
3464.603,314,302,307,310,1128,7444,14296,-5,-44,-6
3471.243,315,303,307,311,1128,7444,14296,-5,-44,-6
3474.547,313,304,307,311,1128,7444,14296,-5,-44,-6
3479.667,312,305,306,311,1212,7492,14328,0,3,-16
3485.9770000000003,310,305,307,312,1212,7492,14328,0,3,-16
3491.655,310,306,307,312,1212,7492,14328,0,3,-16
3496.7290000000003,309,306,306,312,1212,7492,14328,0,3,-16
3502.455,308,306,306,312,1212,7492,14328,0,3,-16
3507.826,306,306,306,312,1212,7492,14328,0,3,-16
3511.679,306,306,305,313,1212,7492,14328,0,3,-16
3511.679,303,307,304,312,1212,7492,14328,0,3,-16
3521.111,302,307,303,312,1132,7396,14236,-111,38,1
3530.465,300,307,303,312,1132,7396,14236,-111,38,1
3530.465,300,307,302,312,1132,7396,14236,-111,38,1
3541.372,298,306,301,312,1132,7396,14236,-111,38,1
3541.372,299,305,300,312,1132,7396,14236,-111,38,1
3550.3239999999996,298,306,300,313,1132,7396,14236,-111,38,1
3552.35,297,305,299,312,1132,7396,14236,-111,38,1
3563.599,296,304,298,312,1132,7396,14236,-111,38,1
3563.599,295,303,297,313,1184,7484,14300,-91,25,14
3574.442,296,302,296,313,1184,7484,14300,-91,25,14
3574.442,296,302,296,311,1184,7484,14300,-91,25,14
3582.2110000000002,296,300,295,311,1184,7484,14300,-91,25,14
3585.933,296,300,295,312,1184,7484,14300,-91,25,14
3596.607,297,299,294,311,1184,7484,14300,-91,25,14
3596.607,298,298,294,311,1184,7484,14300,-91,25,14
3607.3650000000002,299,297,292,311,1140,7360,14264,69,-81,-4
3607.3650000000002,302,296,292,311,1140,7360,14264,69,-81,-4
3614.741,302,296,291,311,1140,7360,14264,69,-81,-4
3618.9269999999997,304,295,290,310,1140,7360,14264,69,-81,-4
3622.9939999999997,307,294,290,310,1140,7360,14264,69,-81,-4
3631.7309999999998,308,294,291,310,1140,7360,14264,69,-81,-4
3637.121,309,294,291,309,1140,7360,14264,69,-81,-4
3641.2599999999998,310,294,291,309,1116,7452,14256,46,-76,-30
3647.41,310,294,291,310,1116,7452,14256,46,-76,-30
3652.1710000000003,311,294,291,310,1116,7452,14256,46,-76,-30
3661.7799999999997,310,294,290,309,1116,7452,14256,46,-76,-30
3663.8700000000003,311,294,291,309,1116,7452,14256,46,-76,-30
3663.8700000000003,312,294,293,310,1116,7452,14256,46,-76,-30
3674.373,312,294,293,309,1116,7452,14256,46,-76,-30
3682.787,313,295,294,308,1116,7452,14256,46,-76,-30
3685.603,313,295,294,308,1216,7396,14324,-150,40,-14
3694.688,312,295,295,309,1216,7396,14324,-150,40,-14
3696.348,311,295,294,308,1216,7396,14324,-150,40,-14
3702.611,310,296,294,307,1216,7396,14324,-150,40,-14
3708.8390000000004,309,296,295,308,1216,7396,14324,-150,40,-14
3708.8390000000004,310,296,294,308,1216,7396,14324,-150,40,-14
3719.051,308,296,295,307,1216,7396,14324,-150,40,-14
3725.26,308,297,295,308,1164,7464,14276,-72,54,-24
3729.938,306,297,295,308,1164,7464,14276,-72,54,-24
3739.5809999999997,305,298,295,308,1164,7464,14276,-72,54,-24
3741.918,305,298,296,308,1164,7464,14276,-72,54,-24
3750.451,304,299,296,308,1164,7464,14276,-72,54,-24
3753.2169999999996,304,299,297,308,1164,7464,14276,-72,54,-24
3758.0049999999997,303,299,297,308,1164,7464,14276,-72,54,-24
3762.978,304,300,298,308,1148,7528,14248,5,-4,20
3765.887,304,300,298,309,1148,7528,14248,5,-4,20
3775.386,303,300,298,309,1148,7528,14248,5,-4,20
3775.386,303,300,298,309,1148,7528,14248,5,-4,20
3785.223,303,300,298,309,1148,7528,14248,5,-4,20
3785.701,303,300,299,309,1148,7528,14248,5,-4,20
3796.764,303,300,299,309,1148,7528,14248,5,-4,20
3798.5009999999997,302,300,299,309,1148,7528,14248,5,-4,20
3807.393,303,300,299,309,1176,7436,14276,-21,-58,4
3810.4719999999998,303,299,300,310,1176,7436,14276,-21,-58,4
3810.4719999999998,303,299,300,309,1176,7436,14276,-21,-58,4
3820.16,303,300,300,309,1176,7436,14276,-21,-58,4
3828.3849999999998,303,300,300,310,1176,7436,14276,-21,-58,4
3830.926,304,300,301,310,1176,7436,14276,-21,-58,4
3839.028,304,298,299,310,1176,7436,14276,-21,-58,4
3840.781,305,299,300,310,1204,7492,14276,-68,3,-23
3847.5640000000003,305,299,301,310,1204,7492,14276,-68,3,-23
3852.594,306,299,301,310,1204,7492,14276,-68,3,-23
3855.617,306,299,301,310,1204,7492,14276,-68,3,-23
3863.945,306,299,301,310,1204,7492,14276,-68,3,-23
3863.945,307,299,301,310,1204,7492,14276,-68,3,-23
3874.7850000000003,307,299,301,310,1204,7492,14276,-68,3,-23
3880.937,307,299,300,309,1204,7492,14276,-68,3,-23
3885.563,308,298,301,310,1204,7480,14228,-59,-35,-23
3890.016,308,298,301,310,1204,7480,14228,-59,-35,-23
3897.581,308,298,301,310,1204,7480,14228,-59,-35,-23
3902.671,307,299,301,310,1204,7480,14228,-59,-35,-23
3908.009,306,299,301,310,1204,7480,14228,-59,-35,-23
3916.292,306,300,301,310,1204,7480,14228,-59,-35,-23
3919.349,305,300,301,309,1204,7480,14228,-59,-35,-23
3928.01,305,300,301,310,1180,7444,14248,-18,-59,0
3929.739,305,300,300,310,1180,7444,14248,-18,-59,0
3933.603,304,301,300,309,1180,7444,14248,-18,-59,0
3942.253,303,300,300,309,1180,7444,14248,-18,-59,0
3942.253,302,301,300,310,1180,7444,14248,-18,-59,0
3952.417,302,301,300,310,1180,7444,14248,-18,-59,0
3960.5,301,301,299,309,1180,7444,14248,-18,-59,0
3963.076,300,301,299,309,1256,7420,14236,-4,-115,28
3963.076,299,301,298,309,1256,7420,14236,-4,-115,28
3974.4410000000003,299,301,299,309,1256,7420,14236,-4,-115,28
3979.399,299,302,299,308,1256,7420,14236,-4,-115,28
3985.405,298,302,298,309,1256,7420,14236,-4,-115,28
3990.686,296,302,298,310,1256,7420,14236,-4,-115,28
3996.533,295,302,298,308,1256,7420,14236,-4,-115,28
4003.2439999999997,295,302,297,308,1256,7420,14236,-4,-115,28
4008.8109999999997,295,303,298,309,1180,7452,14224,-128,10,16
4008.8109999999997,296,302,297,308,1180,7452,14224,-128,10,16
4018.948,295,302,297,308,1180,7452,14224,-128,10,16
4027.0260000000003,295,302,297,308,1180,7452,14224,-128,10,16
4029.853,295,302,298,309,1180,7452,14224,-128,10,16
4038.951,296,302,298,308,1180,7452,14224,-128,10,16
4041.335,295,301,298,308,1180,7452,14224,-128,10,16
4043.7079999999996,296,301,298,309,1224,7500,14312,-130,87,14
4052.329,296,301,299,309,1224,7500,14312,-130,87,14
4056.324,297,301,299,309,1224,7500,14312,-130,87,14
4063.58,298,301,299,309,1224,7500,14312,-130,87,14
4064.761,299,300,299,310,1224,7500,14312,-130,87,14
4075.0909999999994,298,301,300,310,1224,7500,14312,-130,87,14
4075.0909999999994,299,301,300,310,1224,7500,14312,-130,87,14
4085.8439999999996,300,301,301,310,1132,7400,14264,-87,52,28
4089.573,302,302,302,311,1132,7400,14264,-87,52,28
4089.573,302,301,302,311,1132,7400,14264,-87,52,28
4103.8189999999995,304,301,302,312,1132,7400,14264,-87,52,28
4107.933,305,301,302,312,1132,7400,14264,-87,52,28
4107.933,306,301,302,312,1132,7400,14264,-87,52,28
4119.2029999999995,306,301,302,312,1132,7400,14264,-87,52,28
4119.2029999999995,306,301,302,311,1132,7400,14264,-87,52,28
4126.509,307,302,302,312,1224,7520,14212,65,-73,-17
4130.0160000000005,307,302,303,313,1224,7520,14212,65,-73,-17
4140.965999999999,307,301,303,312,1224,7520,14212,65,-73,-17
4140.965999999999,308,302,303,312,1224,7520,14212,65,-73,-17
4153.44,308,302,303,312,1224,7520,14212,65,-73,-17
4155.206999999999,307,303,303,312,1224,7520,14212,65,-73,-17
4155.206999999999,306,303,303,311,1224,7520,14212,65,-73,-17
4164.459,306,303,303,311,1188,7432,14264,-86,13,2
4171.772,306,304,303,312,1188,7432,14264,-86,13,2
4174.635,305,303,303,311,1188,7432,14264,-86,13,2
4185.788,305,303,302,310,1188,7432,14264,-86,13,2
4186.411,305,303,303,310,1188,7432,14264,-86,13,2
4194.938999999999,304,303,304,311,1188,7432,14264,-86,13,2
4197.644,303,303,303,310,1188,7432,14264,-86,13,2
4204.956,303,303,304,310,1236,7460,14276,-66,93,-24
4207.824,302,303,305,310,1236,7460,14276,-66,93,-24
4207.824,302,302,304,310,1236,7460,14276,-66,93,-24
4218.785,300,302,304,310,1236,7460,14276,-66,93,-24
4228.1050000000005,299,302,304,309,1236,7460,14276,-66,93,-24
4229.258,299,302,304,309,1236,7460,14276,-66,93,-24
4232.732999999999,297,302,304,309,1236,7460,14276,-66,93,-24
4242.365000000001,296,301,303,308,1236,7460,14276,-66,93,-24
4242.365000000001,295,302,303,309,1168,7380,14260,1,-11,14
4252.379,294,302,302,308,1168,7380,14260,1,-11,14
4252.379,294,301,302,308,1168,7380,14260,1,-11,14
4263.804999999999,293,302,302,307,1168,7380,14260,1,-11,14
4272.171,293,301,302,308,1168,7380,14260,1,-11,14
4274.524,293,301,302,308,1168,7380,14260,1,-11,14
4274.524,293,301,301,307,1168,7380,14260,1,-11,14
4282.179,293,301,302,307,1232,7552,14232,40,-93,-30
4285.656999999999,292,301,302,308,1232,7552,14232,40,-93,-30
4296.657999999999,292,301,302,307,1232,7552,14232,40,-93,-30
4296.657999999999,292,300,301,307,1232,7552,14232,40,-93,-30
4307.833,292,300,302,307,1232,7552,14232,40,-93,-30
4307.833,293,300,302,307,1232,7552,14232,40,-93,-30
4320.042,293,300,302,307,1232,7552,14232,40,-93,-30
4320.042,293,300,302,307,1232,7552,14232,40,-93,-30
4329.943,292,300,302,307,1188,7468,14244,-68,77,-1
4329.995,292,300,302,308,1188,7468,14244,-68,77,-1
4341.047,292,301,302,306,1188,7468,14244,-68,77,-1
4341.047,293,301,303,307,1188,7468,14244,-68,77,-1
4347.741,292,301,303,307,1188,7468,14244,-68,77,-1
4352.597000000001,293,301,303,307,1188,7468,14244,-68,77,-1
4360.186,291,301,302,307,1188,7468,14244,-68,77,-1
4363.352,292,301,303,307,1224,7508,14184,-15,2,-20
4374.357,292,302,303,307,1224,7508,14184,-15,2,-20
4375.695000000001,291,301,302,307,1224,7508,14184,-15,2,-20
4383.715999999999,291,301,302,307,1224,7508,14184,-15,2,-20
4385.581,291,302,303,307,1224,7508,14184,-15,2,-20
4392.316,291,302,303,308,1224,7508,14184,-15,2,-20
4397.079,292,302,303,307,1224,7508,14184,-15,2,-20
4403.735000000001,292,302,304,307,1212,7428,14320,-66,32,-35
4407.860000000001,292,302,304,308,1212,7428,14320,-66,32,-35
4407.860000000001,291,303,304,308,1212,7428,14320,-66,32,-35
4419.295,291,302,303,307,1212,7428,14320,-66,32,-35
4425.752,291,302,303,307,1212,7428,14320,-66,32,-35
4430.267,291,302,303,308,1212,7428,14320,-66,32,-35
4433.608,291,302,303,307,1212,7428,14320,-66,32,-35
4441.290999999999,292,302,303,307,1212,7428,14320,-66,32,-35
4441.290999999999,292,302,304,307,1252,7556,14196,-29,-48,7
4452.266,291,303,303,308,1252,7556,14196,-29,-48,7
4458.597,291,302,303,307,1252,7556,14196,-29,-48,7
4463.35,292,302,303,307,1252,7556,14196,-29,-48,7
4472.799,292,302,303,308,1252,7556,14196,-29,-48,7
4475.086,292,302,302,308,1252,7556,14196,-29,-48,7
4475.086,292,302,302,307,1252,7556,14196,-29,-48,7
4485.544,293,302,302,307,1204,7452,14220,-111,35,5
4493.647,293,302,302,308,1204,7452,14220,-111,35,5
4496.375,294,302,302,308,1204,7452,14220,-111,35,5
4503.856,294,301,300,307,1204,7452,14220,-111,35,5
4507.413,295,301,300,307,1204,7452,14220,-111,35,5
4510.84,295,302,300,307,1204,7452,14220,-111,35,5
4518.431,296,302,301,307,1204,7452,14220,-111,35,5
4523.625,297,302,301,307,1204,7452,14220,-111,35,5
4530.054,297,301,301,307,1236,7536,14236,-74,53,8
4531.629,299,300,301,308,1236,7536,14236,-74,53,8
4541.101000000001,298,301,300,307,1236,7536,14236,-74,53,8
4543.574,299,301,300,306,1236,7536,14236,-74,53,8
4543.574,298,301,301,307,1236,7536,14236,-74,53,8
4552.681,299,301,300,307,1236,7536,14236,-74,53,8
4560.272,300,301,300,307,1236,7536,14236,-74,53,8
4564.12,301,300,300,307,1244,7496,14220,-67,-15,-38
4574.976000000001,302,301,300,307,1244,7496,14220,-67,-15,-38
4576.644,302,301,300,307,1244,7496,14220,-67,-15,-38
4576.644,301,301,300,306,1244,7496,14220,-67,-15,-38
4586.255,302,302,301,307,1244,7496,14220,-67,-15,-38
4593.062,302,302,301,307,1244,7496,14220,-67,-15,-38
4596.802000000001,302,301,300,306,1244,7496,14220,-67,-15,-38
4607.102,303,302,301,307,1244,7464,14300,-121,69,-5
4609.16,303,301,301,308,1244,7464,14300,-121,69,-5
4619.027,304,302,301,307,1244,7464,14300,-121,69,-5
4621.425,304,302,301,307,1244,7464,14300,-121,69,-5
4621.425,304,303,301,307,1244,7464,14300,-121,69,-5
4630.449,303,303,302,307,1244,7464,14300,-121,69,-5
4640.914000000001,303,303,301,307,1244,7464,14300,-121,69,-5
4640.914000000001,303,303,301,307,1244,7464,14300,-121,69,-5
4646.772999999999,302,303,301,307,1280,7508,14256,-106,13,-28
4655.884999999999,303,303,300,307,1280,7508,14256,-106,13,-28
4661.347,302,303,300,307,1280,7508,14256,-106,13,-28
4663.482,303,303,300,307,1280,7508,14256,-106,13,-28
4672.418000000001,302,303,300,307,1280,7508,14256,-106,13,-28
4674.533,302,304,299,307,1280,7508,14256,-106,13,-28
4685.787,302,304,300,307,1280,7508,14256,-106,13,-28
4686.431,302,303,300,307,1272,7496,14188,-57,63,-33
4696.421,302,304,300,307,1272,7496,14188,-57,63,-33
4699.360000000001,303,303,299,307,1272,7496,14188,-57,63,-33
4705.783,302,302,300,307,1272,7496,14188,-57,63,-33
4707.380999999999,303,302,299,307,1272,7496,14188,-57,63,-33
4718.937000000001,302,303,300,307,1272,7496,14188,-57,63,-33
4718.991,302,303,300,307,1272,7496,14188,-57,63,-33
4729.568,302,303,300,307,1204,7444,14200,-33,-70,10
4729.568,302,303,301,307,1204,7444,14200,-33,-70,10
4739.170999999999,302,303,300,306,1204,7444,14200,-33,-70,10
4746.607,304,302,300,306,1204,7444,14200,-33,-70,10
4751.121,303,302,301,307,1204,7444,14200,-33,-70,10
4755.353,304,302,300,307,1204,7444,14200,-33,-70,10
4763.356,303,302,300,306,1204,7444,14200,-33,-70,10
4764.907,304,302,301,306,1192,7596,14276,-29,76,-28
4772.795,304,302,301,306,1192,7596,14276,-29,76,-28
4775.375999999999,304,302,301,307,1192,7596,14276,-29,76,-28
4783.592,304,302,300,306,1192,7596,14276,-29,76,-28
4785.376,305,302,300,306,1192,7596,14276,-29,76,-28
4790.497,305,302,301,306,1192,7596,14276,-29,76,-28
4797.372,305,302,302,306,1192,7596,14276,-29,76,-28
4807.547,304,303,302,306,1192,7596,14276,-29,76,-28
4810.278,305,302,302,306,1244,7496,14180,-83,20,-21
4810.278,306,302,303,306,1244,7496,14180,-83,20,-21
4820.195,305,303,303,306,1244,7496,14180,-83,20,-21
4826.881,306,303,304,306,1244,7496,14180,-83,20,-21
4829.905,307,303,304,307,1244,7496,14180,-83,20,-21
4840.9310000000005,306,302,304,306,1244,7496,14180,-83,20,-21
4840.9310000000005,305,303,304,306,1244,7496,14180,-83,20,-21
4847.405,306,304,304,306,1272,7484,14256,-45,28,-19
4852.528,306,303,304,307,1272,7484,14256,-45,28,-19
4859.897,306,303,303,306,1272,7484,14256,-45,28,-19
4863.420999999999,306,303,304,306,1272,7484,14256,-45,28,-19
4868.123,306,303,304,307,1272,7484,14256,-45,28,-19
4874.388,307,303,303,306,1272,7484,14256,-45,28,-19
4881.2,307,303,303,306,1272,7484,14256,-45,28,-19
4885.201,307,303,303,306,1232,7556,14172,14,-25,-40
4892.1539999999995,308,303,304,307,1232,7556,14172,14,-25,-40
4896.789,307,303,304,306,1232,7556,14172,14,-25,-40
4905.395,306,303,304,306,1232,7556,14172,14,-25,-40
4908.299,308,302,304,306,1232,7556,14172,14,-25,-40
4908.299,308,303,304,307,1232,7556,14172,14,-25,-40
4919.134,308,303,304,306,1232,7556,14172,14,-25,-40
4926.053,307,303,304,306,1184,7464,14216,-91,69,0
4930.034,307,302,305,307,1184,7464,14216,-91,69,0
4933.514999999999,307,303,305,307,1184,7464,14216,-91,69,0
4941.496,307,302,304,306,1184,7464,14216,-91,69,0
4941.496,307,302,304,306,1184,7464,14216,-91,69,0
4952.36,307,302,304,307,1184,7464,14216,-91,69,0
4960.410000000001,307,302,304,307,1184,7464,14216,-91,69,0
4963.579000000001,307,301,304,306,1184,7464,14216,-91,69,0
4963.579000000001,307,302,304,307,1228,7488,14252,-3,73,-38
4974.673,307,302,304,307,1228,7488,14252,-3,73,-38
4977.392,307,302,304,307,1228,7488,14252,-3,73,-38
4983.599,306,301,304,306,1228,7488,14252,-3,73,-38
4985.729,307,301,304,307,1228,7488,14252,-3,73,-38
4996.838000000001,308,301,303,307,1228,7488,14252,-3,73,-38
4996.838000000001,307,301,303,307,1228,7488,14252,-3,73,-38
5008.128,308,300,303,307,1188,7520,14224,-39,52,-11
5008.128,307,300,302,307,1188,7520,14224,-39,52,-11
5015.183,307,300,302,307,1188,7520,14224,-39,52,-11
5018.957,307,301,302,306,1188,7520,14224,-39,52,-11
5030.123,307,301,303,306,1188,7520,14224,-39,52,-11
5030.123,307,301,303,306,1188,7520,14224,-39,52,-11
5040.956999999999,307,301,302,306,1188,7520,14224,-39,52,-11
5040.956999999999,307,301,302,306,1188,7520,14224,-39,52,-11
5048.507,307,301,302,306,1236,7548,14160,28,-41,4
5052.715,307,300,302,306,1236,7548,14160,28,-41,4
5060.3460000000005,307,300,302,306,1236,7548,14160,28,-41,4
5063.365,306,301,302,306,1236,7548,14160,28,-41,4
5068.7660000000005,306,301,302,306,1236,7548,14160,28,-41,4
5074.33,306,301,303,306,1236,7548,14160,28,-41,4
5074.33,307,301,302,305,1236,7548,14160,28,-41,4
5086.1140000000005,307,301,302,306,1260,7600,14268,-21,13,-3
5094.791,307,301,302,306,1260,7600,14268,-21,13,-3
5096.666,306,301,301,306,1260,7600,14268,-21,13,-3
5096.666,305,301,301,305,1260,7600,14268,-21,13,-3
5105.951,306,302,301,306,1260,7600,14268,-21,13,-3
5113.963,306,301,301,306,1260,7600,14268,-21,13,-3
5119.125,305,302,301,306,1260,7600,14268,-21,13,-3
5124.561,306,301,300,306,1260,7600,14268,-21,13,-3
5129.004,307,301,301,306,1196,7544,14112,-42,16,-22
5133.686,307,301,300,306,1196,7544,14112,-42,16,-22
5139.967000000001,306,301,300,306,1196,7544,14112,-42,16,-22
5145.534,307,301,301,306,1196,7544,14112,-42,16,-22
5150.845,307,301,300,307,1196,7544,14112,-42,16,-22
5150.845,307,301,300,306,1196,7544,14112,-42,16,-22
5163.635,307,302,300,306,1196,7544,14112,-42,16,-22
5169.334,307,301,301,306,1272,7536,14228,-91,39,-14
5174.732,308,301,301,307,1272,7536,14228,-91,39,-14
5174.732,308,300,300,306,1272,7536,14228,-91,39,-14
5185.138,307,301,300,306,1272,7536,14228,-91,39,-14
5193.183,308,300,300,306,1272,7536,14228,-91,39,-14
5195.842,307,300,300,306,1272,7536,14228,-91,39,-14
5195.842,308,300,300,306,1272,7536,14228,-91,39,-14
5207.282,308,300,300,305,1228,7520,14140,-74,39,-11
5211.896000000001,310,300,300,305,1228,7520,14140,-74,39,-11
5218.558,309,300,300,305,1228,7520,14140,-74,39,-11
5219.8,310,300,300,305,1228,7520,14140,-74,39,-11
5229.313,310,300,299,306,1228,7520,14140,-74,39,-11
5229.313,310,300,299,306,1228,7520,14140,-74,39,-11
5240.444,310,300,299,305,1228,7520,14140,-74,39,-11
5240.444,310,300,299,305,1228,7520,14140,-74,39,-11
5251.344999999999,310,300,300,306,1232,7588,14200,-45,33,13
5259.346,311,301,299,305,1232,7588,14200,-45,33,13
5262.6179999999995,310,300,299,304,1232,7588,14200,-45,33,13
5264.8369999999995,311,300,299,305,1232,7588,14200,-45,33,13
5274.351000000001,310,301,300,305,1232,7588,14200,-45,33,13
5274.351000000001,310,301,299,305,1232,7588,14200,-45,33,13
5284.134,310,301,299,304,1232,7588,14200,-45,33,13
5284.923,310,301,299,305,1292,7516,14240,-90,12,-22
5295.664000000001,310,301,299,305,1292,7516,14240,-90,12,-22
5295.664000000001,310,301,299,304,1292,7516,14240,-90,12,-22
5306.5740000000005,310,301,299,304,1292,7516,14240,-90,12,-22
5306.5740000000005,310,301,300,305,1292,7516,14240,-90,12,-22
5313.834,310,301,300,305,1292,7516,14240,-90,12,-22
5317.963,309,301,300,304,1292,7516,14240,-90,12,-22
5328.615,309,301,300,304,1232,7544,14236,-84,64,-13
5330.737,309,301,301,305,1232,7544,14236,-84,64,-13
5341.347,309,301,300,304,1232,7544,14236,-84,64,-13
5341.347,308,300,300,304,1232,7544,14236,-84,64,-13
5348.347000000001,308,301,300,304,1232,7544,14236,-84,64,-13
5351.594,308,301,300,305,1232,7544,14236,-84,64,-13
5361.983,307,301,300,304,1232,7544,14236,-84,64,-13
5363.104,307,301,299,304,1232,7544,14236,-84,64,-13
5373.557,306,301,300,305,1228,7508,14160,-86,-18,1
5373.557,306,302,299,304,1228,7508,14160,-86,-18,1
5384.78,306,302,298,304,1228,7508,14160,-86,-18,1
5384.78,306,302,299,304,1228,7508,14160,-86,-18,1
5391.924999999999,305,302,299,305,1228,7508,14160,-86,-18,1
5395.853,306,302,299,305,1228,7508,14160,-86,-18,1
5407.068,305,302,300,304,1228,7508,14160,-86,-18,1
5407.068,304,302,300,305,1212,7548,14208,-48,86,1
5407.068,305,302,300,304,1212,7548,14208,-48,86,1
5418.233,304,303,300,304,1212,7548,14208,-48,86,1
5425.516,305,303,300,304,1212,7548,14208,-48,86,1
5429.222000000001,305,304,301,304,1212,7548,14208,-48,86,1
5433.424999999999,304,304,301,305,1212,7548,14208,-48,86,1
5440.419999999999,303,304,301,304,1212,7548,14208,-48,86,1
5444.664000000001,304,303,301,304,1212,7548,14208,-48,86,1
5450.894,304,304,301,305,1184,7568,14116,-67,-31,2
5450.894,303,304,301,305,1184,7568,14116,-67,-31,2
5462.552,303,304,300,305,1184,7568,14116,-67,-31,2
5462.552,303,304,301,305,1184,7568,14116,-67,-31,2
5474.326,303,304,301,305,1184,7568,14116,-67,-31,2
5474.326,304,304,301,305,1184,7568,14116,-67,-31,2
5484.456,303,305,302,305,1184,7568,14116,-67,-31,2
5492.503,303,305,302,305,1208,7588,14252,-110,94,-20
5495.987999999999,303,305,303,306,1208,7588,14252,-110,94,-20
5497.954,303,305,302,305,1208,7588,14252,-110,94,-20
5506.784,303,305,302,305,1208,7588,14252,-110,94,-20
5510.187,303,305,303,306,1208,7588,14252,-110,94,-20
5517.627,304,305,303,306,1208,7588,14252,-110,94,-20
5523.223,303,305,303,305,1208,7588,14252,-110,94,-20
5528.857,303,305,302,305,1232,7536,14192,-66,-26,14
5531.399,303,306,302,305,1232,7536,14192,-66,-26,14
5540.329,304,306,302,305,1232,7536,14192,-66,-26,14
5540.329,303,306,302,305,1232,7536,14192,-66,-26,14
5552.016,304,305,302,306,1232,7536,14192,-66,-26,14
5552.016,304,305,302,307,1232,7536,14192,-66,-26,14
5562.612999999999,304,306,302,306,1232,7536,14192,-66,-26,14
5570.745,304,305,302,306,1252,7568,14220,-40,59,-44
5573.55,304,305,302,307,1252,7568,14220,-40,59,-44
5573.55,304,306,302,306,1252,7568,14220,-40,59,-44
5585.291,304,306,301,306,1252,7568,14220,-40,59,-44
5588.289,304,305,302,306,1252,7568,14220,-40,59,-44
5595.168000000001,306,305,302,307,1252,7568,14220,-40,59,-44
5595.168000000001,305,306,301,306,1252,7568,14220,-40,59,-44
5606.817999999999,305,305,302,306,1252,7568,14220,-40,59,-44
5606.817999999999,305,306,302,307,1264,7576,14164,-37,-27,-2
5618.389999999999,305,306,302,307,1264,7576,14164,-37,-27,-2
5618.389999999999,304,305,301,306,1264,7576,14164,-37,-27,-2
5626.238,304,305,301,306,1264,7576,14164,-37,-27,-2
5629.464,304,306,302,307,1264,7576,14164,-37,-27,-2
5640.244,305,305,302,306,1264,7576,14164,-37,-27,-2
5640.244,305,305,302,306,1264,7576,14164,-37,-27,-2
5650.811,305,305,302,306,1276,7616,14144,-84,72,-7
5650.811,305,306,302,307,1276,7616,14144,-84,72,-7
5659.414,304,306,302,306,1276,7616,14144,-84,72,-7
5662.641,304,305,301,306,1276,7616,14144,-84,72,-7
5670.643,304,305,302,307,1276,7616,14144,-84,72,-7
5674.991999999999,305,305,303,307,1276,7616,14144,-84,72,-7
5684.552,305,305,302,306,1276,7616,14144,-84,72,-7
5686.670999999999,304,305,302,306,1208,7540,14164,-57,43,-20
5686.670999999999,305,305,303,307,1208,7540,14164,-57,43,-20
5696.303,305,305,303,307,1208,7540,14164,-57,43,-20
5705.798,305,304,303,306,1208,7540,14164,-57,43,-20
5706.843,305,304,304,306,1208,7540,14164,-57,43,-20
5718.358,305,304,304,307,1208,7540,14164,-57,43,-20
5718.358,306,304,304,306,1208,7540,14164,-57,43,-20
5724.184,306,304,304,306,1208,7540,14164,-57,43,-20
5728.5599999999995,306,304,304,306,1280,7604,14160,-42,29,-30
5735.595,306,304,304,306,1280,7604,14160,-42,29,-30
5740.529,305,304,304,306,1280,7604,14160,-42,29,-30
5750.7210000000005,305,304,304,306,1280,7604,14160,-42,29,-30
5751.338,305,304,304,307,1280,7604,14160,-42,29,-30
5762.915999999999,304,304,303,306,1280,7604,14160,-42,29,-30
5762.915999999999,305,303,303,306,1280,7604,14160,-42,29,-30
5762.915999999999,305,303,304,306,1216,7584,14180,-56,36,-34
5773.863,305,304,303,306,1216,7584,14180,-56,36,-34
5781.222,305,303,303,305,1216,7584,14180,-56,36,-34
5785.1990000000005,304,304,303,306,1216,7584,14180,-56,36,-34
5795.291,304,303,303,306,1216,7584,14180,-56,36,-34
5796.603,305,303,303,306,1216,7584,14180,-56,36,-34
5804.709,304,303,303,305,1216,7584,14180,-56,36,-34
5806.967000000001,305,303,303,306,1224,7512,14172,-90,49,3
5814.1449999999995,306,303,303,306,1224,7512,14172,-90,49,3
5818.569,305,303,304,306,1224,7512,14172,-90,49,3
5822.655,305,303,303,306,1224,7512,14172,-90,49,3
5830.154,304,303,304,306,1224,7512,14172,-90,49,3
5830.154,304,303,304,306,1224,7512,14172,-90,49,3
5840.179,304,303,304,306,1224,7512,14172,-90,49,3
5849.077,303,303,304,306,1224,7512,14172,-90,49,3
5851.535,304,303,304,306,1256,7616,14176,-122,60,-2
5854.683,303,303,304,306,1256,7616,14176,-122,60,-2
5862.683,303,302,303,305,1256,7616,14176,-122,60,-2
5866.876,303,303,303,306,1256,7616,14176,-122,60,-2
5873.53,303,303,303,306,1256,7616,14176,-122,60,-2
5875.231000000001,304,303,303,306,1256,7616,14176,-122,60,-2
5884.281,304,303,303,306,1256,7616,14176,-122,60,-2
5884.281,304,303,303,306,1236,7580,14272,-175,155,-29
5896.228,304,302,304,305,1236,7580,14272,-175,155,-29
5896.228,305,303,303,305,1236,7580,14272,-175,155,-29
5907.414,304,303,303,305,1236,7580,14272,-175,155,-29
5912.383,304,303,303,305,1236,7580,14272,-175,155,-29
5917.429,305,303,302,305,1236,7580,14272,-175,155,-29
5917.429,304,303,302,305,1236,7580,14272,-175,155,-29
5929.372,305,302,303,305,1244,7544,14172,-71,62,3
5929.372,305,302,302,306,1244,7544,14172,-71,62,3
5940.722,306,302,302,305,1244,7544,14172,-71,62,3
5940.722,307,302,303,305,1244,7544,14172,-71,62,3
5950.646,307,302,304,306,1244,7544,14172,-71,62,3
5953.567,307,303,304,306,1244,7544,14172,-71,62,3
5962.435,308,303,304,305,1244,7544,14172,-71,62,3
5962.435,308,303,304,305,1244,7544,14172,-71,62,3
5969.313,308,302,304,306,1272,7516,14204,-68,34,1
5973.807,309,302,303,305,1272,7516,14204,-68,34,1
5984.353999999999,308,302,303,305,1272,7516,14204,-68,34,1
5985.394,309,302,304,305,1272,7516,14204,-68,34,1
5995.631,308,302,304,306,1272,7516,14204,-68,34,1
5995.631,308,303,304,305,1272,7516,14204,-68,34,1
6002.686,308,302,304,305,1272,7516,14204,-68,34,1
6007.217,308,302,304,305,1288,7572,14220,26,2,13
6010.084,308,302,304,306,1288,7572,14220,26,2,13
6018.149,308,302,304,305,1288,7572,14220,26,2,13
6018.149,308,302,304,305,1288,7572,14220,26,2,13
6029.238,308,302,304,306,1288,7572,14220,26,2,13
6037.282,309,302,304,306,1288,7572,14220,26,2,13
6040.888,308,302,303,306,1288,7572,14220,26,2,13
6043.04,307,302,303,306,1288,7572,14220,26,2,13
6050.547,307,302,304,306,1260,7580,14176,-69,-9,5
6057.737,307,303,304,306,1260,7580,14176,-69,-9,5
6061.971,307,302,304,306,1260,7580,14176,-69,-9,5
6066.714,307,302,304,306,1260,7580,14176,-69,-9,5
6074.167,307,302,304,306,1260,7580,14176,-69,-9,5
6078.615,307,302,304,307,1260,7580,14176,-69,-9,5
6078.615,307,302,303,306,1260,7580,14176,-69,-9,5
6085.022999999999,306,302,303,306,1260,7580,14176,-69,-9,5
6092.653,306,302,303,307,1196,7580,14156,-87,69,-16
6096.165,306,302,303,306,1196,7580,14156,-87,69,-16
6106.9490000000005,304,302,302,306,1196,7580,14156,-87,69,-16
6107.294,305,302,302,307,1196,7580,14156,-87,69,-16
6112.469,305,301,303,306,1196,7580,14156,-87,69,-16
6117.612,304,301,303,306,1196,7580,14156,-87,69,-16
6125.441000000001,304,302,303,306,1196,7580,14156,-87,69,-16
6129.299,303,302,303,306,1224,7624,14252,-102,15,19
6133.6539999999995,303,302,303,306,1224,7624,14252,-102,15,19
6140.452,303,302,303,306,1224,7624,14252,-102,15,19
6145.900000000001,303,302,303,306,1224,7624,14252,-102,15,19
6151.463,303,301,302,306,1224,7624,14252,-102,15,19
6158.236,303,301,302,306,1224,7624,14252,-102,15,19
6162.7,303,301,302,305,1224,7624,14252,-102,15,19
6166.261,303,301,302,306,1252,7580,14200,-56,82,-4
6173.848,303,301,302,306,1252,7580,14200,-56,82,-4
6173.848,303,301,300,306,1252,7580,14200,-56,82,-4
6187.95,303,301,301,306,1252,7580,14200,-56,82,-4
6190.595,303,301,301,306,1252,7580,14200,-56,82,-4
6195.947999999999,303,301,300,306,1252,7580,14200,-56,82,-4
6195.947999999999,304,300,300,306,1252,7580,14200,-56,82,-4
6208.266,304,300,299,305,1252,7580,14200,-56,82,-4
6208.266,303,300,301,306,1232,7556,14152,-110,11,-12
6218.163,303,300,301,305,1232,7556,14152,-110,11,-12
6226.322999999999,303,300,301,305,1232,7556,14152,-110,11,-12
6229.213,303,301,301,305,1232,7556,14152,-110,11,-12
6237.258,303,301,301,306,1232,7556,14152,-110,11,-12
6240.373,304,301,301,306,1232,7556,14152,-110,11,-12
6242.898,304,301,301,306,1232,7556,14152,-110,11,-12
6252.72,304,301,301,306,1196,7560,14156,-49,72,6
6259.315,304,301,301,306,1196,7560,14156,-49,72,6
6262.409,305,301,302,306,1196,7560,14156,-49,72,6
6270.46,305,301,301,306,1196,7560,14156,-49,72,6
6273.990000000001,306,301,302,306,1196,7560,14156,-49,72,6
6275.508000000001,306,300,301,306,1196,7560,14156,-49,72,6
6281.11,305,301,300,305,1196,7560,14156,-49,72,6
6291.820000000001,306,301,300,305,1208,7584,14260,-82,72,-1
6295.55,306,301,301,306,1208,7584,14260,-82,72,-1
6295.55,305,301,301,305,1208,7584,14260,-82,72,-1
6307.544,305,302,301,305,1208,7584,14260,-82,72,-1
6307.544,305,302,301,305,1208,7584,14260,-82,72,-1
6313.1539999999995,305,302,301,305,1208,7584,14260,-82,72,-1
6317.808999999999,305,302,301,305,1208,7584,14260,-82,72,-1
6325.7339999999995,305,301,301,305,1208,7584,14260,-82,72,-1
6329.561,304,302,301,306,1260,7548,14180,-108,47,-19
6340.098,304,302,301,306,1260,7548,14180,-108,47,-19
6340.098,303,302,301,305,1260,7548,14180,-108,47,-19
6347.075,304,302,301,306,1260,7548,14180,-108,47,-19
6351.571,304,302,301,306,1260,7548,14180,-108,47,-19
6358.8060000000005,304,302,301,305,1260,7548,14180,-108,47,-19
6362.536999999999,304,301,301,305,1260,7548,14180,-108,47,-19
6373.6050000000005,305,301,301,305,1224,7572,14200,-98,38,-1
6373.6050000000005,305,302,301,305,1224,7572,14200,-98,38,-1
6384.584,304,302,301,305,1224,7572,14200,-98,38,-1
6386.661,304,302,300,305,1224,7572,14200,-98,38,-1
6386.661,304,302,301,306,1224,7572,14200,-98,38,-1
6395.37,304,302,301,306,1224,7572,14200,-98,38,-1
6403.295,304,302,301,305,1224,7572,14200,-98,38,-1
6407.612999999999,304,302,301,305,1200,7544,14236,-39,37,-11
6418.014999999999,305,302,301,305,1200,7544,14236,-39,37,-11
6418.014999999999,304,302,300,305,1200,7544,14236,-39,37,-11
6425.733,304,302,300,304,1200,7544,14236,-39,37,-11
6429.106,304,302,300,305,1200,7544,14236,-39,37,-11
6436.833,305,302,301,305,1200,7544,14236,-39,37,-11
6440.479,304,302,300,304,1200,7544,14236,-39,37,-11
6445.113,304,302,300,305,1200,7544,14236,-39,37,-11
6451.567,305,302,301,305,1268,7608,14148,-70,37,-43
6451.567,306,302,301,304,1268,7608,14148,-70,37,-43
6462.64,305,302,301,305,1268,7608,14148,-70,37,-43
6470.353,304,302,302,305,1268,7608,14148,-70,37,-43
6473.789,304,302,302,306,1268,7608,14148,-70,37,-43
6477.856,304,302,301,305,1268,7608,14148,-70,37,-43
6484.969,304,302,300,305,1268,7608,14148,-70,37,-43
6484.969,304,301,300,305,1184,7560,14172,-150,77,-40
6495.993,304,301,300,305,1184,7560,14172,-150,77,-40
6502.563999999999,304,302,299,304,1184,7560,14172,-150,77,-40
6507.421,304,301,300,304,1184,7560,14172,-150,77,-40
6514.923,304,302,301,305,1184,7560,14172,-150,77,-40
6519.305,304,302,301,305,1184,7560,14172,-150,77,-40
6529.27,303,302,301,304,1184,7560,14172,-150,77,-40
6530.224999999999,304,302,301,304,1200,7624,14172,-123,62,-35
6538.246,304,301,301,304,1200,7624,14172,-123,62,-35
6540.982,304,301,301,304,1200,7624,14172,-123,62,-35
6549.031,304,301,300,304,1200,7624,14172,-123,62,-35
6550.829000000001,303,301,300,304,1200,7624,14172,-123,62,-35
6561.903,303,301,299,304,1200,7624,14172,-123,62,-35
6562.743,303,301,299,304,1200,7624,14172,-123,62,-35
6573.088000000001,302,301,300,304,1264,7472,14172,-180,53,-9
6575.411,303,301,300,305,1264,7472,14172,-180,53,-9
6575.411,303,301,299,304,1264,7472,14172,-180,53,-9
6584.05,303,301,299,304,1264,7472,14172,-180,53,-9
6591.722,303,300,299,304,1264,7472,14172,-180,53,-9
6596.218000000001,301,300,298,304,1264,7472,14172,-180,53,-9
6606.701,301,300,298,303,1264,7472,14172,-180,53,-9
6607.446999999999,301,300,299,303,1192,7584,14164,-77,31,-16
6614.142,301,300,299,304,1192,7584,14164,-77,31,-16
6618.178999999999,302,300,299,304,1192,7584,14164,-77,31,-16
6624.996,302,300,299,303,1192,7584,14164,-77,31,-16
6629.481,302,300,299,304,1192,7584,14164,-77,31,-16
6633.281,302,300,299,303,1192,7584,14164,-77,31,-16
6640.462,301,300,298,303,1192,7584,14164,-77,31,-16
6640.462,301,300,298,303,1192,7584,14164,-77,31,-16
6651.5199999999995,301,300,298,303,1208,7540,14164,-149,90,-21
6658.794999999999,302,300,298,302,1208,7540,14164,-149,90,-21
6662.637,301,299,297,302,1208,7540,14164,-149,90,-21
6670.28,302,299,297,302,1208,7540,14164,-149,90,-21
6673.987999999999,302,299,298,303,1208,7540,14164,-149,90,-21
6678.1810000000005,302,300,297,302,1208,7540,14164,-149,90,-21
6685.215,303,299,297,302,1208,7540,14164,-149,90,-21
6685.215,303,299,298,302,1236,7240,14292,-171,-6,58
6700.484,303,299,298,302,1236,7240,14292,-171,-6,58
6702.576,303,299,298,301,1236,7240,14292,-171,-6,58
6707.33,304,299,299,302,1236,7240,14292,-171,-6,58
6717.471,305,298,299,302,1236,7240,14292,-171,-6,58
6718.226,304,298,299,302,1236,7240,14292,-171,-6,58
6729.445,304,299,300,301,1236,7240,14292,-171,-6,58
6729.445,304,299,301,302,1164,7764,14212,450,-117,143
6735.516,304,299,302,302,1164,7764,14212,450,-117,143
6740.557,304,300,302,301,1164,7764,14212,450,-117,143
6747.198,304,300,302,300,1164,7764,14212,450,-117,143
6751.705,305,300,302,298,1164,7764,14212,450,-117,143
6762.383,304,301,302,297,1164,7764,14212,450,-117,143
6762.383,303,301,301,295,1164,7764,14212,450,-117,143
6774.223,302,303,301,298,1704,6928,13892,338,-598,65
6774.223,302,304,301,299,1704,6928,13892,338,-598,65
6784.9310000000005,302,305,301,299,1704,6928,13892,338,-598,65
6788.677,302,307,302,299,1704,6928,13892,338,-598,65
6788.677,302,307,302,299,1704,6928,13892,338,-598,65
6796.070000000001,301,308,302,296,1704,6928,13892,338,-598,65
6807.426,302,309,303,297,1704,6928,13892,338,-598,65
6815.505,302,310,304,295,1592,7916,15956,598,-419,-684
6818.015,302,310,305,293,1592,7916,15956,598,-419,-684
6820.932,300,311,306,293,1592,7916,15956,598,-419,-684
6828.937,299,311,309,294,1592,7916,15956,598,-419,-684
6833.048,299,310,311,295,1592,7916,15956,598,-419,-684
6840.062,300,309,313,296,1592,7916,15956,598,-419,-684
6846.639,299,307,316,293,1592,7916,15956,598,-419,-684
6850.865,300,306,319,296,1888,9140,17840,2022,2547,-913
6858.697,302,304,323,298,1888,9140,17840,2022,2547,-913
6862.673,304,302,327,299,1888,9140,17840,2022,2547,-913
6872.951,306,299,330,301,1888,9140,17840,2022,2547,-913
6873.714,310,295,332,304,1888,9140,17840,2022,2547,-913
6884.639,315,292,334,308,1888,9140,17840,2022,2547,-913
6884.639,316,289,334,312,1888,9140,17840,2022,2547,-913
6895.998,302,285,326,315,2216,12848,17964,6716,6724,-2966
6899.707,274,281,310,317,2216,12848,17964,6716,6724,-2966
6908.533,251,277,294,320,2216,12848,17964,6716,6724,-2966
6917.514999999999,233,274,275,325,2216,12848,17964,6716,6724,-2966
6918.261,218,270,256,327,2216,12848,17964,6716,6724,-2966
6928.886,206,268,237,330,2216,12848,17964,6716,6724,-2966
6928.886,193,265,220,333,-1104,13140,18944,4417,18229,-9609
6941.043,179,257,205,335,-1104,13140,18944,4417,18229,-9609
6941.043,169,251,193,334,-1104,13140,18944,4417,18229,-9609
6951.419,161,248,186,335,-1104,13140,18944,4417,18229,-9609
6962.262,155,252,185,335,-1104,13140,18944,4417,18229,-9609
6964.585999999999,156,259,187,337,-1104,13140,18944,4417,18229,-9609
6974.196,164,270,189,342,-404,10692,14408,2900,12744,-9221
6974.196,178,284,187,344,-404,10692,14408,2900,12744,-9221
6985.124,188,296,184,346,-404,10692,14408,2900,12744,-9221
6989.809,198,309,186,343,-404,10692,14408,2900,12744,-9221
6995.15,206,303,193,342,-404,10692,14408,2900,12744,-9221
7007.661,213,293,210,338,-404,10692,14408,2900,12744,-9221
7009.463000000001,218,277,229,346,-404,10692,14408,2900,12744,-9221
7018.974,223,248,245,355,-1260,11064,16940,4636,15291,-12058
7018.974,231,211,259,368,-1260,11064,16940,4636,15291,-12058
7029.151,243,197,261,376,-1260,11064,16940,4636,15291,-12058
7040.002,261,198,260,384,-1260,11064,16940,4636,15291,-12058
7042.406,287,212,257,392,-1260,11064,16940,4636,15291,-12058
7052.275,310,222,253,401,-1260,11064,16940,4636,15291,-12058
7052.275,328,235,247,413,-2124,12404,15948,6650,16590,-14227
7062.743,322,245,237,423,-2124,12404,15948,6650,16590,-14227
7073.852,301,254,230,434,-2124,12404,15948,6650,16590,-14227
7073.852,262,260,223,447,-2124,12404,15948,6650,16590,-14227
7084.179,222,262,215,461,-2124,12404,15948,6650,16590,-14227
7084.179,190,260,208,473,-2124,12404,15948,6650,16590,-14227
7095.664,155,261,202,487,-3180,10796,12084,3960,19008,-17827
7106.722000000001,124,265,192,498,-3180,10796,12084,3960,19008,-17827
7107.729,104,277,185,509,-3180,10796,12084,3960,19008,-17827
7117.8189999999995,83,292,175,526,-3180,10796,12084,3960,19008,-17827
7117.8189999999995,72,305,167,540,-3180,10796,12084,3960,19008,-17827
7129.3550000000005,62,324,160,555,-3180,10796,12084,3960,19008,-17827
7138.366999999999,58,341,154,565,-4396,7748,9636,-272,18440,-18291
7139.855,59,361,149,573,-4396,7748,9636,-272,18440,-18291
7151.324,61,376,145,577,-4396,7748,9636,-272,18440,-18291
7151.324,62,381,143,584,-4396,7748,9636,-272,18440,-18291
7162.232999999999,64,376,143,594,-4396,7748,9636,-272,18440,-18291
7165.339999999999,66,366,143,605,-4396,7748,9636,-272,18440,-18291
7174.47,69,351,145,619,-7252,4208,6640,-2635,17268,-17312
7174.47,76,339,150,631,-7252,4208,6640,-2635,17268,-17312
7184.7519999999995,80,326,150,637,-7252,4208,6640,-2635,17268,-17312
7195.612,89,313,170,644,-7252,4208,6640,-2635,17268,-17312
7198.032,96,303,175,643,-7252,4208,6640,-2635,17268,-17312
7208.629,103,294,187,643,-7252,4208,6640,-2635,17268,-17312
7212.831,109,288,198,644,-9272,2472,4776,-5657,13775,-15149
7218.619000000001,116,283,207,646,-9272,2472,4776,-5657,13775,-15149
7223.112999999999,123,281,224,652,-9272,2472,4776,-5657,13775,-15149
7228.791,127,283,243,655,-9272,2472,4776,-5657,13775,-15149
7240.418,131,288,259,662,-9272,2472,4776,-5657,13775,-15149
7243.439,140,298,274,664,-9272,2472,4776,-5657,13775,-15149
7252.214999999999,152,314,287,664,-9272,2472,4776,-5657,13775,-15149
7252.214999999999,164,342,299,662,-11972,672,6036,-1411,8153,-11062
7262.63,173,358,306,663,-11972,672,6036,-1411,8153,-11062
7274.485000000001,171,366,313,660,-11972,672,6036,-1411,8153,-11062
7275.4529999999995,158,373,327,666,-11972,672,6036,-1411,8153,-11062
7284.147,140,373,333,665,-11972,672,6036,-1411,8153,-11062
7287.860000000001,122,370,341,660,-11972,672,6036,-1411,8153,-11062
7297.23,101,363,352,654,-12884,-760,6064,-1822,6474,-7508
7297.23,86,350,359,646,-12884,-760,6064,-1822,6474,-7508
7307.8279999999995,77,335,363,632,-12884,-760,6064,-1822,6474,-7508
7313.589,75,320,369,617,-12884,-760,6064,-1822,6474,-7508
7318.247,82,308,368,597,-12884,-760,6064,-1822,6474,-7508
7325.9800000000005,97,297,367,572,-12884,-760,6064,-1822,6474,-7508
7329.396,118,288,365,548,-14420,1888,5384,279,6181,-6046
7339.897,150,279,361,521,-14420,1888,5384,279,6181,-6046
7348.232,184,274,359,498,-14420,1888,5384,279,6181,-6046
7352.673000000001,219,268,358,475,-14420,1888,5384,279,6181,-6046
7360.366,254,264,355,454,-14420,1888,5384,279,6181,-6046
7364.689,287,262,353,434,-14420,1888,5384,279,6181,-6046
7367.740000000001,315,260,348,424,-14420,1888,5384,279,6181,-6046
7374.450000000001,343,257,343,415,-14664,776,6360,1575,3708,-3611
7384.32,367,254,339,406,-14664,776,6360,1575,3708,-3611
7386.412,382,253,340,401,-14664,776,6360,1575,3708,-3611
7395.124,387,253,340,397,-14664,776,6360,1575,3708,-3611
7398.52,387,255,341,390,-14664,776,6360,1575,3708,-3611
7407.956999999999,383,261,347,387,-14664,776,6360,1575,3708,-3611
7410.725,378,267,351,378,-14740,1420,5608,1131,2251,-2178
7417.8240000000005,373,276,357,365,-14740,1420,5608,1131,2251,-2178
7428.889,370,283,361,349,-14740,1420,5608,1131,2251,-2178
7431.472000000001,367,290,365,333,-14740,1420,5608,1131,2251,-2178
7440.807000000001,367,297,370,318,-14740,1420,5608,1131,2251,-2178
7440.807000000001,366,303,373,298,-14740,1420,5608,1131,2251,-2178
7451.577,368,311,378,278,-14740,1420,5608,1131,2251,-2178
7456.724,371,319,381,261,-14580,2960,5760,1904,1511,-1325
7462.042,376,327,383,241,-14580,2960,5760,1904,1511,-1325
7471.339,380,332,383,225,-14580,2960,5760,1904,1511,-1325
7473.693,388,343,385,208,-14580,2960,5760,1904,1511,-1325
7481.003000000001,397,354,385,191,-14580,2960,5760,1904,1511,-1325
7484.811,406,368,385,176,-14580,2960,5760,1904,1511,-1325
7495.668000000001,413,374,381,154,-14744,2688,6024,304,1850,-1376
7503.714000000001,427,384,385,142,-14744,2688,6024,304,1850,-1376
7507.8279999999995,435,388,385,128,-14744,2688,6024,304,1850,-1376
7515.956,445,390,385,114,-14744,2688,6024,304,1850,-1376
7518.133,455,389,384,98,-14744,2688,6024,304,1850,-1376
7521.84,465,389,384,87,-14744,2688,6024,304,1850,-1376
7529.1990000000005,474,386,382,75,-14744,2688,6024,304,1850,-1376
7540.051,481,385,382,65,-14792,2592,5616,-1025,1716,-1001
7542.3099999999995,487,382,379,53,-14792,2592,5616,-1025,1716,-1001
7552.043000000001,494,379,382,44,-14792,2592,5616,-1025,1716,-1001
7552.043000000001,500,375,382,35,-14792,2592,5616,-1025,1716,-1001
7562.571,507,371,382,25,-14792,2592,5616,-1025,1716,-1001
7567.307,513,368,379,19,-14792,2592,5616,-1025,1716,-1001
7573.945,518,364,381,14,-15080,2432,5144,-960,1345,-971
7580.7,524,361,382,7,-15080,2432,5144,-960,1345,-971
7584.225,528,358,382,4,-15080,2432,5144,-960,1345,-971
7590.9890000000005,531,354,380,0,-15080,2432,5144,-960,1345,-971
7595.919999999999,534,351,380,0,-15080,2432,5144,-960,1345,-971
7606.277,539,348,381,0,-15080,2432,5144,-960,1345,-971
7608.005999999999,540,345,382,0,-15080,2432,5144,-960,1345,-971
7618.259,541,342,382,0,-15076,2684,5380,-79,330,-320
7618.259,540,339,382,0,-15076,2684,5380,-79,330,-320
7628.584,538,337,382,0,-15076,2684,5380,-79,330,-320
7631.972,535,334,379,0,-15076,2684,5380,-79,330,-320
7640.435,533,332,381,0,-15076,2684,5380,-79,330,-320
7641.714999999999,530,330,381,0,-15076,2684,5380,-79,330,-320
7651.421,528,328,380,0,-15076,2684,5380,-79,330,-320
7659.583,523,324,379,0,-15080,2692,6332,408,-223,-132
7662.514,519,322,377,0,-15080,2692,6332,408,-223,-132
7662.514,513,320,375,0,-15080,2692,6332,408,-223,-132
7673.565,509,319,375,0,-15080,2692,6332,408,-223,-132
7677.829,505,317,374,0,-15080,2692,6332,408,-223,-132
7684.55,501,315,373,0,-15080,2692,6332,408,-223,-132
7689.693,500,314,373,4,-15080,2692,6332,408,-223,-132
7695.523999999999,497,313,371,5,-14932,2676,6172,617,-331,-89
7698.025000000001,494,310,368,7,-14932,2676,6172,617,-331,-89
7708.066,491,309,368,9,-14932,2676,6172,617,-331,-89
7717.015,489,308,368,12,-14932,2676,6172,617,-331,-89
7720.806,487,307,366,15,-14932,2676,6172,617,-331,-89
7723.34,483,306,365,17,-14932,2676,6172,617,-331,-89
7729.62,482,306,365,21,-14932,2676,6172,617,-331,-89
7735.611,480,304,363,24,-15072,3364,6812,882,5,-319
7739.883,477,303,362,31,-15072,3364,6812,882,5,-319
7742.979,474,302,360,36,-15072,3364,6812,882,5,-319
7751.526,471,302,360,42,-15072,3364,6812,882,5,-319
7751.526,470,301,359,48,-15072,3364,6812,882,5,-319
7762.714,468,301,359,53,-15072,3364,6812,882,5,-319
7762.714,466,300,357,56,-15072,3364,6812,882,5,-319
7773.717000000001,464,300,356,65,-14916,3472,6128,1308,296,-674
7781.789,460,299,353,71,-14916,3472,6128,1308,296,-674
7784.005999999999,457,298,352,77,-14916,3472,6128,1308,296,-674
7788.33,453,297,351,84,-14916,3472,6128,1308,296,-674
7796.456,448,297,349,91,-14916,3472,6128,1308,296,-674
7806.636,444,296,346,98,-14916,3472,6128,1308,296,-674
7808.263,439,296,344,103,-14916,3472,6128,1308,296,-674
7817.821999999999,435,295,344,110,-14964,3332,6212,674,384,-826
7817.821999999999,432,294,342,115,-14964,3332,6212,674,384,-826
7829.599,429,294,340,121,-14964,3332,6212,674,384,-826
7829.599,425,294,339,125,-14964,3332,6212,674,384,-826
7839.959000000001,419,293,337,129,-14964,3332,6212,674,384,-826
7840.913,414,293,335,134,-14964,3332,6212,674,384,-826
7851.361,409,293,334,138,-14964,3332,6212,674,384,-826
7860.375999999999,403,293,332,142,-15064,2812,5556,126,700,-832
7862.504000000001,397,292,330,145,-15064,2812,5556,126,700,-832
7867.411,392,292,330,148,-15064,2812,5556,126,700,-832
7874.427,386,292,328,152,-15064,2812,5556,126,700,-832
7874.427,382,292,326,155,-15064,2812,5556,126,700,-832
7884.711,377,292,325,157,-15064,2812,5556,126,700,-832
7890.875,372,292,325,160,-15064,2812,5556,126,700,-832
7895.351,367,292,324,162,-15192,2432,5568,-556,444,-409
7902.7789999999995,362,292,322,163,-15192,2432,5568,-556,444,-409
7908.514,358,292,321,164,-15192,2432,5568,-556,444,-409
7917.516,355,292,320,167,-15192,2432,5568,-556,444,-409
7918.286,351,293,319,167,-15192,2432,5568,-556,444,-409
7929.344,347,293,319,171,-15192,2432,5568,-556,444,-409
7937.395,345,294,318,173,-15072,2496,5748,-442,59,-323
7940.567,341,294,316,173,-15072,2496,5748,-442,59,-323
7943.021,339,295,315,176,-15072,2496,5748,-442,59,-323
7951.384,336,295,316,178,-15072,2496,5748,-442,59,-323
7951.384,333,295,314,179,-15072,2496,5748,-442,59,-323
7963.158,331,295,313,179,-15072,2496,5748,-442,59,-323
7969.442,328,296,314,182,-15072,2496,5748,-442,59,-323
7973.812,326,298,313,184,-15172,2444,5660,-9,-408,-52
7981.154,325,299,311,186,-15172,2444,5660,-9,-408,-52
7984.813,324,299,309,187,-15172,2444,5660,-9,-408,-52
7989.192,325,300,309,190,-15172,2444,5660,-9,-408,-52
7996.144,325,300,308,192,-15172,2444,5660,-9,-408,-52
8007.258999999999,324,300,307,195,-15172,2444,5660,-9,-408,-52
8008.765,324,301,306,197,-15172,2444,5660,-9,-408,-52
8018.137,324,301,306,198,-15120,2868,5996,519,-343,-49
8021.508000000001,325,301,304,200,-15120,2868,5996,519,-343,-49
8021.508000000001,325,300,303,199,-15120,2868,5996,519,-343,-49
8030.777999999999,326,300,304,203,-15120,2868,5996,519,-343,-49
8040.115,326,301,303,205,-15120,2868,5996,519,-343,-49
8040.115,325,301,302,207,-15120,2868,5996,519,-343,-49
8051.997,323,303,302,208,-15120,2868,5996,519,-343,-49
8060.027,322,304,301,210,-15072,3064,6284,573,-367,42
8062.919000000001,322,304,299,211,-15072,3064,6284,573,-367,42
8062.919000000001,321,303,297,211,-15072,3064,6284,573,-367,42
8073.843999999999,323,304,298,214,-15072,3064,6284,573,-367,42
8079.136,324,305,296,214,-15072,3064,6284,573,-367,42
8084.365,325,305,296,215,-15072,3064,6284,573,-367,42
8092.273999999999,324,305,294,216,-15072,3064,6284,573,-367,42
8095.997,322,305,294,218,-15040,2632,6224,247,-355,-35
8099.783,320,306,293,219,-15040,2632,6224,247,-355,-35
8108.639,318,306,292,222,-15040,2632,6224,247,-355,-35
8118.24,316,306,294,225,-15040,2632,6224,247,-355,-35
8118.24,314,306,292,226,-15040,2632,6224,247,-355,-35
8129.1539999999995,312,305,292,228,-15040,2632,6224,247,-355,-35
8129.1539999999995,309,305,292,231,-15040,2632,6224,247,-355,-35
8140.496000000001,307,306,293,234,-14976,2940,6388,410,-66,-72
8144.405000000001,305,305,291,234,-14976,2940,6388,410,-66,-72
8151.584,304,306,292,237,-14976,2940,6388,410,-66,-72
8152.621999999999,302,305,292,237,-14976,2940,6388,410,-66,-72
8162.4839999999995,301,305,291,241,-14976,2940,6388,410,-66,-72
8170.569,300,304,293,243,-14976,2940,6388,410,-66,-72
8173.545000000001,298,304,293,245,-14976,2940,6388,410,-66,-72
8176.657,297,304,295,248,-15072,2640,6444,-33,-42,126
8186.332,295,304,296,249,-15072,2640,6444,-33,-42,126
8186.332,294,304,297,250,-15072,2640,6444,-33,-42,126
8196.19,293,303,296,251,-15072,2640,6444,-33,-42,126
8202.677,293,303,298,253,-15072,2640,6444,-33,-42,126
8206.838,292,302,298,254,-15072,2640,6444,-33,-42,126
8208.853,291,302,299,256,-15064,2672,6196,15,188,77
8218.755,290,302,298,256,-15064,2672,6196,15,188,77
8218.755,290,301,299,256,-15064,2672,6196,15,188,77
8229.660000000002,289,302,299,259,-15064,2672,6196,15,188,77
8237.681,289,302,300,261,-15064,2672,6196,15,188,77
8241.561000000002,288,301,301,262,-15064,2672,6196,15,188,77
8244.617999999999,287,301,300,263,-15064,2672,6196,15,188,77
8251.526,287,301,301,266,-15064,2672,6196,15,188,77
8261.517,286,300,301,268,-15044,2872,6300,-15,178,252
8263.113000000001,287,301,303,269,-15044,2872,6300,-15,178,252
8263.113000000001,288,301,303,271,-15044,2872,6300,-15,178,252
8273.720000000001,289,301,304,272,-15044,2872,6300,-15,178,252
8280.809,291,301,303,274,-15044,2872,6300,-15,178,252
8284.759,293,301,304,277,-15044,2872,6300,-15,178,252
8292.562,297,301,304,279,-15044,2872,6300,-15,178,252
8295.928,299,302,305,282,-15072,2964,6284,98,367,55
8300.553,301,302,306,283,-15072,2964,6284,98,367,55
8308.749,302,302,306,285,-15072,2964,6284,98,367,55
8308.749,303,303,307,287,-15072,2964,6284,98,367,55
8318.364000000001,304,302,306,288,-15072,2964,6284,98,367,55
8325.13,306,302,305,288,-15072,2964,6284,98,367,55
8329.129,310,302,307,292,-15072,2964,6284,98,367,55
8338.027,311,302,308,294,-14968,3268,5900,459,252,-110
8340.355000000001,313,302,306,295,-14968,3268,5900,459,252,-110
8351.141,314,302,307,296,-14968,3268,5900,459,252,-110
8351.141,315,302,308,299,-14968,3268,5900,459,252,-110
8362.052,316,303,309,300,-14968,3268,5900,459,252,-110
8365.214999999998,317,302,308,301,-14968,3268,5900,459,252,-110
8373.24,316,303,307,303,-14968,3268,5900,459,252,-110
8374.753,315,302,308,304,-15156,3536,6444,254,312,-240
8384.627,313,301,307,304,-15156,3536,6444,254,312,-240
8393.139,311,301,306,305,-15156,3536,6444,254,312,-240
8395.733,309,302,307,307,-15156,3536,6444,254,312,-240
8404.925000000001,306,302,307,308,-15156,3536,6444,254,312,-240
8408.998,302,301,307,309,-15156,3536,6444,254,312,-240
8411.587000000001,298,301,307,309,-15156,3536,6444,254,312,-240
8418.285,293,302,307,311,-14956,3424,6324,410,440,-773
8418.285,289,301,306,312,-14956,3424,6324,410,440,-773
8429.632,286,300,305,312,-14956,3424,6324,410,440,-773
8435.519,281,300,305,314,-14956,3424,6324,410,440,-773
8439.792000000001,278,300,305,315,-14956,3424,6324,410,440,-773
8448.552,274,300,304,315,-14956,3424,6324,410,440,-773
8451.805999999999,272,300,303,317,-15108,2980,5956,219,788,-1077
8462.546,269,299,304,318,-15108,2980,5956,219,788,-1077
8462.546,267,298,303,318,-15108,2980,5956,219,788,-1077
8473.921,264,298,301,319,-15108,2980,5956,219,788,-1077
8482.01,262,299,302,320,-15108,2980,5956,219,788,-1077
8484.714,260,299,302,319,-15108,2980,5956,219,788,-1077
8488.253,259,298,301,320,-15108,2980,5956,219,788,-1077
8497.563,256,298,299,320,-15136,2240,5612,-383,763,-880
8497.563,256,298,300,320,-15136,2240,5612,-383,763,-880
8509.197,256,297,298,321,-15136,2240,5612,-383,763,-880
8514.32,256,298,299,321,-15136,2240,5612,-383,763,-880
8518.238,256,296,297,319,-15136,2240,5612,-383,763,-880
8525.665,258,298,298,321,-15136,2240,5612,-383,763,-880
8530.146999999999,258,297,299,321,-15136,2240,5612,-383,763,-880
8540.208,260,297,297,320,-15328,1604,5224,-755,538,-329
8548.605,264,298,298,321,-15328,1604,5224,-755,538,-329
8551.422,267,298,297,320,-15328,1604,5224,-755,538,-329
8560.44,269,298,298,320,-15328,1604,5224,-755,538,-329
8562.6,272,298,296,319,-15328,1604,5224,-755,538,-329
8566.881000000001,275,299,297,320,-15328,1604,5224,-755,538,-329
8573.657000000001,277,299,296,319,-15248,2096,5604,-48,-206,284
8579.025,281,300,297,319,-15248,2096,5604,-48,-206,284
8584.289,284,300,297,319,-15248,2096,5604,-48,-206,284
8590.512999999999,290,301,298,320,-15248,2096,5604,-48,-206,284
8595.109,291,300,297,319,-15248,2096,5604,-48,-206,284
8602.765,296,301,298,320,-15248,2096,5604,-48,-206,284
8609.364,299,301,298,320,-15248,2096,5604,-48,-206,284
8618.403,303,302,300,320,-15288,2928,6200,583,-624,452
8618.575,307,302,299,319,-15288,2928,6200,583,-624,452
8629.13,310,303,300,320,-15288,2928,6200,583,-624,452
8629.13,313,303,300,320,-15288,2928,6200,583,-624,452
8640.48,316,304,301,320,-15288,2928,6200,583,-624,452
8643.895,317,304,300,319,-15288,2928,6200,583,-624,452
8652.837,318,304,300,320,-15288,2928,6200,583,-624,452
8652.837,320,304,299,320,-15032,3324,6120,588,-433,463
8662.050000000001,320,304,298,320,-15032,3324,6120,588,-433,463
8668.014,321,305,300,321,-15032,3324,6120,588,-433,463
8673.011,322,305,299,321,-15032,3324,6120,588,-433,463
8673.011,323,305,299,321,-15032,3324,6120,588,-433,463
8685.157000000001,323,305,299,321,-15032,3324,6120,588,-433,463
8695.863,323,306,300,323,-15032,3324,6120,588,-433,463
8695.895999999999,323,306,299,324,-15092,3008,6056,-566,-58,312
8706.744999999999,323,306,298,323,-15092,3008,6056,-566,-58,312
8709.26,323,306,298,323,-15092,3008,6056,-566,-58,312
8719.279999999999,323,306,297,323,-15092,3008,6056,-566,-58,312
8721.878999999999,322,306,298,323,-15092,3008,6056,-566,-58,312
8728.643999999998,321,306,296,323,-15092,3008,6056,-566,-58,312
8728.643999999998,321,306,296,323,-15092,3008,6056,-566,-58,312
8741.097,320,306,296,322,-15120,2852,6188,-857,434,39
8749.332,319,307,295,322,-15120,2852,6188,-857,434,39
8753.306,317,307,295,323,-15120,2852,6188,-857,434,39
8756.716,315,306,295,323,-15120,2852,6188,-857,434,39
8765.356,313,305,296,322,-15120,2852,6188,-857,434,39
8769.463,311,306,295,322,-15120,2852,6188,-857,434,39
8777.54,309,306,294,322,-15120,2852,6188,-857,434,39
8778.565999999999,305,306,294,322,-15080,2788,5716,-224,200,65
8784.751,303,306,292,321,-15080,2788,5716,-224,200,65
8792.784,303,306,293,322,-15080,2788,5716,-224,200,65
8796.045,301,306,295,324,-15080,2788,5716,-224,200,65
8806.262999999999,299,306,295,323,-15080,2788,5716,-224,200,65
8809.452000000001,298,306,294,323,-15080,2788,5716,-224,200,65
8818.398000000001,296,306,293,321,-15080,2788,5716,-224,200,65
8818.398000000001,294,306,294,322,-15184,3132,5764,438,-67,134
8824.414,291,307,293,323,-15184,3132,5764,438,-67,134
8829.322,289,307,293,322,-15184,3132,5764,438,-67,134
8836.704,287,307,293,323,-15184,3132,5764,438,-67,134
8840.402,285,308,292,322,-15184,3132,5764,438,-67,134
8851.324999999999,282,306,289,320,-15184,3132,5764,438,-67,134
8851.324999999999,281,307,292,322,-15184,3132,5764,438,-67,134
8862.429,279,307,292,321,-15112,3096,5820,463,-368,72
8862.429,275,308,291,321,-15112,3096,5820,463,-368,72
8873.92,274,308,291,320,-15112,3096,5820,463,-368,72
8877.706,272,308,291,320,-15112,3096,5820,463,-368,72
8885.017,270,308,291,319,-15112,3096,5820,463,-368,72
8886.313,269,308,289,319,-15112,3096,5820,463,-368,72
8895.965,268,308,290,320,-15096,2812,6176,-6,-153,-181
8904.04,269,308,291,318,-15096,2812,6176,-6,-153,-181
8906.848,269,309,291,319,-15096,2812,6176,-6,-153,-181
8910.017,269,309,289,318,-15096,2812,6176,-6,-153,-181
8918.348,269,310,289,318,-15096,2812,6176,-6,-153,-181
8918.348,270,309,290,317,-15096,2812,6176,-6,-153,-181
8929.93,271,309,291,317,-15096,2812,6176,-6,-153,-181
8936.144,272,309,291,318,-15104,2828,6440,-85,228,-162
8940.148000000001,272,309,291,317,-15104,2828,6440,-85,228,-162
8949.030999999999,272,309,291,317,-15104,2828,6440,-85,228,-162
8951.777,273,309,292,316,-15104,2828,6440,-85,228,-162
8962.154,273,309,292,318,-15104,2828,6440,-85,228,-162
8963.046,273,308,292,316,-15104,2828,6440,-85,228,-162
8973.433,274,308,292,316,-15104,2828,6440,-85,228,-162
8973.433,274,307,291,316,-15168,2576,6172,91,227,1
8985.023,274,307,294,317,-15168,2576,6172,91,227,1
8987.337,275,307,293,317,-15168,2576,6172,91,227,1
8995.337,275,307,291,316,-15168,2576,6172,91,227,1
8996.592,276,306,293,316,-15168,2576,6172,91,227,1
9006.335,278,306,294,318,-15168,2576,6172,91,227,1
9009.351,278,305,295,319,-15168,2576,6172,91,227,1
9017.881,281,305,295,319,-15204,2600,5696,-113,429,62
9020.703,282,304,295,319,-15204,2600,5696,-113,429,62
9020.703,283,304,295,320,-15204,2600,5696,-113,429,62
9030.444,286,304,295,320,-15204,2600,5696,-113,429,62
9039.697,286,304,295,321,-15204,2600,5696,-113,429,62
9040.442000000001,287,303,294,321,-15204,2600,5696,-113,429,62
9051.276,290,303,297,322,-15204,2600,5696,-113,429,62
9053.552,291,303,295,322,-15056,2760,5560,0,286,82
9062.087,294,303,296,323,-15056,2760,5560,0,286,82
9062.087,296,302,296,323,-15056,2760,5560,0,286,82
9072.692,298,302,296,324,-15056,2760,5560,0,286,82
9073.49,300,302,297,325,-15056,2760,5560,0,286,82
9084.396999999999,302,301,297,324,-15056,2760,5560,0,286,82
9084.396999999999,304,302,297,325,-15056,2760,5560,0,286,82
9095.533,306,302,298,325,-15056,2760,5560,0,286,82
9095.533,308,301,299,325,-15220,2824,5760,-88,196,83
9095.533,310,301,299,325,-15220,2824,5760,-88,196,83
9109.185,312,301,299,325,-15220,2824,5760,-88,196,83
9117.888,313,301,299,326,-15220,2824,5760,-88,196,83
9117.888,314,301,298,325,-15220,2824,5760,-88,196,83
9129.764,315,301,298,324,-15220,2824,5760,-88,196,83
9129.764,316,302,300,326,-15220,2824,5760,-88,196,83
9136.262999999999,316,302,301,327,-15076,2948,5696,71,4,169
9140.434000000001,317,303,299,326,-15076,2948,5696,71,4,169
9148.159,317,301,299,326,-15076,2948,5696,71,4,169
9151.707,317,302,299,327,-15076,2948,5696,71,4,169
9161.899,316,302,299,327,-15076,2948,5696,71,4,169
9163.921,314,302,299,326,-15076,2948,5696,71,4,169
9163.921,313,303,300,326,-15076,2948,5696,71,4,169
9173.954,313,303,300,327,-15072,3308,6040,75,21,-45
9181.995,311,303,299,327,-15072,3308,6040,75,21,-45
9184.421,312,303,301,327,-15072,3308,6040,75,21,-45
9188.831,310,303,300,326,-15072,3308,6040,75,21,-45
9196.103000000001,310,303,300,327,-15072,3308,6040,75,21,-45
9196.103000000001,309,303,300,327,-15072,3308,6040,75,21,-45
9209.293000000001,307,303,297,325,-15072,3308,6040,75,21,-45
9213.773,307,303,299,327,-15072,3308,6040,75,21,-45
9218.119,306,304,300,326,-15128,3012,5888,-183,291,-127
9226.505,304,304,297,324,-15128,3012,5888,-183,291,-127
9229.431,303,304,299,325,-15128,3012,5888,-183,291,-127
9240.311,302,304,297,326,-15128,3012,5888,-183,291,-127
9248.399,301,304,297,325,-15128,3012,5888,-183,291,-127
9251.483,299,305,298,325,-15128,3012,5888,-183,291,-127
9251.483,297,304,299,324,-15196,2920,5736,-286,256,-166
9263.499,296,304,298,324,-15196,2920,5736,-286,256,-166
9266.842999999999,294,304,296,323,-15196,2920,5736,-286,256,-166
9273.596,294,305,298,325,-15196,2920,5736,-286,256,-166
9279.671,292,303,295,321,-15196,2920,5736,-286,256,-166
9284.134,291,304,298,324,-15196,2920,5736,-286,256,-166
9290.903,290,305,298,324,-15196,2920,5736,-286,256,-166
9295.822,290,304,297,323,-15156,2704,5676,-81,38,-158
9303.667000000001,290,304,299,324,-15156,2704,5676,-81,38,-158
9309.518,290,304,298,323,-15156,2704,5676,-81,38,-158
9318.458,291,304,299,325,-15156,2704,5676,-81,38,-158
9318.458,292,305,299,324,-15156,2704,5676,-81,38,-158
9329.081,293,304,299,324,-15156,2704,5676,-81,38,-158
9329.081,294,304,298,323,-15156,2704,5676,-81,38,-158
9340.477,293,304,300,323,-15240,2804,6048,219,68,-77
9340.477,294,305,298,322,-15240,2804,6048,219,68,-77
9351.304,294,304,300,323,-15240,2804,6048,219,68,-77
9359.305,295,305,299,324,-15240,2804,6048,219,68,-77
9362.836,295,304,300,324,-15240,2804,6048,219,68,-77
9362.836,294,304,299,323,-15240,2804,6048,219,68,-77
9373.822,294,303,299,322,-15240,2804,6048,219,68,-77
9377.312999999998,293,304,300,323,-15148,2756,5772,299,-117,112
9385.173999999999,293,304,300,323,-15148,2756,5772,299,-117,112
9388.814,292,304,298,323,-15148,2756,5772,299,-117,112
9395.714999999998,291,304,299,323,-15148,2756,5772,299,-117,112
9398.152,292,304,299,323,-15148,2756,5772,299,-117,112
9407.806,290,304,298,322,-15148,2756,5772,299,-117,112
9409.821000000002,289,304,300,323,-15148,2756,5772,299,-117,112
9418.731,288,304,299,323,-15192,2908,5920,-193,-90,111
9428.618999999999,288,304,298,321,-15192,2908,5920,-193,-90,111
9429.286,287,304,299,323,-15192,2908,5920,-193,-90,111
9439.754,287,304,299,323,-15192,2908,5920,-193,-90,111
9442.535,287,304,298,322,-15192,2908,5920,-193,-90,111
9450.557,287,304,298,322,-15192,2908,5920,-193,-90,111
9451.518,286,304,297,321,-15192,2908,5920,-193,-90,111
9458.998,286,304,299,322,-15248,3140,6016,-114,8,182
9462.881,286,305,298,322,-15248,3140,6016,-114,8,182
9473.741,286,304,296,320,-15248,3140,6016,-114,8,182
9473.741,286,305,298,322,-15248,3140,6016,-114,8,182
9484.139000000001,286,305,298,321,-15248,3140,6016,-114,8,182
9484.139000000001,287,305,298,322,-15248,3140,6016,-114,8,182
9495.784,288,305,300,322,-15248,3140,6016,-114,8,182
9495.784,288,304,298,322,-15248,3104,6288,-147,-60,23
9506.82,287,304,297,321,-15248,3104,6288,-147,-60,23
9509.994,288,305,298,321,-15248,3104,6288,-147,-60,23
9518.243999999999,288,304,298,321,-15248,3104,6288,-147,-60,23
9526.639,288,305,298,322,-15248,3104,6288,-147,-60,23
9529.531,289,305,297,321,-15248,3104,6288,-147,-60,23
9532.292,289,305,298,322,-15248,3104,6288,-147,-60,23
9540.5,290,305,299,322,-15148,2932,5944,-31,124,-21
9544.901,290,304,297,320,-15148,2932,5944,-31,124,-21
9550.822999999999,291,305,297,320,-15148,2932,5944,-31,124,-21
9557.758,291,304,299,320,-15148,2932,5944,-31,124,-21
9562.676,292,305,299,321,-15148,2932,5944,-31,124,-21
9565.525,292,306,298,321,-15148,2932,5944,-31,124,-21
9573.351,293,305,298,319,-15148,2932,5944,-31,124,-21
9584.628,294,305,297,320,-15164,2780,5892,-239,-16,117
9585.3,293,305,298,320,-15164,2780,5892,-239,-16,117
9595.751,291,304,298,320,-15164,2780,5892,-239,-16,117
9595.751,292,304,297,320,-15164,2780,5892,-239,-16,117
9603.067,291,304,298,319,-15164,2780,5892,-239,-16,117
9610.134,291,305,299,319,-15164,2780,5892,-239,-16,117
9617.468,291,305,299,320,-15164,2780,5892,-239,-16,117
9618.143999999998,291,305,298,320,-15152,3164,5860,24,139,28
9629.304,291,304,297,319,-15152,3164,5860,24,139,28
9629.304,290,305,298,320,-15152,3164,5860,24,139,28
9639.926000000001,290,304,296,319,-15152,3164,5860,24,139,28
9642.791000000001,291,305,296,319,-15152,3164,5860,24,139,28
9650.811,292,306,299,320,-15152,3164,5860,24,139,28
9651.58,291,305,297,319,-15152,3164,5860,24,139,28
9662.462,292,306,298,319,-15116,2884,5480,197,-103,-69
9670.559000000001,292,305,297,319,-15116,2884,5480,197,-103,-69
9673.589,292,305,296,318,-15116,2884,5480,197,-103,-69
9673.589,293,305,297,320,-15116,2884,5480,197,-103,-69
9685.219,293,306,297,320,-15116,2884,5480,197,-103,-69
9688.809,294,305,297,318,-15116,2884,5480,197,-103,-69
9695.722,295,306,298,319,-15116,2884,5480,197,-103,-69
9700.928,295,306,298,320,-15144,3228,5820,257,-130,-324
9710.491,297,306,298,319,-15144,3228,5820,257,-130,-324
9712.963,297,306,298,320,-15144,3228,5820,257,-130,-324
9717.416,297,306,297,319,-15144,3228,5820,257,-130,-324
9725.429,297,307,298,319,-15144,3228,5820,257,-130,-324
9729.296,298,306,298,318,-15144,3228,5820,257,-130,-324
9740.183,298,307,298,319,-15152,2964,5864,368,-265,-393
9740.183,299,308,297,319,-15152,2964,5864,368,-265,-393
9752.24,298,308,297,319,-15152,2964,5864,368,-265,-393
9753.703,298,307,295,318,-15152,2964,5864,368,-265,-393
9762.07,297,309,295,317,-15152,2964,5864,368,-265,-393
9765.914,297,309,296,318,-15152,2964,5864,368,-265,-393
9773.413,296,309,296,318,-15152,2964,5864,368,-265,-393
9779.854,296,309,295,318,-15112,2464,5996,-130,-268,53
9784.974,294,309,294,317,-15112,2464,5996,-130,-268,53
9791.621,294,309,295,317,-15112,2464,5996,-130,-268,53
9795.803,293,309,295,317,-15112,2464,5996,-130,-268,53
9803.404999999999,294,309,296,316,-15112,2464,5996,-130,-268,53
9807.140000000001,291,308,294,315,-15112,2464,5996,-130,-268,53
9818.267,291,307,293,315,-15112,2464,5996,-130,-268,53
9818.267,291,306,293,315,-15092,2708,6232,-206,35,103
9829.26,291,306,294,316,-15092,2708,6232,-206,35,103
9829.26,291,306,294,316,-15092,2708,6232,-206,35,103
9840.617999999999,292,306,294,315,-15092,2708,6232,-206,35,103
9844.096,293,306,295,317,-15092,2708,6232,-206,35,103
9851.571,293,306,297,317,-15092,2708,6232,-206,35,103
9853.707999999999,294,306,295,317,-15092,2708,6232,-206,35,103
9862.771999999999,294,306,297,317,-15084,3012,6056,40,65,146
9862.771999999999,295,305,294,316,-15084,3012,6056,40,65,146
9874.158,295,305,296,317,-15084,3012,6056,40,65,146
9874.158,297,304,297,317,-15084,3012,6056,40,65,146
9882.279999999999,297,304,296,317,-15084,3012,6056,40,65,146
9884.989,298,305,299,319,-15084,3012,6056,40,65,146
9895.819,299,305,300,319,-15084,3012,6056,40,65,146
9903.874,299,304,300,319,-15152,3184,6200,11,34,104
9906.959,300,304,299,318,-15152,3184,6200,11,34,104
9910.975,299,303,295,316,-15152,3184,6200,11,34,104
9918.395,300,303,299,318,-15152,3184,6200,11,34,104
9922.134,300,303,299,319,-15152,3184,6200,11,34,104
9928.926000000001,300,303,297,317,-15152,3184,6200,11,34,104
9928.926000000001,299,303,296,317,-15152,3184,6200,11,34,104
9940.365,299,303,298,319,-15136,3184,5744,-34,186,-17
9940.365,298,303,296,318,-15136,3184,5744,-34,186,-17
9951.151,297,302,297,317,-15136,3184,5744,-34,186,-17
9954.141,297,302,299,319,-15136,3184,5744,-34,186,-17
9962.839,298,302,301,320,-15136,3184,5744,-34,186,-17
9966.467,297,302,301,319,-15136,3184,5744,-34,186,-17
9973.029999999999,297,302,300,320,-15136,3184,5744,-34,186,-17
9973.029999999999,295,301,299,320,-15128,3092,5992,-386,255,-7
9984.873,295,301,298,318,-15128,3092,5992,-386,255,-7
9993.95,294,301,299,319,-15128,3092,5992,-386,255,-7
9995.806999999999,294,301,297,318,-15128,3092,5992,-386,255,-7
9999.88,294,301,299,318,-15128,3092,5992,-386,255,-7
10007.275,292,300,299,318,-15128,3092,5992,-386,255,-7
10011.31,293,301,300,318,-15128,3092,5992,-386,255,-7
10018.242,292,301,299,318,-15244,2716,5424,-435,350,-183
10026.347,291,301,298,317,-15244,2716,5424,-435,350,-183
10029.089,291,301,299,317,-15244,2716,5424,-435,350,-183
10039.169,291,300,300,317,-15244,2716,5424,-435,350,-183
10040.623,292,301,299,318,-15244,2716,5424,-435,350,-183
10050.639000000001,292,300,299,316,-15244,2716,5424,-435,350,-183
10050.639000000001,292,301,299,317,-15244,2716,5424,-435,350,-183
10062.961,293,301,301,318,-15196,2792,5832,-182,-85,83
10062.961,295,302,301,317,-15196,2792,5832,-182,-85,83
10073.951,295,302,301,317,-15196,2792,5832,-182,-85,83
10073.951,296,303,303,317,-15196,2792,5832,-182,-85,83
10084.741,297,303,303,318,-15196,2792,5832,-182,-85,83
10090.169,299,303,302,317,-15196,2792,5832,-182,-85,83
10095.631,298,302,301,318,-15196,2792,5832,-182,-85,83
10097.93,299,302,301,318,-15160,2948,5936,47,-82,81
10107.229,299,303,301,316,-15160,2948,5936,47,-82,81
10111.257,299,303,302,316,-15160,2948,5936,47,-82,81
10119.634,300,304,304,319,-15160,2948,5936,47,-82,81
10119.634,301,303,303,318,-15160,2948,5936,47,-82,81
10129.311,301,303,302,317,-15160,2948,5936,47,-82,81
10137.39,301,303,301,317,-15160,2948,5936,47,-82,81
10140.127,303,304,303,318,-15116,3132,5956,183,-39,-44
10149.099,304,304,303,318,-15116,3132,5956,183,-39,-44
10152.152,304,304,303,318,-15116,3132,5956,183,-39,-44
10156.363000000001,304,304,303,320,-15116,3132,5956,183,-39,-44
10162.367,304,303,301,318,-15116,3132,5956,183,-39,-44
10162.367,306,304,302,319,-15116,3132,5956,183,-39,-44
10173.572,306,304,302,319,-15116,3132,5956,183,-39,-44
10180.281,307,303,301,318,-15164,3060,6004,-142,-14,-60
10184.829,307,304,302,319,-15164,3060,6004,-142,-14,-60
10194.478000000001,307,304,302,319,-15164,3060,6004,-142,-14,-60
10202.347,308,304,302,318,-15164,3060,6004,-142,-14,-60
10206.722,308,304,303,319,-15164,3060,6004,-142,-14,-60
10211.992,308,304,302,319,-15164,3060,6004,-142,-14,-60
10219.559000000001,310,304,302,319,-15164,3060,6004,-142,-14,-60
10220.737,309,304,302,319,-15164,2888,6080,-466,192,-62
10228.8,310,304,302,319,-15164,2888,6080,-466,192,-62
10232.707,310,304,303,318,-15164,2888,6080,-466,192,-62
10240.296,310,304,301,318,-15164,2888,6080,-466,192,-62
10245.323,310,304,302,319,-15164,2888,6080,-466,192,-62
10251.198,309,305,302,319,-15164,2888,6080,-466,192,-62
10253.968,310,304,301,319,-15164,2888,6080,-466,192,-62
10262.942000000001,309,304,299,318,-15264,3160,5708,42,124,-126
10272.516,308,304,301,319,-15264,3160,5708,42,124,-126
10274.001999999999,308,304,301,319,-15264,3160,5708,42,124,-126
10274.001999999999,308,304,301,320,-15264,3160,5708,42,124,-126
10284.007000000001,308,304,300,318,-15264,3160,5708,42,124,-126
10290.506000000001,309,304,298,318,-15264,3160,5708,42,124,-126
10301.619,309,304,297,317,-15264,3160,5708,42,124,-126
10303.048999999999,311,304,300,318,-15164,3020,5796,30,-97,-164
10312.943000000001,311,305,300,318,-15164,3020,5796,30,-97,-164
10317.784,313,304,302,319,-15164,3020,5796,30,-97,-164
10319.082999999999,312,305,301,319,-15164,3020,5796,30,-97,-164
10329.091,312,305,300,317,-15164,3020,5796,30,-97,-164
10329.091,312,305,298,316,-15164,3020,5796,30,-97,-164
10340.388,311,305,300,318,-15164,3020,5796,30,-97,-164
10343.586,312,306,301,318,-15272,3116,5864,42,-141,-22
10351.538,311,305,300,316,-15272,3116,5864,42,-141,-22
10352.591999999999,310,305,300,317,-15272,3116,5864,42,-141,-22
10362.548999999999,309,305,300,317,-15272,3116,5864,42,-141,-22
10370.625,308,306,299,316,-15272,3116,5864,42,-141,-22
10373.567,307,304,300,315,-15272,3116,5864,42,-141,-22
10373.567,307,305,300,317,-15272,3116,5864,42,-141,-22
10385.341,307,305,301,317,-15152,2716,5884,-351,94,-82
10389.318,307,305,300,316,-15152,2716,5884,-351,94,-82
10395.704,305,303,299,314,-15152,2716,5884,-351,94,-82
10400.741999999998,304,303,297,314,-15152,2716,5884,-351,94,-82
10406.487000000001,304,304,300,315,-15152,2716,5884,-351,94,-82
10412.017,305,305,301,317,-15152,2716,5884,-351,94,-82
10417.583,304,305,301,318,-15148,2776,5752,-608,-24,-22
10421.609999999999,304,305,301,317,-15148,2776,5752,-608,-24,-22
10430.804,304,304,301,316,-15148,2776,5752,-608,-24,-22
10438.814,304,303,300,316,-15148,2776,5752,-608,-24,-22
10444.981,304,304,300,315,-15148,2776,5752,-608,-24,-22
10445.154,303,304,298,314,-15148,2776,5752,-608,-24,-22
10451.503,304,304,300,316,-15148,2776,5752,-608,-24,-22
10458.881,304,304,299,315,-15136,2880,5572,60,99,-58
10462.716999999999,303,304,300,314,-15136,2880,5572,60,99,-58
10473.069000000001,304,304,300,314,-15136,2880,5572,60,99,-58
10473.676,304,304,301,316,-15136,2880,5572,60,99,-58
10484.761,305,303,301,316,-15136,2880,5572,60,99,-58
10487.396,305,304,301,315,-15136,2880,5572,60,99,-58
10487.396,306,304,302,316,-15136,2880,5572,60,99,-58
10496.822,306,304,300,316,-15136,2880,5572,60,99,-58
10503.641,306,304,301,316,-15228,3056,6180,42,-158,81
10507.909,307,304,300,315,-15228,3056,6180,42,-158,81
10518.146,307,303,301,315,-15228,3056,6180,42,-158,81
10520.525,308,304,302,316,-15228,3056,6180,42,-158,81
10529.633,307,303,301,315,-15228,3056,6180,42,-158,81
10529.633,306,304,300,315,-15228,3056,6180,42,-158,81
10536.617,306,304,301,315,-15228,3056,6180,42,-158,81
10540.823,307,304,301,315,-15108,2976,5884,-97,44,40
10551.096,307,304,301,316,-15108,2976,5884,-97,44,40
10551.096,307,304,301,316,-15108,2976,5884,-97,44,40
10562.215999999999,307,304,301,315,-15108,2976,5884,-97,44,40
10562.215999999999,307,304,299,314,-15108,2976,5884,-97,44,40
10569.903,307,304,299,315,-15108,2976,5884,-97,44,40
10573.812,307,305,301,316,-15108,2976,5884,-97,44,40
10584.214,308,305,301,316,-15156,2804,5496,-359,183,40
10585.151,307,305,300,315,-15156,2804,5496,-359,183,40
10595.854,308,305,300,315,-15156,2804,5496,-359,183,40
10595.854,308,305,300,315,-15156,2804,5496,-359,183,40
10606.925000000001,308,305,300,315,-15156,2804,5496,-359,183,40
10612.454,307,306,299,314,-15156,2804,5496,-359,183,40
10618.304,306,305,298,313,-15156,2804,5496,-359,183,40
10618.304,306,305,299,313,-15168,2960,5928,-583,233,76
10629.091,306,305,299,314,-15168,2960,5928,-583,233,76
10637.207999999999,306,306,301,315,-15168,2960,5928,-583,233,76
10640.483,306,306,301,315,-15168,2960,5928,-583,233,76
10642.591,306,306,300,314,-15168,2960,5928,-583,233,76
10651.315,304,306,300,313,-15168,2960,5928,-583,233,76
10651.315,304,306,299,313,-15168,2960,5928,-583,233,76
10662.755000000001,305,306,300,314,-15152,3028,5728,-71,205,-55
10668.108999999999,305,306,301,314,-15152,3028,5728,-71,205,-55
10673.006000000001,304,306,300,314,-15152,3028,5728,-71,205,-55
10679.791,304,306,302,315,-15152,3028,5728,-71,205,-55
10684.208999999999,305,306,302,314,-15152,3028,5728,-71,205,-55
10691.475,305,306,301,315,-15152,3028,5728,-71,205,-55
10696.002,305,305,301,315,-15152,3028,5728,-71,205,-55
10706.967,305,306,302,315,-15204,2920,5804,122,-62,-13
10707.912,305,305,300,313,-15204,2920,5804,122,-62,-13
10718.315999999999,304,305,302,313,-15204,2920,5804,122,-62,-13
10718.315999999999,304,305,300,314,-15204,2920,5804,122,-62,-13
10725.009,306,305,301,314,-15204,2920,5804,122,-62,-13
10729.471,305,305,300,314,-15204,2920,5804,122,-62,-13
10739.712000000001,304,304,301,313,-15204,2920,5804,122,-62,-13
10740.36,306,304,302,314,-15144,2976,5792,-43,-266,-60
10751.279,305,304,301,313,-15144,2976,5792,-43,-266,-60
10751.279,305,305,301,314,-15144,2976,5792,-43,-266,-60
10762.269999999999,305,305,301,313,-15144,2976,5792,-43,-266,-60
10762.269999999999,305,305,301,313,-15144,2976,5792,-43,-266,-60
10773.84,306,304,300,313,-15144,2976,5792,-43,-266,-60
10778.293,306,304,300,312,-15144,2976,5792,-43,-266,-60
10784.432,306,304,300,313,-15220,3068,5924,-123,-159,18
10790.217,305,304,301,312,-15220,3068,5924,-123,-159,18
10795.334,306,304,301,314,-15220,3068,5924,-123,-159,18
10802.076,306,304,301,314,-15220,3068,5924,-123,-159,18
10807.721000000001,305,304,299,313,-15220,3068,5924,-123,-159,18
10817.529999999999,305,304,298,312,-15220,3068,5924,-123,-159,18
10818.714999999998,305,303,300,313,-15168,3036,6100,-116,-118,28
10829.065,305,303,300,313,-15168,3036,6100,-116,-118,28
10829.065,304,303,300,312,-15168,3036,6100,-116,-118,28
10840.197,304,303,301,313,-15168,3036,6100,-116,-118,28
10840.197,304,303,299,312,-15168,3036,6100,-116,-118,28
10848.267,303,302,300,311,-15168,3036,6100,-116,-118,28
10851.6,303,302,300,311,-15168,3036,6100,-116,-118,28
10862.550000000001,303,301,301,312,-15124,2952,5836,-330,81,1
10870.85,303,302,300,312,-15124,2952,5836,-330,81,1
10873.913999999999,303,303,301,312,-15124,2952,5836,-330,81,1
10873.913999999999,303,303,301,313,-15124,2952,5836,-330,81,1
10884.728000000001,303,303,301,313,-15124,2952,5836,-330,81,1
10888.868999999999,303,302,301,313,-15124,2952,5836,-330,81,1
10888.868999999999,303,302,300,312,-15124,2952,5836,-330,81,1
10897.378,305,302,301,312,-15192,2996,6104,-323,48,43
10907.357,305,302,302,313,-15192,2996,6104,-323,48,43
10907.357,306,302,302,312,-15192,2996,6104,-323,48,43
10917.516000000001,304,302,301,311,-15192,2996,6104,-323,48,43
10917.516000000001,305,302,302,312,-15192,2996,6104,-323,48,43
10929.156,305,302,301,312,-15192,2996,6104,-323,48,43
10933.756000000001,305,302,300,311,-15192,2996,6104,-323,48,43
10940.232999999998,305,302,301,312,-15192,2996,6104,-323,48,43
10942.021,306,301,300,311,-15220,2952,5884,-254,95,10
10951.553,306,302,300,311,-15220,2952,5884,-254,95,10
10951.553,306,302,301,312,-15220,2952,5884,-254,95,10
10963.285000000002,307,303,301,312,-15220,2952,5884,-254,95,10
10966.547,306,302,300,312,-15220,2952,5884,-254,95,10
10973.596000000001,306,303,301,312,-15220,2952,5884,-254,95,10
10978.498,306,303,300,312,-15220,2952,5884,-254,95,10
10984.788,307,303,301,311,-15096,2860,5872,-79,-192,118
10987.137999999999,309,303,302,312,-15096,2860,5872,-79,-192,118
10996.805,309,304,302,312,-15096,2860,5872,-79,-192,118
11005.841999999999,308,303,300,312,-15096,2860,5872,-79,-192,118
11006.445,309,304,301,312,-15096,2860,5872,-79,-192,118
11017.658000000001,310,303,301,311,-15096,2860,5872,-79,-192,118
11017.658000000001,310,303,300,311,-15096,2860,5872,-79,-192,118
11017.658000000001,311,304,301,312,-15112,2908,5984,-156,-82,73
11028.813,310,303,301,311,-15112,2908,5984,-156,-82,73
11028.813,311,303,301,312,-15112,2908,5984,-156,-82,73
11039.893,311,303,300,311,-15112,2908,5984,-156,-82,73
11051.606,310,303,297,310,-15112,2908,5984,-156,-82,73
11051.606,310,304,300,311,-15112,2908,5984,-156,-82,73
11062.720000000001,309,303,299,310,-15200,2820,5944,-103,154,73
11062.720000000001,309,303,298,310,-15200,2820,5944,-103,154,73
11073.836,310,303,299,311,-15200,2820,5944,-103,154,73
11077.268,309,304,301,312,-15200,2820,5944,-103,154,73
11087.026,309,303,299,310,-15200,2820,5944,-103,154,73
11091.142,308,303,296,309,-15200,2820,5944,-103,154,73
11096.351999999999,309,303,298,309,-15200,2820,5944,-103,154,73
11104.317,307,302,295,307,-15100,2940,5888,-23,109,100
11108.029,307,302,297,308,-15100,2940,5888,-23,109,100
11113.022,307,302,297,309,-15100,2940,5888,-23,109,100
11117.530999999999,308,302,298,308,-15100,2940,5888,-23,109,100
11122.154,308,303,297,309,-15100,2940,5888,-23,109,100
11128.666000000001,308,304,299,310,-15100,2940,5888,-23,109,100
11133.986,309,304,299,311,-15100,2940,5888,-23,109,100
11139.767000000002,308,304,299,310,-15168,3208,5972,217,-186,-95
11147.035,309,304,298,310,-15168,3208,5972,217,-186,-95
11151.538,310,304,300,310,-15168,3208,5972,217,-186,-95
11159.008,310,303,300,310,-15168,3208,5972,217,-186,-95
11162.646,311,304,300,311,-15168,3208,5972,217,-186,-95
11173.881,313,305,302,312,-15168,3208,5972,217,-186,-95
11174.936000000002,312,305,301,310,-15168,3208,5972,217,-186,-95
11184.024000000001,312,305,303,312,-15172,2900,5988,447,137,-259
11187.026,312,305,302,312,-15172,2900,5988,447,137,-259
11195.651,312,304,302,311,-15172,2900,5988,447,137,-259
11199.227,311,304,304,312,-15172,2900,5988,447,137,-259
11207.065,311,304,303,312,-15172,2900,5988,447,137,-259
11214.53,309,304,301,311,-15172,2900,5988,447,137,-259
11218.017,308,304,303,312,-15172,2900,5988,447,137,-259
11220.729000000001,307,304,304,312,-15096,2896,5988,390,67,-88
11229.214,305,304,302,311,-15096,2896,5988,390,67,-88
11229.214,304,304,302,311,-15096,2896,5988,390,67,-88
11240.824999999999,304,303,302,311,-15096,2896,5988,390,67,-88
11240.824999999999,303,303,300,310,-15096,2896,5988,390,67,-88
11251.344,301,303,301,310,-15096,2896,5988,390,67,-88
11259.399,301,303,301,310,-15096,2896,5988,390,67,-88
11261.957,299,304,301,310,-15084,2640,5464,-183,145,-21
11265.196,299,304,300,310,-15084,2640,5464,-183,145,-21
11273.538,298,304,300,310,-15084,2640,5464,-183,145,-21
11284.463,298,304,301,311,-15084,2640,5464,-183,145,-21
11285.019,298,304,300,310,-15084,2640,5464,-183,145,-21
11295.444,298,305,301,311,-15084,2640,5464,-183,145,-21
11295.444,299,304,301,311,-15084,2640,5464,-183,145,-21
11295.444,299,305,301,310,-15272,2896,5976,-578,225,90
11306.85,298,305,300,310,-15272,2896,5976,-578,225,90
11314.525,298,305,299,309,-15272,2896,5976,-578,225,90
11318.839,298,305,300,310,-15272,2896,5976,-578,225,90
11329.181,299,305,300,310,-15272,2896,5976,-578,225,90
11333.848,298,305,299,309,-15272,2896,5976,-578,225,90
11339.998,299,305,299,309,-15272,2896,5976,-578,225,90
11342.873000000001,299,305,301,309,-15128,2828,5668,-97,-31,172
11351.95,299,305,300,310,-15128,2828,5668,-97,-31,172
11351.95,299,305,299,310,-15128,2828,5668,-97,-31,172
11362.589,300,305,300,310,-15128,2828,5668,-97,-31,172
11368.356,300,305,300,310,-15128,2828,5668,-97,-31,172
11373.003999999999,301,306,301,310,-15128,2828,5668,-97,-31,172
11373.003999999999,301,305,302,311,-15128,2828,5668,-97,-31,172
11385.555,301,305,301,311,-15192,2892,6128,103,-90,257
11394.724999999999,300,306,302,310,-15192,2892,6128,103,-90,257
11396.032,300,305,300,310,-15192,2892,6128,103,-90,257
11404.118,300,305,301,310,-15192,2892,6128,103,-90,257
11406.374,300,305,301,310,-15192,2892,6128,103,-90,257
11414.199999999999,301,305,301,310,-15192,2892,6128,103,-90,257
11417.812,300,304,300,310,-15192,2892,6128,103,-90,257
11425.572,300,304,301,310,-15072,2892,5912,185,175,332
11429.791,300,305,301,310,-15072,2892,5912,185,175,332
11433.846000000001,301,304,302,310,-15072,2892,5912,185,175,332
11440.457999999999,301,304,302,311,-15072,2892,5912,185,175,332
11452.018,302,304,301,310,-15072,2892,5912,185,175,332
11452.018,304,303,301,310,-15072,2892,5912,185,175,332
11458.175000000001,304,303,301,310,-15072,2892,5912,185,175,332
11462.65,305,304,301,311,-15180,3248,5864,1,151,236
11471.585,306,304,301,310,-15180,3248,5864,1,151,236
11473.853000000001,306,303,301,310,-15180,3248,5864,1,151,236
11479.015000000001,307,303,300,310,-15180,3248,5864,1,151,236
11485.628,308,303,300,310,-15180,3248,5864,1,151,236
11496.545,308,303,300,310,-15180,3248,5864,1,151,236
11496.545,308,302,300,311,-15180,3248,5864,1,151,236
11503.096,308,303,301,311,-15212,2980,5764,-274,461,6
11507.094000000001,306,303,302,312,-15212,2980,5764,-274,461,6
11517.964,307,304,302,311,-15212,2980,5764,-274,461,6
11517.964,306,304,302,311,-15212,2980,5764,-274,461,6
11529.134,307,303,302,311,-15212,2980,5764,-274,461,6
11531.815999999999,307,304,302,311,-15212,2980,5764,-274,461,6
11540.169,307,304,303,312,-15212,2980,5764,-274,461,6
11543.339,307,303,303,312,-15252,3036,5648,302,289,-173
11551.689,306,303,299,308,-15252,3036,5648,302,289,-173
11558.329,309,303,298,309,-15252,3036,5648,302,289,-173
11562.946,312,303,301,311,-15252,3036,5648,302,289,-173
11570.648000000001,316,304,300,312,-15252,3036,5648,302,289,-173
11574.880000000001,318,303,299,311,-15252,3036,5648,302,289,-173
11578.02,320,303,299,311,-15252,3036,5648,302,289,-173
11585.003999999999,322,303,298,310,-15104,2968,5728,192,152,-17
11585.003999999999,323,303,297,310,-15104,2968,5728,192,152,-17
11596.561,322,311,297,309,-15104,2968,5728,192,152,-17
11601.988000000001,321,319,296,310,-15104,2968,5728,192,152,-17
11610.01,320,323,297,311,-15104,2968,5728,192,152,-17
11614.305,319,326,296,309,-15104,2968,5728,192,152,-17
11618.26,317,326,296,310,-15104,2968,5728,192,152,-17
11622.089,317,326,297,310,-15208,2876,5564,219,563,-139
11629.922,314,324,294,308,-15208,2876,5564,219,563,-139
11640.37,313,324,295,309,-15208,2876,5564,219,563,-139
11640.37,311,323,297,310,-15208,2876,5564,219,563,-139
11651.79,309,321,297,310,-15208,2876,5564,219,563,-139
11654.675,307,320,297,310,-15208,2876,5564,219,563,-139
11654.675,306,318,296,309,-15208,2876,5564,219,563,-139
11663.304999999998,304,316,296,308,-15332,3052,5688,710,-146,-46
11673.67,303,313,298,309,-15332,3052,5688,710,-146,-46
11682.076000000001,301,312,298,309,-15332,3052,5688,710,-146,-46
11684.995,300,311,298,308,-15332,3052,5688,710,-146,-46
11693.358,297,309,297,307,-15332,3052,5688,710,-146,-46
11695.778,296,308,299,308,-15332,3052,5688,710,-146,-46
11700.1,296,307,299,309,-15240,2868,5600,-241,456,-88
11707.159000000001,295,306,298,307,-15240,2868,5600,-241,456,-88
11714.187,294,304,298,307,-15240,2868,5600,-241,456,-88
11718.021,295,304,300,307,-15240,2868,5600,-241,456,-88
11724.537,294,303,300,307,-15240,2868,5600,-241,456,-88
11728.818000000001,294,303,299,307,-15240,2868,5600,-241,456,-88
11737.686,294,302,300,307,-15240,2868,5600,-241,456,-88
11740.475999999999,294,301,299,306,-15276,2816,5348,-443,240,161
11751.375,293,299,299,305,-15276,2816,5348,-443,240,161
11751.375,294,299,301,307,-15276,2816,5348,-443,240,161
11762.222,295,299,302,308,-15276,2816,5348,-443,240,161
11764.984,295,298,302,307,-15276,2816,5348,-443,240,161
11774.718,295,298,302,308,-15276,2816,5348,-443,240,161
11774.718,295,298,303,308,-15276,2816,5348,-443,240,161
11785.385,295,297,301,307,-15244,3012,5872,-596,164,311
11790.206,296,297,302,307,-15244,3012,5872,-596,164,311
11795.212,299,296,303,308,-15244,3012,5872,-596,164,311
11802.154,299,296,303,308,-15244,3012,5872,-596,164,311
11807.132,299,296,302,308,-15244,3012,5872,-596,164,311
11814.481,301,296,303,308,-15244,3012,5872,-596,164,311
11818.042,301,296,303,308,-15244,3012,5872,-596,164,311
11828.817000000001,302,296,305,309,-15260,2908,5616,-487,442,176
11829.39,303,295,305,310,-15260,2908,5616,-487,442,176
11840.598999999998,304,295,304,310,-15260,2908,5616,-487,442,176
11840.598999999998,308,296,306,310,-15260,2908,5616,-487,442,176
11848.957,309,296,304,309,-15260,2908,5616,-487,442,176
11854.228000000001,311,296,306,311,-15260,2908,5616,-487,442,176
11861.961000000001,313,297,304,310,-15260,2908,5616,-487,442,176
11870.767,316,297,305,310,-15308,3288,5464,-595,356,590
11874.494999999999,320,297,304,311,-15308,3288,5464,-595,356,590
11882.497000000001,322,297,305,311,-15308,3288,5464,-595,356,590
11885.208999999999,324,298,304,311,-15308,3288,5464,-595,356,590
11894.441,325,298,305,311,-15308,3288,5464,-595,356,590
11895.989,326,299,305,311,-15308,3288,5464,-595,356,590
11900.651,327,299,305,311,-15308,3288,5464,-595,356,590
11907.434000000001,328,300,304,311,-15304,2768,5464,-1836,1049,1060
11917.619999999999,328,300,304,310,-15304,2768,5464,-1836,1049,1060
11920.514000000001,328,300,304,311,-15304,2768,5464,-1836,1049,1060
11930.281,328,300,304,311,-15304,2768,5464,-1836,1049,1060
11930.281,327,301,304,311,-15304,2768,5464,-1836,1049,1060
11940.32,326,301,304,311,-15304,2768,5464,-1836,1049,1060
11945.605,325,301,304,310,-15108,2328,5264,-2191,1780,1533
11951.164999999999,324,302,304,310,-15108,2328,5264,-2191,1780,1533
11957.475,324,302,305,310,-15108,2328,5264,-2191,1780,1533
11961.951,323,303,304,311,-15108,2328,5264,-2191,1780,1533
11969.766,323,304,304,310,-15108,2328,5264,-2191,1780,1533
11973.712000000001,324,305,304,310,-15108,2328,5264,-2191,1780,1533
11984.662,323,306,304,311,-15468,2512,4720,-2360,2574,1899
11992.725999999999,323,308,304,311,-15468,2512,4720,-2360,2574,1899
11995.851999999999,322,309,304,311,-15468,2512,4720,-2360,2574,1899
12005.444000000001,322,310,304,311,-15468,2512,4720,-2360,2574,1899
12006.749,323,311,305,310,-15468,2512,4720,-2360,2574,1899
12014.321,323,311,305,310,-15468,2512,4720,-2360,2574,1899
12018.222,322,312,305,310,-15468,2512,4720,-2360,2574,1899
12029.103,322,312,305,310,-15356,840,3808,-493,1790,2127
12029.103,323,312,304,309,-15356,840,3808,-493,1790,2127
12040.403,325,312,303,308,-15356,840,3808,-493,1790,2127
12040.403,330,312,303,307,-15356,840,3808,-493,1790,2127
12051.603,333,312,301,305,-15356,840,3808,-493,1790,2127
12056.298,338,311,301,304,-15356,840,3808,-493,1790,2127
12062.871,341,310,300,302,-15060,200,2528,63,-1139,4229
12068.41,343,310,299,301,-15060,200,2528,63,-1139,4229
12073.007,341,310,298,304,-15060,200,2528,63,-1139,4229
12079.996,340,309,299,311,-15060,200,2528,63,-1139,4229
12085.061,335,310,300,316,-15060,200,2528,63,-1139,4229
12088.739,328,309,301,321,-15060,200,2528,63,-1139,4229
12096.036,323,309,302,329,-15060,200,2528,63,-1139,4229
12107.391,319,309,303,337,-14568,400,3936,-39,-5894,7160
12108.148,312,306,302,345,-14568,400,3936,-39,-5894,7160
12117.796,304,305,303,351,-14568,400,3936,-39,-5894,7160
12117.796,293,304,304,356,-14568,400,3936,-39,-5894,7160
12129.467,282,303,304,361,-14568,400,3936,-39,-5894,7160
12134.012999999999,270,302,305,365,-14568,400,3936,-39,-5894,7160
12140.091,259,301,307,370,-14568,400,3936,-39,-5894,7160
12146.401,250,300,309,374,-13784,-564,1976,-1028,-8233,9882
12150.926,247,298,312,378,-13784,-564,1976,-1028,-8233,9882
12157.947999999999,249,295,316,383,-13784,-564,1976,-1028,-8233,9882
12162.853000000001,255,286,319,388,-13784,-564,1976,-1028,-8233,9882
12173.642,262,271,324,394,-13784,-564,1976,-1028,-8233,9882
12181.652,270,259,328,400,-13784,-564,1976,-1028,-8233,9882
12184.783,277,247,331,404,-12472,1640,3064,-1834,-12754,13741
12191.452,279,237,334,410,-12472,1640,3064,-1834,-12754,13741
12195.507,275,229,339,418,-12472,1640,3064,-1834,-12754,13741
12207.039999999999,266,225,341,422,-12472,1640,3064,-1834,-12754,13741
12211.726,251,222,343,425,-12472,1640,3064,-1834,-12754,13741
12218.617999999999,232,219,345,426,-12472,1640,3064,-1834,-12754,13741
12223.939,209,217,347,426,-10532,3240,5704,-60,-17103,17492
12228.545,184,218,352,423,-10532,3240,5704,-60,-17103,17492
12235.780999999999,162,218,355,420,-10532,3240,5704,-60,-17103,17492
12240.241,141,215,357,417,-10532,3240,5704,-60,-17103,17492
12252.466,119,210,360,412,-10532,3240,5704,-60,-17103,17492
12252.466,103,206,359,407,-10532,3240,5704,-60,-17103,17492
12262.693000000001,89,204,358,402,-10532,3240,5704,-60,-17103,17492
12271.02,76,203,357,394,-9364,8804,9952,2123,-15440,16287
12273.289,67,203,357,387,-9364,8804,9952,2123,-15440,16287
12281.031,61,205,359,380,-9364,8804,9952,2123,-15440,16287
12285.436000000002,56,208,360,372,-9364,8804,9952,2123,-15440,16287
12295.722,53,212,364,364,-9364,8804,9952,2123,-15440,16287
12303.765,50,216,365,357,-9364,8804,9952,2123,-15440,16287
12307.878,49,220,366,348,-8060,8856,10740,-6355,-11499,15583
12315.53,50,225,366,338,-8060,8856,10740,-6355,-11499,15583
12317.923,55,231,365,331,-8060,8856,10740,-6355,-11499,15583
12329.0,62,241,363,320,-8060,8856,10740,-6355,-11499,15583
12329.898,72,247,359,311,-8060,8856,10740,-6355,-11499,15583
12340.542,85,254,353,302,-8060,8856,10740,-6355,-11499,15583
12348.616,98,261,350,296,-5796,11092,9260,-11111,-10297,13579
12351.327,115,268,346,287,-5796,11092,9260,-11111,-10297,13579
12362.083,131,277,344,281,-5796,11092,9260,-11111,-10297,13579
12365.393,151,286,340,273,-5796,11092,9260,-11111,-10297,13579
12373.483,172,296,338,267,-5796,11092,9260,-11111,-10297,13579
12379.802,196,304,336,262,-5796,11092,9260,-11111,-10297,13579
12384.897,215,307,333,257,-5428,9224,9956,-12878,-12144,11825
12396.169,237,305,331,251,-5428,9224,9956,-12878,-12144,11825
12400.107,259,301,328,249,-5428,9224,9956,-12878,-12144,11825
12407.162,277,295,325,249,-5428,9224,9956,-12878,-12144,11825
12411.742,297,287,323,250,-5428,9224,9956,-12878,-12144,11825
12417.493,318,278,321,249,-5428,9224,9956,-12878,-12144,11825
12429.314,338,273,319,246,-4356,11076,12820,-9968,-14590,8377
12433.809,355,268,318,245,-4356,11076,12820,-9968,-14590,8377
12440.557999999999,370,266,315,248,-4356,11076,12820,-9968,-14590,8377
12451.042,385,266,313,253,-4356,11076,12820,-9968,-14590,8377
12451.042,399,265,309,258,-4356,11076,12820,-9968,-14590,8377
12463.19,409,265,307,263,-4356,11076,12820,-9968,-14590,8377
12463.19,420,266,304,267,-3528,7468,11804,-7141,-15400,5971
12474.002,430,264,304,269,-3528,7468,11804,-7141,-15400,5971
12474.002,438,261,305,269,-3528,7468,11804,-7141,-15400,5971
12484.681999999999,445,257,308,269,-3528,7468,11804,-7141,-15400,5971
12496.083999999999,451,254,313,270,-3528,7468,11804,-7141,-15400,5971
12496.083999999999,456,253,320,272,-3528,7468,11804,-7141,-15400,5971
12507.486,458,256,329,274,-2004,9148,13184,-7550,-18335,5241
12511.317000000001,459,259,338,275,-2004,9148,13184,-7550,-18335,5241
12518.018,460,256,342,277,-2004,9148,13184,-7550,-18335,5241
12528.979,460,248,344,274,-2004,9148,13184,-7550,-18335,5241
12530.813,454,268,348,268,-2004,9148,13184,-7550,-18335,5241
12541.010999999999,445,294,355,262,-2004,9148,13184,-7550,-18335,5241
12541.010999999999,434,313,360,254,-272,8312,15992,-5193,-19703,4571
12551.733,420,326,365,246,-272,8312,15992,-5193,-19703,4571
12555.562,407,350,371,241,-272,8312,15992,-5193,-19703,4571
12562.032000000001,394,369,380,237,-272,8312,15992,-5193,-19703,4571
12573.055999999999,382,388,387,234,-272,8312,15992,-5193,-19703,4571
12575.793000000001,371,395,395,230,-272,8312,15992,-5193,-19703,4571
12585.748000000001,362,400,401,228,-272,8312,15992,-5193,-19703,4571
12585.748000000001,351,403,406,224,1892,9020,16056,-2286,-17699,3462
12596.066,338,399,410,224,1892,9020,16056,-2286,-17699,3462
12601.01,329,391,411,224,1892,9020,16056,-2286,-17699,3462
12607.516,316,380,411,226,1892,9020,16056,-2286,-17699,3462
12618.207,304,376,413,229,1892,9020,16056,-2286,-17699,3462
12621.083,294,375,417,232,1892,9020,16056,-2286,-17699,3462
12630.202000000001,280,376,423,240,8960,24480,32511,611,-3091,4281
12630.202000000001,267,383,430,256,8960,24480,32511,611,-3091,4281
12640.381,258,389,435,273,8960,24480,32511,611,-3091,4281
12648.574,250,395,436,298,8960,24480,32511,611,-3091,4281
12650.949,241,400,434,327,8960,24480,32511,611,-3091,4281
12658.352,235,404,426,359,8960,24480,32511,611,-3091,4281
12662.829,231,408,410,397,2368,-6300,22244,3919,1969,-1666
12672.99,233,411,391,431,2368,-6300,22244,3919,1969,-1666
12672.99,240,412,379,450,2368,-6300,22244,3919,1969,-1666
12684.875999999998,248,413,363,468,2368,-6300,22244,3919,1969,-1666
12692.921,256,414,344,479,2368,-6300,22244,3919,1969,-1666
12695.705,262,414,330,484,2368,-6300,22244,3919,1969,-1666
12705.124,268,416,317,486,2368,-6300,22244,3919,1969,-1666
12706.978,272,417,304,484,1712,8464,10376,-639,6367,-240
12716.602,280,417,293,480,1712,8464,10376,-639,6367,-240
12718.399,283,418,286,481,1712,8464,10376,-639,6367,-240
12729.036,285,418,279,486,1712,8464,10376,-639,6367,-240
12731.604000000001,287,418,273,489,1712,8464,10376,-639,6367,-240
12741.064,292,417,270,489,1712,8464,10376,-639,6367,-240
12741.064,295,414,267,485,1712,8464,10376,-639,6367,-240
12751.099999999999,298,412,264,480,68,8840,17884,-4771,5504,29
12751.823999999999,300,408,261,472,68,8840,17884,-4771,5504,29
12762.306,302,406,259,466,68,8840,17884,-4771,5504,29
12770.35,304,405,256,459,68,8840,17884,-4771,5504,29
12773.695,307,402,253,448,68,8840,17884,-4771,5504,29
12773.695,310,400,251,440,68,8840,17884,-4771,5504,29
12784.860999999999,314,397,248,430,68,8840,17884,-4771,5504,29
12789.151,318,393,244,418,-284,5340,13052,2734,-1796,-251
12796.33,322,389,242,408,-284,5340,13052,2734,-1796,-251
12801.531,328,385,239,397,-284,5340,13052,2734,-1796,-251
12806.406,333,380,236,387,-284,5340,13052,2734,-1796,-251
12816.569,339,376,234,376,-284,5340,13052,2734,-1796,-251
12818.303,344,370,233,367,-284,5340,13052,2734,-1796,-251
12828.55,350,365,232,357,1008,7180,15824,7241,-4758,212
12829.179999999998,356,359,231,346,1008,7180,15824,7241,-4758,212
12840.239,360,355,230,339,1008,7180,15824,7241,-4758,212
12848.29,364,350,229,330,1008,7180,15824,7241,-4758,212
12851.487000000001,369,345,228,322,1008,7180,15824,7241,-4758,212
12854.107,371,341,226,313,1008,7180,15824,7241,-4758,212
12862.864,373,337,225,306,1008,7180,15824,7241,-4758,212
12866.572,374,332,224,298,1152,6948,14544,2690,-2149,-267
12873.301,376,327,224,290,1152,6948,14544,2690,-2149,-267
12885.482,378,323,224,284,1152,6948,14544,2690,-2149,-267
12887.155999999999,380,320,224,278,1152,6948,14544,2690,-2149,-267
12887.155999999999,381,316,224,272,1152,6948,14544,2690,-2149,-267
12896.958,381,313,224,267,1152,6948,14544,2690,-2149,-267
12906.661,380,310,224,263,1096,7360,14888,-1672,1687,-75
12907.609,379,306,223,258,1096,7360,14888,-1672,1687,-75
12918.753,380,304,224,255,1096,7360,14888,-1672,1687,-75
12926.966,382,301,224,251,1096,7360,14888,-1672,1687,-75
12931.481,382,299,223,248,1096,7360,14888,-1672,1687,-75
12938.662,381,296,224,245,1096,7360,14888,-1672,1687,-75
12943.077000000001,381,293,226,243,1096,7360,14888,-1672,1687,-75
12951.387,381,290,226,241,796,7468,14472,-2529,2545,-187
12951.387,380,287,227,238,796,7468,14472,-2529,2545,-187
12963.399000000001,379,285,227,237,796,7468,14472,-2529,2545,-187
12963.399000000001,377,283,227,237,796,7468,14472,-2529,2545,-187
12973.326000000001,374,282,227,235,796,7468,14472,-2529,2545,-187
12973.326000000001,372,278,227,234,796,7468,14472,-2529,2545,-187
12984.776,370,277,228,234,796,7468,14472,-2529,2545,-187
12992.811,369,274,228,232,544,6804,14288,-828,467,-23
12995.916,368,272,230,232,544,6804,14288,-828,467,-23
13004.091,366,271,230,232,544,6804,14288,-828,467,-23
13006.963000000002,364,269,231,231,544,6804,14288,-828,467,-23
13009.678,361,268,231,231,544,6804,14288,-828,467,-23
13018.494999999999,360,268,232,231,544,6804,14288,-828,467,-23
13021.875,359,266,233,231,544,6804,14288,-828,467,-23
13029.082,358,266,233,231,664,6844,14256,1637,-1357,9
13034.877,358,264,233,231,664,6844,14256,1637,-1357,9
13039.747,357,264,234,232,664,6844,14256,1637,-1357,9
13042.859,356,263,235,232,664,6844,14256,1637,-1357,9
13052.376,356,264,236,232,664,6844,14256,1637,-1357,9
13052.376,354,263,237,233,664,6844,14256,1637,-1357,9
13062.716,354,262,238,233,664,6844,14256,1637,-1357,9
13062.716,352,262,237,234,884,7316,14528,1038,-1049,45
13073.727,352,262,239,235,884,7316,14528,1038,-1049,45
13081.0,351,261,240,236,884,7316,14528,1038,-1049,45
13084.876,351,261,241,236,884,7316,14528,1038,-1049,45
13088.335000000001,350,261,242,237,884,7316,14528,1038,-1049,45
13096.335,349,262,243,238,884,7316,14528,1038,-1049,45
13107.037999999999,349,262,244,239,884,7316,14528,1038,-1049,45
13107.886,349,262,245,240,852,7212,14352,-268,356,-75
13112.318,348,262,246,241,852,7212,14352,-268,356,-75
13117.65,348,262,247,242,852,7212,14352,-268,356,-75
13124.717999999999,348,262,249,243,852,7212,14352,-268,356,-75
13129.64,347,262,249,244,852,7212,14352,-268,356,-75
13139.693,347,263,250,245,852,7212,14352,-268,356,-75
13140.483,345,263,251,246,852,7212,14352,-268,356,-75
13152.211,344,262,252,247,764,7260,14440,-1142,965,-90
13152.582,344,262,254,248,764,7260,14440,-1142,965,-90
13161.861,343,262,255,249,764,7260,14440,-1142,965,-90
13165.663999999999,342,262,257,251,764,7260,14440,-1142,965,-90
13173.394999999999,342,262,258,252,764,7260,14440,-1142,965,-90
13174.645,341,262,259,252,764,7260,14440,-1142,965,-90
13184.238000000001,340,262,259,254,764,7260,14440,-1142,965,-90
13184.238000000001,339,263,260,255,720,7084,14276,-561,464,-17
13195.841,338,263,261,256,720,7084,14276,-561,464,-17
13195.841,338,263,262,257,720,7084,14276,-561,464,-17
13207.091999999999,338,264,264,258,720,7084,14276,-561,464,-17
13207.091999999999,337,263,265,258,720,7084,14276,-561,464,-17
13217.559,337,264,266,260,720,7084,14276,-561,464,-17
13218.34,336,264,268,262,720,7084,14276,-561,464,-17
13229.239,335,265,268,262,796,7124,14428,570,-430,-11
13237.315,333,266,268,263,796,7124,14428,570,-430,-11
13240.168000000001,333,267,269,264,796,7124,14428,570,-430,-11
13240.168000000001,332,267,270,265,796,7124,14428,570,-430,-11
13253.068000000001,332,268,271,266,796,7124,14428,570,-430,-11
13253.068000000001,331,268,270,267,796,7124,14428,570,-430,-11
13262.742,331,269,272,268,796,7124,14428,570,-430,-11
13271.145,330,270,272,269,800,7288,14544,305,-412,-1
13274.155,329,271,273,269,800,7288,14544,305,-412,-1
13274.155,328,272,274,270,800,7288,14544,305,-412,-1
13284.86,328,273,275,271,800,7288,14544,305,-412,-1
13288.669,328,274,274,272,800,7288,14544,305,-412,-1
13296.139000000001,327,274,274,272,800,7288,14544,305,-412,-1
13296.139000000001,327,275,275,274,800,7288,14544,305,-412,-1
13306.916,327,274,275,275,760,7196,14308,-113,140,-104
13314.96,325,275,275,276,760,7196,14308,-113,140,-104
13318.248000000001,325,275,276,277,760,7196,14308,-113,140,-104
13318.248000000001,325,276,277,278,760,7196,14308,-113,140,-104
13329.772,324,276,277,278,760,7196,14308,-113,140,-104
13334.339,323,275,278,279,760,7196,14308,-113,140,-104
13340.795999999998,324,275,278,280,760,7196,14308,-113,140,-104
13346.07,323,275,279,281,760,7100,14444,-587,540,-65
13350.802,321,275,279,281,760,7100,14444,-587,540,-65
13354.25,321,275,280,282,760,7100,14444,-587,540,-65
13363.731,321,275,281,283,760,7100,14444,-587,540,-65
13373.086000000001,319,275,281,283,760,7100,14444,-587,540,-65
13373.819,319,274,281,284,760,7100,14444,-587,540,-65
13380.176000000001,319,274,282,285,760,7100,14444,-587,540,-65
13384.385999999999,318,275,282,286,680,7120,14468,-354,326,-55
13392.637,318,274,282,286,680,7120,14468,-354,326,-55
13397.869,316,275,284,287,680,7120,14468,-354,326,-55
13399.784,316,276,285,288,680,7120,14468,-354,326,-55
13406.948,315,276,285,288,680,7120,14468,-354,326,-55
13418.034,314,276,285,288,680,7120,14468,-354,326,-55
13419.739,315,276,286,290,680,7120,14468,-354,326,-55
13419.739,314,276,287,290,680,7120,14468,-354,326,-55
13429.599,314,277,287,290,664,7088,14448,88,-116,-24
13436.474,314,277,289,291,664,7088,14448,88,-116,-24
13440.55,313,278,289,292,664,7088,14448,88,-116,-24
13445.224,313,278,289,292,664,7088,14448,88,-116,-24
13452.546,312,279,290,292,664,7088,14448,88,-116,-24
13452.546,312,280,290,293,664,7088,14448,88,-116,-24
13462.85,312,279,291,294,664,7088,14448,88,-116,-24
13469.221,311,279,291,294,772,7148,14380,108,-83,8
13473.643,311,280,291,294,772,7148,14380,108,-83,8
13484.045999999998,311,280,292,295,772,7148,14380,108,-83,8
13485.632000000001,310,280,292,295,772,7148,14380,108,-83,8
13485.632000000001,310,280,293,295,772,7148,14380,108,-83,8
13496.112000000001,309,280,293,295,772,7148,14380,108,-83,8
13504.225,309,280,294,296,772,7148,14380,108,-83,8
13506.312,310,280,295,297,664,7196,14352,17,109,-23
13509.641,309,280,294,296,664,7196,14352,17,109,-23
13519.222,309,280,295,297,664,7196,14352,17,109,-23
13519.222,309,280,296,298,664,7196,14352,17,109,-23
13528.595,309,280,295,298,664,7196,14352,17,109,-23
13529.454,308,280,295,297,664,7196,14352,17,109,-23
13540.86,308,280,295,298,664,7196,14352,17,109,-23
13540.86,307,280,297,299,664,7196,14352,17,109,-23
13551.893,308,280,297,299,684,7212,14496,-241,200,-48
13551.893,307,279,297,299,684,7212,14496,-241,200,-48
13559.951,307,280,297,300,684,7212,14496,-241,200,-48
13563.395999999999,307,280,297,300,684,7212,14496,-241,200,-48
13573.682,306,280,297,300,684,7212,14496,-241,200,-48
13581.727,305,281,298,300,684,7212,14496,-241,200,-48
13584.982,305,282,299,301,684,7212,14496,-241,200,-48
13584.982,304,282,298,301,688,7044,14464,-237,195,-43
13595.905,305,282,298,301,688,7044,14464,-237,195,-43
13600.366,304,282,299,301,688,7044,14464,-237,195,-43
13607.166,304,282,299,302,688,7044,14464,-237,195,-43
13607.166,304,284,299,302,688,7044,14464,-237,195,-43
13617.943000000001,304,283,299,302,688,7044,14464,-237,195,-43
13626.112,304,285,300,303,688,7044,14464,-237,195,-43
13629.482,304,285,300,303,688,7148,14440,-107,128,-101
13629.482,304,285,299,303,688,7148,14440,-107,128,-101
13640.445,304,285,299,303,688,7148,14440,-107,128,-101
13645.363,303,285,299,303,688,7148,14440,-107,128,-101
13651.925000000001,303,285,300,303,688,7148,14440,-107,128,-101
13657.501,303,286,300,303,688,7148,14440,-107,128,-101
13661.932999999999,303,286,301,304,688,7148,14440,-107,128,-101
13665.427,303,286,300,304,652,7116,14620,-669,488,-185
13674.199,303,287,301,303,652,7116,14620,-669,488,-185
13683.958999999999,303,286,301,304,652,7116,14620,-669,488,-185
13685.62,303,286,301,304,652,7116,14620,-669,488,-185
13689.975,304,287,301,304,652,7116,14620,-669,488,-185
13695.219,303,286,300,304,652,7116,14620,-669,488,-185
13703.154,302,286,301,305,652,7116,14620,-669,488,-185
13707.261,302,287,300,304,564,7072,14404,-1271,1036,-314
13717.549,302,287,300,304,564,7072,14404,-1271,1036,-314
13718.502,302,287,300,305,564,7072,14404,-1271,1036,-314
13729.376,302,287,300,305,564,7072,14404,-1271,1036,-314
13737.42,302,287,300,304,564,7072,14404,-1271,1036,-314
13740.876999999999,302,287,300,305,564,7072,14404,-1271,1036,-314
