Time (ms),EMG1,EMG2,EMG3,EMG4,AccX,AccY,AccZ,GyroX,GyroY,GyroZ
1543.742,0,0,0,0,0,0,0,0,0,0
1543.742,0,0,0,0,0,0,0,0,0,0
1543.742,290,307,295,311,0,0,0,0,0,0
1558.281,290,308,295,312,0,0,0,0,0,0
1558.281,290,307,295,312,0,0,0,0,0,0
1566.292,290,307,295,312,0,0,0,0,0,0
1566.292,290,308,295,313,0,0,0,0,0,0
1574.4270000000001,290,307,295,312,0,0,0,0,0,0
1574.4270000000001,291,308,295,312,0,0,0,0,0,0
1574.4270000000001,291,308,295,311,0,0,0,0,0,0
1582.206,291,308,295,311,0,0,0,0,0,0
1582.206,292,308,295,312,0,0,0,0,0,0
1588.6290000000001,291,308,295,312,0,0,0,0,0,0
1592.6599999999999,291,308,294,312,0,0,0,0,0,0
1592.6599999999999,291,309,294,311,580,9032,13248,35,-31,-39
1604.054,292,309,295,311,580,9032,13248,35,-31,-39
1604.054,292,308,295,311,580,9032,13248,35,-31,-39
1615.263,292,308,295,311,580,9032,13248,35,-31,-39
1615.263,293,309,294,311,580,9032,13248,35,-31,-39
1626.289,292,308,294,311,580,9032,13248,35,-31,-39
1626.289,292,309,295,312,580,9032,13248,35,-31,-39
1637.3329999999999,291,309,294,312,580,9032,13248,35,-31,-39
1637.3329999999999,291,309,294,311,648,9108,13336,-71,20,-32
1648.858,290,309,294,311,648,9108,13336,-71,20,-32
1653.4260000000002,291,309,295,311,648,9108,13336,-71,20,-32
1661.462,290,309,295,311,648,9108,13336,-71,20,-32
1665.5439999999999,290,309,295,311,648,9108,13336,-71,20,-32
1670.0710000000001,290,309,295,312,648,9108,13336,-71,20,-32
1675.484,292,309,295,311,648,9108,13336,-71,20,-32
1681.1750000000002,292,309,295,311,572,9100,13480,-181,55,0
1683.2279999999998,293,309,296,311,572,9100,13480,-181,55,0
1693.251,294,309,296,312,572,9100,13480,-181,55,0
1693.251,294,309,295,311,572,9100,13480,-181,55,0
1702.251,294,309,295,310,572,9100,13480,-181,55,0
1704.5539999999999,294,308,296,311,572,9100,13480,-181,55,0
1707.933,293,308,296,311,572,9100,13480,-181,55,0
1715.556,293,308,296,311,572,9100,13480,-181,55,0
1715.556,293,308,296,310,596,9024,13264,-145,0,-19
1730.632,294,308,296,310,596,9024,13264,-145,0,-19
1732.509,294,308,296,310,596,9024,13264,-145,0,-19
1737.112,296,308,295,310,596,9024,13264,-145,0,-19
1737.112,299,308,295,310,596,9024,13264,-145,0,-19
1749.264,302,308,295,310,596,9024,13264,-145,0,-19
1749.264,304,308,295,310,596,9024,13264,-145,0,-19
1759.917,308,307,295,310,624,9036,13392,30,13,-4
1767.971,310,308,294,311,624,9036,13392,30,13,-4
1771.241,311,307,295,312,624,9036,13392,30,13,-4
1771.241,313,307,295,311,624,9036,13392,30,13,-4
1782.322,314,307,294,311,624,9036,13392,30,13,-4
1786.527,313,307,295,312,624,9036,13392,30,13,-4
1786.527,315,306,295,312,624,9036,13392,30,13,-4
1793.1999999999998,315,306,295,312,624,9036,13392,30,13,-4
1804.125,316,306,295,312,652,9172,13368,-72,2,-24
1805.806,315,305,295,312,652,9172,13368,-72,2,-24
1805.806,316,305,295,313,652,9172,13368,-72,2,-24
1816.1309999999999,317,305,296,312,652,9172,13368,-72,2,-24
1824.1750000000002,319,305,295,312,652,9172,13368,-72,2,-24
1826.507,320,305,295,312,652,9172,13368,-72,2,-24
1831.751,321,304,295,313,652,9172,13368,-72,2,-24
1841.452,320,304,295,312,652,9172,13368,-72,2,-24
1845.0310000000002,319,304,295,311,584,8932,13224,-130,-71,12
1848.148,316,303,296,312,584,8932,13224,-130,-71,12
1850.953,314,303,295,312,584,8932,13224,-130,-71,12
1860.606,312,304,295,310,584,8932,13224,-130,-71,12
1860.606,310,303,295,310,584,8932,13224,-130,-71,12
1871.034,308,302,295,310,584,8932,13224,-130,-71,12
1878.279,307,302,295,310,584,8932,13224,-130,-71,12
1882.595,306,302,295,310,648,9048,13268,47,-103,7
1889.949,304,303,296,310,648,9048,13268,47,-103,7
1894.025,304,303,296,310,648,9048,13268,47,-103,7
1898.13,303,303,296,310,648,9048,13268,47,-103,7
1902.4859999999999,302,303,295,309,648,9048,13268,47,-103,7
1904.472,301,304,296,310,648,9048,13268,47,-103,7
1914.835,301,304,296,310,648,9048,13268,47,-103,7
1915.578,301,304,296,309,648,9048,13268,47,-103,7
1926.439,300,305,296,309,604,9048,13372,57,-91,35
1929.678,299,304,296,309,604,9048,13372,57,-91,35
1929.678,299,305,297,309,604,9048,13372,57,-91,35
1938.386,299,305,296,308,604,9048,13372,57,-91,35
1947.5430000000001,298,306,296,307,604,9048,13372,57,-91,35
1948.9950000000001,298,306,297,308,604,9048,13372,57,-91,35
1948.9950000000001,298,306,297,308,604,9048,13372,57,-91,35
1959.164,298,307,296,307,620,9108,13312,8,-60,-32
1961.733,297,307,296,307,620,9108,13312,8,-60,-32
1970.446,298,306,297,307,620,9108,13312,8,-60,-32
1970.446,297,307,296,307,620,9108,13312,8,-60,-32
1982.4409999999998,296,307,296,307,620,9108,13312,8,-60,-32
1982.4409999999998,296,307,296,307,620,9108,13312,8,-60,-32
1993.258,296,308,297,307,620,9108,13312,8,-60,-32
1993.258,296,308,296,307,620,9108,13312,8,-60,-32
2003.689,297,308,296,307,632,9052,13284,-178,-75,28
2006.6760000000002,298,308,297,308,632,9052,13284,-178,-75,28
2016.4789999999998,297,307,297,307,632,9052,13284,-178,-75,28
2016.4789999999998,297,307,297,307,632,9052,13284,-178,-75,28
2025.8799999999999,298,307,297,307,632,9052,13284,-178,-75,28
2026.6000000000001,299,307,297,308,632,9052,13284,-178,-75,28
2037.573,300,307,297,308,632,9052,13284,-178,-75,28
2037.573,301,308,297,308,628,9084,13292,89,-61,-17
2049.373,303,307,297,308,628,9084,13292,89,-61,-17
2051.1879999999996,304,308,297,309,628,9084,13292,89,-61,-17
2060.067,306,308,297,309,628,9084,13292,89,-61,-17
2061.34,308,309,297,309,628,9084,13292,89,-61,-17
2069.398,311,309,297,310,628,9084,13292,89,-61,-17
2071.029,314,309,297,310,628,9084,13292,89,-61,-17
2077.1989999999996,317,310,297,310,628,9084,13292,89,-61,-17
2081.9429999999998,320,310,297,310,632,9072,13288,-38,-31,-45
2088.471,323,310,297,311,632,9072,13288,-38,-31,-45
2093.241,324,309,296,312,632,9072,13288,-38,-31,-45
2096.581,327,309,296,311,632,9072,13288,-38,-31,-45
2103.781,328,309,296,312,632,9072,13288,-38,-31,-45
2115.996,329,309,296,313,632,9072,13288,-38,-31,-45
2115.996,330,309,296,313,632,9072,13288,-38,-31,-45
2121.6710000000003,330,309,296,313,684,9056,13292,-57,37,-59
2126.4599999999996,330,308,296,313,684,9056,13292,-57,37,-59
2136.7110000000002,330,308,296,313,684,9056,13292,-57,37,-59
2138.066,329,308,296,313,684,9056,13292,-57,37,-59
2138.066,328,307,296,313,684,9056,13292,-57,37,-59
2148.744,326,308,297,313,684,9056,13292,-57,37,-59
2155.065,325,307,297,312,684,9056,13292,-57,37,-59
2159.652,324,307,296,312,660,9132,13316,-76,-9,2
2162.21,322,307,296,313,660,9132,13316,-76,-9,2
2171.004,321,307,296,313,660,9132,13316,-76,-9,2
2171.004,321,307,296,313,660,9132,13316,-76,-9,2
2178.645,319,306,296,312,660,9132,13316,-76,-9,2
2182.777,318,306,296,312,660,9132,13316,-76,-9,2
2193.029,318,305,297,312,660,9132,13316,-76,-9,2
2193.029,316,306,296,312,660,9132,13316,-76,-9,2
2199.633,315,307,297,311,624,9112,13264,46,-2,-22
2203.699,314,306,297,312,624,9112,13264,46,-2,-22
2212.012,313,306,297,311,624,9112,13264,46,-2,-22
2215.856,313,306,297,310,624,9112,13264,46,-2,-22
2225.837,312,305,297,310,624,9112,13264,46,-2,-22
2225.837,311,305,297,310,624,9112,13264,46,-2,-22
2232.872,310,305,297,310,624,9112,13264,46,-2,-22
2237.563,309,305,297,309,624,9112,13264,46,-2,-22
2240.6609999999996,309,304,297,309,676,9008,13296,-77,20,-58
2248.7650000000003,307,304,297,309,676,9008,13296,-77,20,-58
2248.7650000000003,307,304,297,309,676,9008,13296,-77,20,-58
2260.9370000000004,307,304,297,308,676,9008,13296,-77,20,-58
2265.342,306,303,297,308,676,9008,13296,-77,20,-58
2270.3269999999998,306,304,297,308,676,9008,13296,-77,20,-58
2272.95,305,303,298,308,676,9008,13296,-77,20,-58
2282.1440000000002,305,304,298,307,676,9164,13388,-72,31,-51
2282.1440000000002,305,304,298,308,676,9164,13388,-72,31,-51
2293.909,304,304,298,307,676,9164,13388,-72,31,-51
2293.909,303,304,298,307,676,9164,13388,-72,31,-51
2304.231,304,304,298,306,676,9164,13388,-72,31,-51
2312.304,302,303,299,306,676,9164,13388,-72,31,-51
2315.471,302,304,299,306,676,9164,13388,-72,31,-51
2317.783,300,303,298,306,676,9164,13388,-72,31,-51
2325.7889999999998,299,304,299,306,632,9036,13300,-112,-28,3
2326.413,298,304,299,306,632,9036,13300,-112,-28,3
2337.1949999999997,297,304,299,306,632,9036,13300,-112,-28,3
2337.824,295,304,298,305,632,9036,13300,-112,-28,3
2349.078,296,304,299,305,632,9036,13300,-112,-28,3
2350.801,295,304,299,306,632,9036,13300,-112,-28,3
2350.801,294,304,299,305,632,9036,13300,-112,-28,3
2361.0609999999997,294,304,300,305,632,9112,13328,-29,1,-12
2367.476,294,304,300,305,632,9112,13328,-29,1,-12
2371.326,294,304,300,305,632,9112,13328,-29,1,-12
2376.309,294,304,300,304,632,9112,13328,-29,1,-12
2381.5550000000003,294,304,300,304,632,9112,13328,-29,1,-12
2387.524,294,304,299,304,632,9112,13328,-29,1,-12
2392.591,294,304,300,304,632,9112,13328,-29,1,-12
2395.719,294,304,300,303,632,9112,13328,-29,1,-12
2404.03,294,304,299,303,728,9056,13248,-9,-45,-8
2404.03,293,304,300,304,728,9056,13248,-9,-45,-8
2414.797,293,304,300,303,728,9056,13248,-9,-45,-8
2415.413,293,304,300,302,728,9056,13248,-9,-45,-8
2426.664,294,304,299,302,728,9056,13248,-9,-45,-8
2426.664,295,304,299,303,728,9056,13248,-9,-45,-8
2437.6549999999997,298,304,300,303,728,9056,13248,-9,-45,-8
2440.228,298,304,300,302,696,9196,13272,-80,-65,33
2448.807,300,304,300,303,696,9196,13272,-80,-65,33
2450.0950000000003,300,304,300,304,696,9196,13272,-80,-65,33
2459.55,301,304,300,303,696,9196,13272,-80,-65,33
2459.55,301,305,300,303,696,9196,13272,-80,-65,33
2471.002,301,305,300,304,696,9196,13272,-80,-65,33
2471.002,301,305,301,304,696,9196,13272,-80,-65,33
2480.4460000000004,302,304,300,304,696,9196,13272,-80,-65,33
2482.0730000000003,302,304,300,304,636,9012,13280,-50,-55,-39
2486.5020000000004,304,305,301,304,636,9012,13280,-50,-55,-39
2493.212,305,305,301,304,636,9012,13280,-50,-55,-39
2504.74,306,305,301,304,636,9012,13280,-50,-55,-39
2504.74,309,305,301,304,636,9012,13280,-50,-55,-39
2510.799,311,305,301,305,636,9012,13280,-50,-55,-39
2515.5150000000003,313,305,301,305,636,9012,13280,-50,-55,-39
2522.747,313,304,300,304,720,9076,13352,-65,34,-22
2526.5620000000004,314,304,300,304,720,9076,13352,-65,34,-22
2531.335,313,304,300,305,720,9076,13352,-65,34,-22
2537.132,313,304,300,304,720,9076,13352,-65,34,-22
2543.505,311,304,300,304,720,9076,13352,-65,34,-22
2548.113,310,304,301,305,720,9076,13352,-65,34,-22
2551.4519999999998,308,304,301,305,720,9076,13352,-65,34,-22
2560.137,308,304,300,304,720,9076,13352,-65,34,-22
2560.137,307,304,300,304,644,9188,13356,-73,35,-31
2571.4959999999996,306,304,301,305,644,9188,13356,-73,35,-31
2576.9500000000003,306,304,300,304,644,9188,13356,-73,35,-31
2581.318,305,304,301,304,644,9188,13356,-73,35,-31
2581.318,304,304,301,304,644,9188,13356,-73,35,-31
2593.355,303,305,301,305,644,9188,13356,-73,35,-31
2593.355,301,305,300,304,644,9188,13356,-73,35,-31
2604.612,301,304,300,304,620,9088,13288,-62,-39,-4
2609.4970000000003,299,304,300,305,620,9088,13288,-62,-39,-4
2614.806,298,305,301,304,620,9088,13288,-62,-39,-4
2614.806,296,304,300,304,620,9088,13288,-62,-39,-4
2626.426,296,305,299,304,620,9088,13288,-62,-39,-4
2626.426,296,305,300,304,620,9088,13288,-62,-39,-4
2637.664,298,304,300,304,620,9088,13288,-62,-39,-4
2637.664,299,305,300,303,684,9112,13344,-24,67,-36
2648.6299999999997,301,305,300,304,684,9112,13344,-24,67,-36
2648.6299999999997,303,305,300,304,684,9112,13344,-24,67,-36
2659.786,304,305,299,304,684,9112,13344,-24,67,-36
2659.786,304,306,299,304,684,9112,13344,-24,67,-36
2667.045,305,306,299,305,684,9112,13344,-24,67,-36
2670.8650000000002,305,306,298,305,684,9112,13344,-24,67,-36
2681.619,306,306,299,304,684,9112,13344,-24,67,-36
2683.2760000000003,307,306,299,304,672,9088,13240,-71,-1,2
2692.944,308,306,299,305,672,9088,13240,-71,-1,2
2693.7920000000004,309,306,298,305,672,9088,13240,-71,-1,2
2700.026,310,306,298,304,672,9088,13240,-71,-1,2
2704.6670000000004,311,306,299,304,672,9088,13240,-71,-1,2
2704.6670000000004,313,306,299,305,672,9088,13240,-71,-1,2
2715.478,313,307,299,306,672,9088,13240,-71,-1,2
2715.478,314,306,299,305,672,9088,13240,-71,-1,2
2726.28,314,306,299,305,664,9040,13312,-35,72,4
2727.0310000000004,313,306,299,306,664,9040,13312,-35,72,4
2737.564,313,306,299,305,664,9040,13312,-35,72,4
2737.564,311,306,299,305,664,9040,13312,-35,72,4
2746.016,309,305,298,305,664,9040,13312,-35,72,4
2748.716,308,305,299,306,664,9040,13312,-35,72,4
2756.641,307,305,299,305,664,9040,13312,-35,72,4
2760.569,306,305,298,305,640,9088,13320,-62,94,4
2765.2290000000003,305,305,299,306,640,9088,13320,-62,94,4
2770.682,305,305,299,306,640,9088,13320,-62,94,4
2776.812,305,305,299,305,640,9088,13320,-62,94,4
2781.9440000000004,305,306,299,305,640,9088,13320,-62,94,4
2784.788,304,305,299,305,640,9088,13320,-62,94,4
2794.66,303,305,299,306,640,9088,13320,-62,94,4
2794.66,301,305,299,305,640,9088,13320,-62,94,4
2803.976,299,306,299,305,656,9108,13280,-37,16,-12
2804.733,298,305,299,306,656,9108,13280,-37,16,-12
2815.0460000000003,296,306,299,306,656,9108,13280,-37,16,-12
2815.0460000000003,294,305,298,305,656,9108,13280,-37,16,-12
2815.0460000000003,293,305,299,305,656,9108,13280,-37,16,-12
2826.644,292,305,299,306,656,9108,13280,-37,16,-12
2837.0,289,305,299,306,656,9108,13280,-37,16,-12
2837.746,288,305,298,305,656,9108,13280,-37,16,-12
2848.403,287,305,299,306,700,9108,13272,-46,39,-23
2850.5009999999997,284,305,299,305,700,9108,13272,-46,39,-23
2850.5009999999997,283,305,299,305,700,9108,13272,-46,39,-23
2865.348,282,304,299,304,700,9108,13272,-46,39,-23
2867.082,281,304,299,305,700,9108,13272,-46,39,-23
2871.1389999999997,280,304,299,305,700,9108,13272,-46,39,-23
2881.746,279,304,298,305,700,9108,13272,-46,39,-23
2882.982,278,304,298,304,696,9128,13260,-97,6,-38
2882.982,278,304,299,305,696,9128,13260,-97,6,-38
2893.493,279,304,299,305,696,9128,13260,-97,6,-38
2901.545,279,304,298,304,696,9128,13260,-97,6,-38
2904.364,281,304,298,304,696,9128,13260,-97,6,-38
2907.3289999999997,281,304,299,305,696,9128,13260,-97,6,-38
2915.7039999999997,284,304,298,305,696,9128,13260,-97,6,-38
2919.6209999999996,285,305,299,304,696,9128,13260,-97,6,-38
2926.1659999999997,286,305,298,305,700,9184,13312,-7,16,-21
2926.1659999999997,288,305,298,305,700,9184,13312,-7,16,-21
2937.619,289,305,298,304,700,9184,13312,-7,16,-21
2940.787,291,305,298,304,700,9184,13312,-7,16,-21
2940.787,294,305,298,304,700,9184,13312,-7,16,-21
2949.443,295,305,298,304,700,9184,13312,-7,16,-21
2959.244,299,305,298,304,700,9184,13312,-7,16,-21
2960.096,300,305,298,303,600,9084,13292,-104,21,25
2970.569,303,305,298,304,600,9084,13292,-104,21,25
2973.335,304,305,298,304,600,9084,13292,-104,21,25
2973.335,306,305,298,303,600,9084,13292,-104,21,25
2983.469,307,305,298,303,600,9084,13292,-104,21,25
2991.99,309,305,298,304,600,9084,13292,-104,21,25
2993.4919999999997,310,305,298,304,600,9084,13292,-104,21,25
2998.2039999999997,310,305,298,303,600,9084,13292,-104,21,25
3003.796,310,305,298,303,700,9180,13300,-19,-13,-8
3010.198,310,305,298,304,700,9180,13300,-19,-13,-8
3014.7819999999997,310,305,298,304,700,9180,13300,-19,-13,-8
3018.223,310,305,298,303,700,9180,13300,-19,-13,-8
3026.2039999999997,310,305,299,303,700,9180,13300,-19,-13,-8
3026.2039999999997,310,305,299,304,700,9180,13300,-19,-13,-8
3037.721,309,304,299,303,700,9180,13300,-19,-13,-8
3044.12,308,305,298,303,700,9156,13308,-59,13,-13
3048.796,307,304,298,304,700,9156,13308,-59,13,-13
3051.1240000000003,307,304,298,304,700,9156,13308,-59,13,-13
3059.58,306,305,298,304,700,9156,13308,-59,13,-13
3059.58,305,304,298,304,700,9156,13308,-59,13,-13
3071.521,304,304,299,304,700,9156,13308,-59,13,-13
3071.521,302,304,298,304,700,9156,13308,-59,13,-13
3082.489,301,304,298,304,700,9156,13308,-59,13,-13
3082.489,299,304,298,304,620,9108,13360,-80,29,-10
3092.848,298,304,299,304,620,9108,13360,-80,29,-10
3092.848,297,304,299,304,620,9108,13360,-80,29,-10
3104.194,295,304,299,304,620,9108,13360,-80,29,-10
3104.755,294,304,299,304,620,9108,13360,-80,29,-10
3115.409,294,304,299,304,620,9108,13360,-80,29,-10
3115.409,295,304,299,304,620,9108,13360,-80,29,-10
3126.5860000000002,294,304,300,304,668,9184,13280,-69,-2,-8
3129.569,294,303,300,304,668,9184,13280,-69,-2,-8
3129.569,294,304,300,304,668,9184,13280,-69,-2,-8
3139.0319999999997,294,304,300,303,668,9184,13280,-69,-2,-8
3147.596,294,304,300,304,668,9184,13280,-69,-2,-8
3149.152,295,304,301,304,668,9184,13280,-69,-2,-8
3153.7929999999997,296,304,300,304,668,9184,13280,-69,-2,-8
3159.069,296,304,300,304,668,9184,13280,-69,-2,-8
3166.451,297,304,301,303,624,9136,13256,-81,25,-54
3170.964,296,304,301,305,624,9136,13256,-81,25,-54
3181.356,297,304,301,304,624,9136,13256,-81,25,-54
3182.572,297,305,300,304,624,9136,13256,-81,25,-54
3182.572,298,305,300,304,624,9136,13256,-81,25,-54
3193.316,298,305,301,305,624,9136,13256,-81,25,-54
3199.37,298,305,300,304,624,9136,13256,-81,25,-54
3203.671,301,305,300,304,668,9184,13340,-47,26,-26
3206.649,300,305,300,305,668,9184,13340,-47,26,-26
3215.7200000000003,301,305,301,305,668,9184,13340,-47,26,-26
3218.701,301,305,300,304,668,9184,13340,-47,26,-26
3226.086,301,305,300,304,668,9184,13340,-47,26,-26
3226.086,302,305,301,305,668,9184,13340,-47,26,-26
3237.612,302,305,300,304,668,9184,13340,-47,26,-26
3241.712,302,305,300,304,668,9184,13340,-47,26,-26
3249.854,302,305,301,304,732,9204,13300,-77,56,-33
3254.245,302,304,300,304,732,9204,13300,-77,56,-33
3258.895,302,304,300,304,732,9204,13300,-77,56,-33
3263.549,302,305,300,303,732,9204,13300,-77,56,-33
3270.31,301,305,300,304,732,9204,13300,-77,56,-33
3272.096,301,305,301,304,732,9204,13300,-77,56,-33
3282.607,300,305,301,304,732,9204,13300,-77,56,-33
3282.607,300,305,301,304,648,9056,13316,-46,12,10
3289.235,299,305,301,304,648,9056,13316,-46,12,10
3293.234,298,305,301,304,648,9056,13316,-46,12,10
3297.43,298,305,301,303,648,9056,13316,-46,12,10
3304.458,297,306,300,304,648,9056,13316,-46,12,10
3304.458,297,305,300,304,648,9056,13316,-46,12,10
3315.537,298,305,300,304,648,9056,13316,-46,12,10
3322.6110000000003,298,306,300,304,648,9056,13316,-46,12,10
3326.552,298,306,300,304,656,9132,13284,-90,9,-27
3329.872,300,306,301,304,656,9132,13284,-90,9,-27
3337.6389999999997,299,306,300,304,656,9132,13284,-90,9,-27
3341.543,300,305,300,304,656,9132,13284,-90,9,-27
3348.446,300,306,300,304,656,9132,13284,-90,9,-27
3348.446,301,306,301,305,656,9132,13284,-90,9,-27
3360.086,302,306,300,305,656,9132,13284,-90,9,-27
3360.086,303,306,300,304,680,9108,13272,-78,-5,-37
3370.52,305,306,300,306,680,9108,13272,-78,-5,-37
3370.52,307,306,300,306,680,9108,13272,-78,-5,-37
3381.3559999999998,309,306,300,306,680,9108,13272,-78,-5,-37
3385.528,310,305,300,306,680,9108,13272,-78,-5,-37
3393.157,311,305,300,306,680,9108,13272,-78,-5,-37
3393.157,312,305,300,306,680,9108,13272,-78,-5,-37
3400.263,313,305,299,305,680,9108,13272,-78,-5,-37
3404.415,313,305,299,306,604,9112,13316,-79,-8,-30
3411.988,313,304,300,306,604,9112,13316,-79,-8,-30
3416.153,313,304,299,305,604,9112,13316,-79,-8,-30
3426.203,312,304,299,305,604,9112,13316,-79,-8,-30
3427.07,309,304,299,305,604,9112,13316,-79,-8,-30
3432.954,308,304,300,305,604,9112,13316,-79,-8,-30
3437.658,306,304,299,304,604,9112,13316,-79,-8,-30
3444.133,305,304,299,304,628,9116,13236,-26,-43,-17
3448.964,303,304,300,304,628,9116,13236,-26,-43,-17
3459.132,303,304,299,303,628,9116,13236,-26,-43,-17
3459.731,302,304,299,303,628,9116,13236,-26,-43,-17
3465.115,301,305,299,303,628,9116,13236,-26,-43,-17
3470.4570000000003,302,305,299,303,628,9116,13236,-26,-43,-17
3476.8379999999997,301,305,299,303,628,9116,13236,-26,-43,-17
3482.4790000000003,302,305,300,302,628,9116,13236,-26,-43,-17
3485.259,304,306,300,303,700,9136,13292,-51,-56,-17
3493.433,307,306,300,303,700,9136,13292,-51,-56,-17
3493.433,310,306,300,303,700,9136,13292,-51,-56,-17
3504.3669999999997,314,306,299,304,700,9136,13292,-51,-56,-17
3511.5029999999997,318,306,299,305,700,9136,13292,-51,-56,-17
3515.1180000000004,323,305,300,305,700,9136,13292,-51,-56,-17
3518.3379999999997,327,306,299,304,700,9136,13292,-51,-56,-17
3527.219,329,306,299,305,700,9240,13380,-69,-11,-49
3527.219,333,306,299,306,700,9240,13380,-69,-11,-49
3537.553,335,306,299,306,700,9240,13380,-69,-11,-49
3545.759,337,306,299,306,700,9240,13380,-69,-11,-49
3548.74,338,305,300,307,700,9240,13380,-69,-11,-49
3556.787,338,305,300,308,700,9240,13380,-69,-11,-49
3559.114,338,305,299,307,700,9240,13380,-69,-11,-49
3563.056,338,305,299,308,692,9164,13292,-128,-8,-31
3571.13,336,305,299,309,692,9164,13292,-128,-8,-31
3571.13,334,304,299,308,692,9164,13292,-128,-8,-31
3582.719,333,304,299,307,692,9164,13292,-128,-8,-31
3588.578,331,303,299,308,692,9164,13292,-128,-8,-31
3592.913,329,303,299,308,692,9164,13292,-128,-8,-31
3592.913,326,303,298,307,692,9164,13292,-128,-8,-31
3604.581,324,303,298,307,704,9172,13216,-21,20,-30
3604.581,322,303,298,307,704,9172,13216,-21,20,-30
3615.519,320,303,298,306,704,9172,13216,-21,20,-30
3623.582,319,303,299,305,704,9172,13216,-21,20,-30
3626.0240000000003,318,303,298,305,704,9172,13216,-21,20,-30
3626.0240000000003,318,302,299,306,704,9172,13216,-21,20,-30
3637.2149999999997,317,303,299,305,704,9172,13216,-21,20,-30
3637.2149999999997,317,303,298,305,704,9172,13216,-21,20,-30
3650.807,316,303,299,305,656,9100,13288,-106,13,-41
3650.807,315,303,298,305,656,9100,13288,-106,13,-41
3659.974,315,304,298,305,656,9100,13288,-106,13,-41
3659.974,314,304,298,305,656,9100,13288,-106,13,-41
3671.055,314,303,299,305,656,9100,13288,-106,13,-41
3675.448,315,304,299,306,656,9100,13288,-106,13,-41
3682.646,317,304,299,305,656,9100,13288,-106,13,-41
3682.646,317,304,299,305,680,9092,13316,-37,38,-21
3693.082,318,305,299,306,680,9092,13316,-37,38,-21
3693.082,319,306,299,305,680,9092,13316,-37,38,-21
3704.5080000000003,320,306,299,305,680,9092,13316,-37,38,-21
3704.5080000000003,320,306,299,306,680,9092,13316,-37,38,-21
3712.024,320,306,299,307,680,9092,13316,-37,38,-21
3715.78,321,306,299,307,680,9092,13316,-37,38,-21
3723.321,321,306,298,307,680,9092,13316,-37,38,-21
3727.074,320,306,298,308,672,9144,13308,-90,11,-17
3737.408,319,306,299,308,672,9144,13308,-90,11,-17
3739.394,318,305,298,308,672,9144,13308,-90,11,-17
3739.394,318,305,298,307,672,9144,13308,-90,11,-17
3748.987,317,305,299,308,672,9144,13308,-90,11,-17
3755.9,316,305,298,308,672,9144,13308,-90,11,-17
3759.987,317,304,298,307,672,9144,13308,-90,11,-17
3764.8990000000003,315,304,298,307,748,9056,13296,-19,21,-49
3772.0769999999998,314,303,298,308,748,9056,13296,-19,21,-49
3772.0769999999998,313,303,298,307,748,9056,13296,-19,21,-49
3782.811,313,303,298,307,748,9056,13296,-19,21,-49
3788.641,312,303,299,307,748,9056,13296,-19,21,-49
3793.218,312,303,298,307,748,9056,13296,-19,21,-49
3803.543,311,302,299,306,748,9056,13296,-19,21,-49
3804.74,311,302,298,306,640,9120,13320,-131,22,4
3804.74,310,302,299,307,640,9120,13320,-131,22,4
3815.388,309,302,299,306,640,9120,13320,-131,22,4
3823.718,307,302,298,306,640,9120,13320,-131,22,4
3826.758,305,302,299,306,640,9120,13320,-131,22,4
3826.758,304,302,299,306,640,9120,13320,-131,22,4
3838.028,302,302,299,306,640,9120,13320,-131,22,4
3841.628,301,302,298,305,640,9120,13320,-131,22,4
3849.1490000000003,298,302,299,306,660,9104,13324,-35,48,4
3850.1310000000003,296,302,300,306,660,9104,13324,-35,48,4
3859.3639999999996,295,302,299,305,660,9104,13324,-35,48,4
3861.9539999999997,293,303,299,305,660,9104,13324,-35,48,4
3861.9539999999997,291,302,299,306,660,9104,13324,-35,48,4
3870.254,290,303,299,306,660,9104,13324,-35,48,4
3874.6,289,303,299,306,660,9104,13324,-35,48,4
3882.946,289,303,299,306,660,9104,13324,-35,48,4
3888.087,289,302,300,306,632,9064,13228,-59,-34,-22
3893.124,290,302,300,307,632,9064,13228,-59,-34,-22
3898.7980000000002,291,302,301,306,632,9064,13228,-59,-34,-22
3903.6620000000003,292,303,300,306,632,9064,13228,-59,-34,-22
3907.102,293,302,301,307,632,9064,13228,-59,-34,-22
3915.706,295,302,300,306,632,9064,13228,-59,-34,-22
3915.706,295,302,300,306,632,9064,13228,-59,-34,-22
3926.884,296,302,301,306,700,9208,13348,-21,0,-26
3932.5969999999998,298,301,300,307,700,9208,13348,-21,0,-26
3936.874,298,302,301,306,700,9208,13348,-21,0,-26
3936.874,299,302,300,305,700,9208,13348,-21,0,-26
3948.777,298,302,301,306,700,9208,13348,-21,0,-26
3952.435,298,302,301,306,700,9208,13348,-21,0,-26
3952.435,298,303,300,306,700,9208,13348,-21,0,-26
3961.1130000000003,298,302,300,305,700,9208,13348,-21,0,-26
3971.037,297,302,300,306,688,9240,13436,-112,3,-43
3971.037,296,302,300,306,688,9240,13436,-112,3,-43
3983.0879999999997,298,303,299,306,688,9240,13436,-112,3,-43
3983.0879999999997,297,303,299,306,688,9240,13436,-112,3,-43
3989.754,297,303,300,306,688,9240,13436,-112,3,-43
3993.439,298,304,300,307,688,9240,13436,-112,3,-43
3997.6859999999997,298,305,299,306,688,9240,13436,-112,3,-43
4004.517,298,305,299,306,652,9064,13244,-49,15,-37
4010.622,299,306,300,307,652,9064,13244,-49,15,-37
4015.494,301,306,299,306,652,9064,13244,-49,15,-37
4022.232,301,306,299,306,652,9064,13244,-49,15,-37
4026.4959999999996,300,307,299,307,652,9064,13244,-49,15,-37
4029.7850000000003,300,307,299,307,652,9064,13244,-49,15,-37
4037.7200000000003,300,308,300,307,652,9064,13244,-49,15,-37
4037.7200000000003,300,308,299,307,652,9064,13244,-49,15,-37
4048.8660000000004,299,308,299,308,668,9132,13344,-78,13,-20
4055.9159999999997,300,307,299,308,668,9132,13344,-78,13,-20
4059.744,301,307,299,307,668,9132,13344,-78,13,-20
4063.14,300,307,300,308,668,9132,13344,-78,13,-20
4070.944,301,306,300,308,668,9132,13344,-78,13,-20
4070.944,301,307,300,308,668,9132,13344,-78,13,-20
4083.38,301,307,299,308,668,9132,13344,-78,13,-20
4088.729,302,306,300,308,676,9120,13312,-42,7,-12
4092.999,302,306,300,308,676,9120,13312,-42,7,-12
4092.999,302,306,300,307,676,9120,13312,-42,7,-12
4104.3099999999995,304,305,300,307,676,9120,13312,-42,7,-12
4108.226000000001,304,305,300,307,676,9120,13312,-42,7,-12
4108.226000000001,305,304,301,308,676,9120,13312,-42,7,-12
4115.323,305,304,301,307,676,9120,13312,-42,7,-12
4126.173,306,304,300,307,676,9120,13312,-42,7,-12
4128.648,306,304,301,307,676,9116,13316,-70,-16,-32
4128.648,307,303,301,308,676,9116,13316,-70,-16,-32
4138.651000000001,307,303,300,307,676,9116,13316,-70,-16,-32
4145.037,307,302,301,306,676,9116,13316,-70,-16,-32
4149.248,308,301,301,307,676,9116,13316,-70,-16,-32
4159.775,309,301,301,306,676,9116,13316,-70,-16,-32
4159.775,309,301,301,305,676,9116,13316,-70,-16,-32
4170.307,309,301,301,305,692,9116,13296,-58,-7,-42
4173.027,310,300,301,306,692,9116,13296,-58,-7,-42
4173.027,311,300,301,305,692,9116,13296,-58,-7,-42
4183.208,312,300,301,305,692,9116,13296,-58,-7,-42
4192.797,313,300,301,305,692,9116,13296,-58,-7,-42
4193.451999999999,312,300,301,305,692,9116,13296,-58,-7,-42
4198.337,312,300,300,304,692,9116,13296,-58,-7,-42
4203.656,312,301,301,304,676,9096,13300,-130,27,-21
4211.063,312,301,302,305,676,9096,13300,-130,27,-21
4215.363,310,301,301,305,676,9096,13300,-130,27,-21
4225.8589999999995,310,302,301,305,676,9096,13300,-130,27,-21
4226.752,310,302,301,305,676,9096,13300,-130,27,-21
4226.752,310,302,302,306,676,9096,13300,-130,27,-21
4237.732,310,302,301,305,676,9096,13300,-130,27,-21
4244.388,310,302,301,305,676,9096,13300,-130,27,-21
4248.836,309,302,302,305,688,9140,13352,-30,30,-20
4256.916,310,302,301,305,688,9140,13352,-30,30,-20
4259.6759999999995,310,302,301,304,688,9140,13352,-30,30,-20
4259.6759999999995,310,303,302,305,688,9140,13352,-30,30,-20
4271.477,310,303,302,306,688,9140,13352,-30,30,-20
4277.008000000001,309,303,301,306,688,9140,13352,-30,30,-20
4281.4800000000005,309,303,301,305,688,9140,13352,-30,30,-20
4284.152,308,303,302,306,644,9064,13252,-104,13,-9
4293.143,307,303,301,305,644,9064,13252,-104,13,-9
4293.143,307,304,301,305,644,9064,13252,-104,13,-9
4304.643999999999,307,304,301,305,644,9064,13252,-104,13,-9
4309.237,307,304,302,305,644,9064,13252,-104,13,-9
4315.069,308,304,302,306,644,9064,13252,-104,13,-9
4315.069,308,304,301,305,644,9064,13252,-104,13,-9
4326.844,307,304,301,305,644,9064,13252,-104,13,-9
4326.844,306,304,302,306,700,9148,13312,-24,15,-16
4337.58,306,304,301,305,700,9148,13312,-24,15,-16
4337.58,306,304,301,305,700,9148,13312,-24,15,-16
4347.974,305,304,301,305,700,9148,13312,-24,15,-16
4348.629,305,304,302,305,700,9148,13312,-24,15,-16
4359.62,305,304,302,305,700,9148,13312,-24,15,-16
4359.62,305,304,301,304,700,9148,13312,-24,15,-16
4365.914,304,304,301,305,668,9184,13312,-73,49,-24
4370.365,305,304,301,305,668,9184,13312,-73,49,-24
4381.672,304,305,301,305,668,9184,13312,-73,49,-24
4383.541,305,305,301,305,668,9184,13312,-73,49,-24
4392.826,304,305,301,305,668,9184,13312,-73,49,-24
4394.196,304,305,300,306,668,9184,13312,-73,49,-24
4394.196,305,305,301,304,668,9184,13312,-73,49,-24
4409.0740000000005,304,305,301,305,668,9172,13308,-66,-4,-30
4411.173,305,305,301,307,668,9172,13308,-66,-4,-30
4415.165,305,306,301,306,668,9172,13308,-66,-4,-30
4418.955000000001,305,306,301,306,668,9172,13308,-66,-4,-30
4426.586,305,306,301,307,668,9172,13308,-66,-4,-30
4426.586,305,306,301,307,668,9172,13308,-66,-4,-30
4437.539,306,305,301,307,668,9172,13308,-66,-4,-30
4445.9039999999995,306,306,301,306,668,9172,13308,-66,-4,-30
4448.901,306,305,301,307,624,9128,13276,-61,39,-25
4448.901,305,305,301,306,624,9128,13276,-61,39,-25
4460.015,304,305,300,305,624,9128,13276,-61,39,-25
4465.314,303,305,301,305,624,9128,13276,-61,39,-25
4470.634999999999,302,304,301,305,624,9128,13276,-61,39,-25
4472.85,302,304,301,305,624,9128,13276,-61,39,-25
4481.361,301,304,300,304,624,9128,13276,-61,39,-25
4483.867,302,304,301,304,696,9120,13364,-88,16,-17
4493.6449999999995,301,304,301,305,696,9120,13364,-88,16,-17
4493.6449999999995,301,304,302,304,696,9120,13364,-88,16,-17
4504.158,301,304,300,303,696,9120,13364,-88,16,-17
4504.158,301,304,301,304,696,9120,13364,-88,16,-17
4515.452,301,304,301,305,696,9120,13364,-88,16,-17
4515.452,300,304,301,304,696,9120,13364,-88,16,-17
4526.961,301,304,300,304,696,9120,13364,-88,16,-17
4529.741,301,304,301,305,672,9164,13344,-18,8,-12
4538.179,300,304,300,305,672,9164,13344,-18,8,-12
4539.194,300,304,300,304,672,9164,13344,-18,8,-12
4548.338000000001,299,305,301,304,672,9164,13344,-18,8,-12
4549.2970000000005,299,304,301,304,672,9164,13344,-18,8,-12
4555.816,300,305,300,304,672,9164,13344,-18,8,-12
4559.825,300,305,300,304,672,9164,13344,-18,8,-12
4567.021000000001,300,305,301,304,608,9088,13320,-120,55,-39
4571.2789999999995,302,305,301,305,608,9088,13320,-120,55,-39
4574.517,302,305,301,305,608,9088,13320,-120,55,-39
4583.782,302,306,300,305,608,9088,13320,-120,55,-39
4583.782,301,306,300,306,608,9088,13320,-120,55,-39
4593.198,301,306,300,307,608,9088,13320,-120,55,-39
4600.768999999999,301,306,300,306,608,9088,13320,-120,55,-39
4604.611,301,306,300,306,608,9088,13320,-120,55,-39
4612.697,300,306,301,307,696,9112,13304,-32,17,-6
4617.866,301,306,300,307,696,9112,13304,-32,17,-6
4622.307,300,306,300,306,696,9112,13304,-32,17,-6
4626.4529999999995,300,306,299,307,696,9112,13304,-32,17,-6
4634.745,300,306,301,307,696,9112,13304,-32,17,-6
4638.404,300,305,300,307,696,9112,13304,-32,17,-6
4640.454,300,305,300,306,696,9112,13304,-32,17,-6
4649.3060000000005,300,305,301,306,656,9116,13312,-93,7,-6
4649.3060000000005,299,304,301,306,656,9116,13312,-93,7,-6
4659.587,299,305,301,305,656,9116,13312,-93,7,-6
4660.456,299,304,300,305,656,9116,13312,-93,7,-6
4670.378000000001,299,304,301,305,656,9116,13312,-93,7,-6
4673.094,298,304,301,305,656,9116,13312,-93,7,-6
4673.094,298,304,300,304,656,9116,13312,-93,7,-6
4683.907999999999,298,304,300,303,656,9116,13312,-93,7,-6
4692.242,298,304,300,304,676,9260,13232,-72,41,-4
4694.418,299,303,301,303,676,9260,13232,-72,41,-4
4694.418,299,303,301,303,676,9260,13232,-72,41,-4
4704.353,299,303,301,302,676,9260,13232,-72,41,-4
4710.3060000000005,299,303,300,302,676,9260,13232,-72,41,-4
4714.785,300,303,301,302,676,9260,13232,-72,41,-4
4714.785,300,303,301,302,676,9260,13232,-72,41,-4
4726.707,300,303,301,302,676,9260,13232,-72,41,-4
4730.870000000001,300,304,302,302,696,9012,13280,-97,0,-16
4737.5199999999995,301,304,301,302,696,9012,13280,-97,0,-16
4738.969,301,303,301,302,696,9012,13280,-97,0,-16
4748.628,302,303,301,302,696,9012,13280,-97,0,-16
4748.628,303,303,302,303,696,9012,13280,-97,0,-16
4756.42,304,303,302,303,696,9012,13280,-97,0,-16
4759.837,304,304,302,303,696,9012,13280,-97,0,-16
4767.726,304,304,302,303,612,9192,13308,-37,47,-43
4771.521,305,304,302,303,612,9192,13308,-37,47,-43
4781.856000000001,305,303,302,303,612,9192,13308,-37,47,-43
4784.154,306,304,303,303,612,9192,13308,-37,47,-43
4784.154,306,303,303,304,612,9192,13308,-37,47,-43
4794.406999999999,306,303,303,304,612,9192,13308,-37,47,-43
4800.302000000001,307,303,302,303,612,9192,13308,-37,47,-43
4804.628,306,303,303,304,612,9192,13308,-37,47,-43
4809.157,306,303,303,304,656,9144,13276,-78,9,-19
4815.090999999999,306,303,303,303,656,9144,13276,-78,9,-19
4820.416,307,303,302,303,656,9144,13276,-78,9,-19
4825.8330000000005,307,303,303,303,656,9144,13276,-78,9,-19
4828.607,308,304,303,303,656,9144,13276,-78,9,-19
4838.377,307,304,303,303,656,9144,13276,-78,9,-19
4838.377,307,304,302,302,656,9144,13276,-78,9,-19
4848.023,306,304,303,303,620,9144,13360,-66,13,-44
4848.673,306,304,303,303,620,9144,13360,-66,13,-44
4859.89,306,305,302,303,620,9144,13360,-66,13,-44
4859.89,307,305,302,303,620,9144,13360,-66,13,-44
4870.344,308,304,303,303,620,9144,13360,-66,13,-44
4873.5,307,305,302,304,620,9144,13360,-66,13,-44
4881.603,308,305,302,303,620,9144,13360,-66,13,-44
4884.222000000001,308,304,302,304,620,9144,13360,-66,13,-44
4893.076,308,305,302,304,628,9176,13292,-80,3,-34
4893.86,308,305,303,304,628,9176,13292,-80,3,-34
4904.006,309,305,302,304,628,9176,13292,-80,3,-34
4906.421,308,306,302,305,628,9176,13292,-80,3,-34
4906.421,309,305,303,306,628,9176,13292,-80,3,-34
4916.323,310,306,302,306,628,9176,13292,-80,3,-34
4921.47,310,306,302,305,628,9176,13292,-80,3,-34
4927.275,310,306,303,306,656,9148,13348,-73,-22,17
4927.275,309,306,302,307,656,9148,13348,-73,-22,17
4937.750999999999,309,306,302,306,656,9148,13348,-73,-22,17
4944.666,308,306,302,306,656,9148,13348,-73,-22,17
4949.039,307,305,302,306,656,9148,13348,-73,-22,17
4957.106,307,305,302,306,656,9148,13348,-73,-22,17
4959.798,307,305,301,305,656,9148,13348,-73,-22,17
4963.339999999999,307,304,302,305,656,9148,13348,-73,-22,17
4970.416,306,304,302,306,644,9152,13216,-43,40,10
4970.416,305,304,302,307,644,9152,13216,-43,40,10
4981.9310000000005,305,304,301,305,644,9152,13216,-43,40,10
4984.449,305,304,301,306,644,9152,13216,-43,40,10
4993.348,304,304,301,307,644,9152,13216,-43,40,10
4996.702,305,304,301,306,644,9152,13216,-43,40,10
4996.702,305,303,300,306,644,9152,13216,-43,40,10
5004.625,303,303,300,306,632,9172,13268,-60,4,-13
5015.333,303,303,300,307,632,9172,13268,-60,4,-13
5017.054,302,304,300,306,632,9172,13268,-60,4,-13
5017.054,301,304,299,306,632,9172,13268,-60,4,-13
5027.584,300,304,299,307,632,9172,13268,-60,4,-13
5033.7880000000005,301,304,299,307,632,9172,13268,-60,4,-13
5037.88,300,304,299,307,632,9172,13268,-60,4,-13
5042.657,302,304,299,307,632,9172,13268,-60,4,-13
5048.439,302,304,299,308,664,9076,13296,-97,-19,-30
5053.848,303,305,298,309,664,9076,13296,-97,-19,-30
5059.148999999999,302,305,298,309,664,9076,13296,-97,-19,-30
5059.148999999999,303,306,298,309,664,9076,13296,-97,-19,-30
5071.030000000001,303,306,298,310,664,9076,13296,-97,-19,-30
5080.018,302,306,298,311,664,9076,13296,-97,-19,-30
5084.701,301,306,296,311,664,9076,13296,-97,-19,-30
5087.116,300,306,297,311,684,9088,13312,-87,-19,-7
5092.8820000000005,299,306,297,312,684,9088,13312,-87,-19,-7
5099.387,299,305,296,312,684,9088,13312,-87,-19,-7
5104.271,298,305,296,312,684,9088,13312,-87,-19,-7
5107.6759999999995,298,305,296,314,684,9088,13312,-87,-19,-7
5116.906,298,305,297,314,684,9088,13312,-87,-19,-7
5116.906,298,305,295,313,684,9088,13312,-87,-19,-7
5126.475,300,304,296,314,684,9088,13312,-87,-19,-7
5134.571,300,304,296,314,696,9152,13340,-44,-5,-26
5137.546,300,304,295,314,696,9152,13340,-44,-5,-26
5137.546,299,303,296,313,696,9152,13340,-44,-5,-26
5148.9130000000005,299,303,296,313,696,9152,13340,-44,-5,-26
5148.9130000000005,298,302,296,314,696,9152,13340,-44,-5,-26
5159.241,297,302,295,313,696,9152,13340,-44,-5,-26
5159.87,297,302,295,312,696,9152,13340,-44,-5,-26
5170.966,297,300,296,312,692,9104,13244,-144,37,-19
5170.966,296,300,296,312,692,9104,13244,-144,37,-19
5182.107,296,300,295,311,692,9104,13244,-144,37,-19
5185.191,296,300,296,311,692,9104,13244,-144,37,-19
5185.191,295,300,296,311,692,9104,13244,-144,37,-19
5194.320000000001,295,300,296,310,692,9104,13244,-144,37,-19
5204.307,295,300,295,309,692,9104,13244,-144,37,-19
5204.536,294,300,296,309,652,9092,13208,-78,-26,-22
5215.618,296,300,297,309,652,9092,13208,-78,-26,-22
5218.456,295,300,297,309,652,9092,13208,-78,-26,-22
5218.456,296,301,297,309,652,9092,13208,-78,-26,-22
5227.537,295,301,298,309,652,9092,13208,-78,-26,-22
5237.0869999999995,296,301,298,309,652,9092,13208,-78,-26,-22
5237.8910000000005,296,301,299,308,652,9092,13208,-78,-26,-22
5243.298000000001,296,301,299,307,652,9092,13208,-78,-26,-22
5251.061,296,302,300,308,640,9216,13296,-86,0,4
5251.061,296,302,300,307,640,9216,13296,-86,0,4
5260.767000000001,295,302,299,306,640,9216,13296,-86,0,4
5269.821,294,303,300,307,640,9216,13296,-86,0,4
5271.218,292,302,300,306,640,9216,13296,-86,0,4
5276.141,290,303,300,306,640,9216,13296,-86,0,4
5282.778,288,303,299,305,640,9216,13296,-86,0,4
5284.844,287,304,300,306,640,9216,13296,-86,0,4
5293.340999999999,285,304,301,306,672,9096,13288,-108,0,-25
5293.340999999999,284,303,300,306,672,9096,13288,-108,0,-25
5305.061000000001,284,304,300,305,672,9096,13288,-108,0,-25
5307.944,282,304,300,306,672,9096,13288,-108,0,-25
5315.234,281,304,300,307,672,9096,13288,-108,0,-25
5315.234,280,304,300,307,672,9096,13288,-108,0,-25
5326.8009999999995,280,304,300,306,672,9096,13288,-108,0,-25
5326.8009999999995,279,304,299,307,680,9076,13280,-170,-13,15
5336.995,279,305,300,307,680,9076,13280,-170,-13,15
5336.995,279,304,299,306,680,9076,13280,-170,-13,15
5345.606,279,304,299,306,680,9076,13280,-170,-13,15
5348.723,279,305,300,307,680,9076,13280,-170,-13,15
5360.087,280,305,300,307,680,9076,13280,-170,-13,15
5360.087,281,305,299,306,680,9076,13280,-170,-13,15
5370.467,282,305,300,307,700,9176,13304,-79,-14,-15
5373.454,285,306,300,307,700,9176,13304,-79,-14,-15
5373.454,287,306,300,307,700,9176,13304,-79,-14,-15
5385.087,289,306,300,307,700,9176,13304,-79,-14,-15
5385.087,292,306,301,307,700,9176,13304,-79,-14,-15
5392.915999999999,294,306,300,308,700,9176,13304,-79,-14,-15
5404.043,295,306,299,307,700,9176,13304,-79,-14,-15
5406.479,297,306,300,306,700,9176,13304,-79,-14,-15
5406.479,299,306,300,307,752,9080,13332,-60,45,-5
5416.202,301,306,301,307,752,9080,13332,-60,45,-5
5422.885,303,306,300,307,752,9080,13332,-60,45,-5
5426.996,305,305,300,307,752,9080,13332,-60,45,-5
5433.7,308,305,301,308,752,9080,13332,-60,45,-5
5437.442,309,305,301,307,752,9080,13332,-60,45,-5
5442.994,310,305,301,307,752,9080,13332,-60,45,-5
5448.144,311,305,301,307,720,9168,13272,-61,49,-28
5451.195000000001,312,304,301,307,720,9168,13272,-61,49,-28
5460.009999999999,313,305,301,307,720,9168,13272,-61,49,-28
5460.009999999999,314,305,301,308,720,9168,13272,-61,49,-28
5471.396000000001,314,305,301,308,720,9168,13272,-61,49,-28
5476.485000000001,314,305,301,308,720,9168,13272,-61,49,-28
5481.852,314,305,300,307,720,9168,13272,-61,49,-28
5485.369000000001,314,304,300,308,720,9168,13272,-61,49,-28
5493.619,314,305,301,309,692,9108,13308,-100,43,7
5493.619,314,304,300,308,692,9108,13308,-100,43,7
5500.801,313,304,300,308,692,9108,13308,-100,43,7
5504.9039999999995,314,304,301,308,692,9108,13308,-100,43,7
5515.334,314,304,301,308,692,9108,13308,-100,43,7
5515.334,314,304,301,308,692,9108,13308,-100,43,7
5526.192,314,304,302,307,692,9108,13308,-100,43,7
5526.192,313,304,302,308,604,9004,13212,-60,60,-18
5534.004999999999,313,304,302,308,604,9004,13212,-60,60,-18
5537.669,311,304,301,307,604,9004,13212,-60,60,-18
5541.939,311,304,302,307,604,9004,13212,-60,60,-18
5549.04,309,305,302,307,604,9004,13212,-60,60,-18
5549.04,309,304,303,307,604,9004,13212,-60,60,-18
5559.639,308,304,303,306,604,9004,13212,-60,60,-18
5566.419,307,305,303,307,604,9004,13212,-60,60,-18
5571.018999999999,304,305,303,307,652,9080,13276,-42,-20,-43
5580.859,304,305,304,306,652,9080,13276,-42,-20,-43
5582.089,302,306,303,305,652,9080,13276,-42,-20,-43
5586.761,301,306,304,306,652,9080,13276,-42,-20,-43
5592.965,301,305,304,307,652,9080,13276,-42,-20,-43
5599.296,301,306,305,306,652,9080,13276,-42,-20,-43
5604.336,301,306,305,306,652,9080,13276,-42,-20,-43
5604.336,300,306,305,306,688,9032,13224,-119,-16,-2
5615.166,299,307,305,306,688,9032,13224,-119,-16,-2
5625.421,300,307,305,305,688,9032,13224,-119,-16,-2
5626.308,300,307,305,306,688,9032,13224,-119,-16,-2
5626.308,300,307,306,306,688,9032,13224,-119,-16,-2
5637.206,299,306,306,306,688,9032,13224,-119,-16,-2
5637.206,300,307,306,304,688,9032,13224,-119,-16,-2
5648.702,299,306,307,306,612,9168,13268,-71,29,-7
5654.536,299,307,308,306,612,9168,13268,-71,29,-7
5660.192999999999,299,307,307,305,612,9168,13268,-71,29,-7
5660.192999999999,299,307,307,305,612,9168,13268,-71,29,-7
5670.834,299,307,308,305,612,9168,13268,-71,29,-7
5678.8730000000005,299,307,308,305,612,9168,13268,-71,29,-7
5682.161,301,307,307,304,612,9168,13268,-71,29,-7
5685.676,302,307,308,304,612,9168,13268,-71,29,-7
5685.676,305,307,308,304,696,9056,13236,-70,14,-38
5693.81,306,307,308,304,696,9056,13236,-70,14,-38
5704.194,307,307,308,304,696,9056,13236,-70,14,-38
5704.2390000000005,308,307,309,304,696,9056,13236,-70,14,-38
5715.947,310,307,309,305,696,9056,13236,-70,14,-38
5715.947,311,307,309,305,696,9056,13236,-70,14,-38
5723.081999999999,312,307,309,304,696,9056,13236,-70,14,-38
5726.568,313,306,309,305,620,9172,13336,-39,60,-32
5734.424,314,306,309,305,620,9172,13336,-39,60,-32
5738.098,313,306,308,304,620,9172,13336,-39,60,-32
5748.219,313,307,309,304,620,9172,13336,-39,60,-32
5750.377,313,306,309,305,620,9172,13336,-39,60,-32
5750.377,313,306,309,304,620,9172,13336,-39,60,-32
5759.715,314,306,308,304,620,9172,13336,-39,60,-32
5766.968000000001,315,306,308,304,620,9172,13336,-39,60,-32
5771.449,316,306,307,304,692,9164,13292,-119,22,-33
5781.366,318,306,307,304,692,9164,13292,-119,22,-33
5782.041,318,306,307,303,692,9164,13292,-119,22,-33
5787.518,321,306,307,303,692,9164,13292,-119,22,-33
5792.493,322,306,306,303,692,9164,13292,-119,22,-33
5799.229,323,307,305,302,692,9164,13292,-119,22,-33
5804.192999999999,323,306,305,301,692,9164,13292,-119,22,-33
5807.711,324,306,305,302,708,9132,13380,-150,-28,-16
5815.485,323,307,304,301,708,9132,13380,-150,-28,-16
5815.485,322,307,303,300,708,9132,13380,-150,-28,-16
5826.594,321,307,303,301,708,9132,13380,-150,-28,-16
5833.999000000001,320,307,303,300,708,9132,13380,-150,-28,-16
5837.768,319,306,303,300,708,9132,13380,-150,-28,-16
5844.803,318,306,303,299,708,9132,13380,-150,-28,-16
5849.26,318,306,303,300,672,9252,13296,-45,27,-46
5859.247,317,306,302,299,672,9252,13296,-45,27,-46
5860.064,317,305,302,298,672,9252,13296,-45,27,-46
5865.206,316,305,302,299,672,9252,13296,-45,27,-46
5870.309,314,306,302,299,672,9252,13296,-45,27,-46
5877.789,313,306,301,297,672,9252,13296,-45,27,-46
5882.135,312,305,301,297,672,9252,13296,-45,27,-46
5886.284,311,305,302,299,672,9252,13296,-45,27,-46
5892.793000000001,309,305,303,299,580,8672,13472,-516,89,126
5892.793000000001,307,305,302,298,580,8672,13472,-516,89,126
5904.434,306,304,302,298,580,8672,13472,-516,89,126
5910.22,305,304,303,299,580,8672,13472,-516,89,126
5914.823,304,304,304,299,580,8672,13472,-516,89,126
5914.823,304,304,304,297,580,8672,13472,-516,89,126
5926.914,303,305,304,296,580,8672,13472,-516,89,126
5926.914,303,304,305,296,720,9276,13496,215,54,20
5937.722,304,304,306,292,720,9276,13496,215,54,20
5943.317999999999,304,304,306,290,720,9276,13496,215,54,20
5949.1990000000005,302,304,307,290,720,9276,13496,215,54,20
5951.05,300,303,307,289,720,9276,13496,215,54,20
5961.908,298,304,309,288,720,9276,13496,215,54,20
5965.991,294,304,309,285,720,9276,13496,215,54,20
5970.276,291,303,312,285,720,9276,13496,215,54,20
5977.682,287,302,313,281,916,9036,14548,-182,870,25
5982.386,284,301,321,275,916,9036,14548,-182,870,25
5986.523,281,301,331,274,916,9036,14548,-182,870,25
5992.6089999999995,278,300,348,273,916,9036,14548,-182,870,25
5992.6089999999995,276,300,364,271,916,9036,14548,-182,870,25
6003.71,274,301,385,267,916,9036,14548,-182,870,25
6005.313,274,303,403,265,916,9036,14548,-182,870,25
6015.141,274,305,423,263,956,10792,15588,937,1803,-1949
6015.874,274,308,439,259,956,10792,15588,937,1803,-1949
6026.4490000000005,275,310,455,255,956,10792,15588,937,1803,-1949
6035.419,277,312,468,251,956,10792,15588,937,1803,-1949
6037.711,282,315,478,250,956,10792,15588,937,1803,-1949
6041.144,287,317,485,250,956,10792,15588,937,1803,-1949
6049.01,288,312,488,250,956,10792,15588,937,1803,-1949
6053.872,289,305,488,248,384,10508,16424,2840,4559,-3954
6059.261,291,297,487,250,384,10508,16424,2840,4559,-3954
6065.601,293,287,484,251,384,10508,16424,2840,4559,-3954
6070.44,294,278,487,253,384,10508,16424,2840,4559,-3954
6077.886,298,269,487,256,384,10508,16424,2840,4559,-3954
6086.549,304,262,487,260,384,10508,16424,2840,4559,-3954
6093.546,318,267,487,263,1444,14056,17156,6583,6500,-5187
6102.062,341,279,487,266,1444,14056,17156,6583,6500,-5187
6104.452,362,291,488,267,1444,14056,17156,6583,6500,-5187
6113.414,385,309,490,270,1444,14056,17156,6583,6500,-5187
6115.4169999999995,406,332,494,270,1444,14056,17156,6583,6500,-5187
6123.7300000000005,430,351,494,269,1444,14056,17156,6583,6500,-5187
6127.076,448,364,517,271,1444,14056,17156,6583,6500,-5187
6137.666,467,381,590,270,-2928,13400,14068,5728,9218,-5866
6145.74,489,404,673,265,-2928,13400,14068,5728,9218,-5866
6148.594,506,421,730,266,-2928,13400,14068,5728,9218,-5866
6158.602,521,441,774,270,-2928,13400,14068,5728,9218,-5866
6159.643,547,463,806,280,-2928,13400,14068,5728,9218,-5866
6170.287,579,481,826,289,-2928,13400,14068,5728,9218,-5866
6172.531,616,497,831,297,756,12004,13560,2843,8502,-8429
6182.503,651,520,822,303,756,12004,13560,2843,8502,-8429
6186.518999999999,664,534,803,309,756,12004,13560,2843,8502,-8429
6193.267,660,539,777,313,756,12004,13560,2843,8502,-8429
6197.624,647,531,745,314,756,12004,13560,2843,8502,-8429
6204.603999999999,627,513,727,317,756,12004,13560,2843,8502,-8429
6215.02,603,492,714,319,-1284,14308,14356,5199,10001,-11142
6215.02,571,464,697,320,-1284,14308,14356,5199,10001,-11142
6226.048,542,438,679,322,-1284,14308,14356,5199,10001,-11142
6226.048,510,406,653,324,-1284,14308,14356,5199,10001,-11142
6238.398,473,362,625,323,-1284,14308,14356,5199,10001,-11142
6248.701,441,311,598,324,-1284,14308,14356,5199,10001,-11142
6248.701,402,248,566,326,-2224,14464,12112,5401,11075,-14790
6259.778,369,190,532,327,-2224,14464,12112,5401,11075,-14790
6259.778,344,146,502,326,-2224,14464,12112,5401,11075,-14790
6271.192,317,101,469,326,-2224,14464,12112,5401,11075,-14790
6281.465,295,70,441,327,-2224,14464,12112,5401,11075,-14790
6282.134,269,42,414,329,-2224,14464,12112,5401,11075,-14790
6292.713,246,22,391,328,-2224,14464,12112,5401,11075,-14790
6295.277999999999,218,5,364,330,-4300,13320,11756,2441,12911,-17912
6305.411,194,0,335,334,-4300,13320,11756,2441,12911,-17912
6313.458,177,0,311,339,-4300,13320,11756,2441,12911,-17912
6315.483,165,0,286,344,-4300,13320,11756,2441,12911,-17912
6326.807,154,0,260,350,-4300,13320,11756,2441,12911,-17912
6326.807,147,3,232,356,-4300,13320,11756,2441,12911,-17912
6337.299,138,8,209,362,-6516,8288,8924,-2905,12797,-17374
6337.299,124,13,181,365,-6516,8288,8924,-2905,12797,-17374
6348.772,114,22,160,371,-6516,8288,8924,-2905,12797,-17374
6352.706,105,36,140,373,-6516,8288,8924,-2905,12797,-17374
6360.255,98,54,122,376,-6516,8288,8924,-2905,12797,-17374
6371.014,93,70,105,379,-6516,8288,8924,-2905,12797,-17374
6372.861999999999,86,85,88,381,-7752,6792,8376,-4607,12613,-16641
6383.001,78,101,70,382,-7752,6792,8376,-4607,12613,-16641
6386.517000000001,72,113,59,384,-7752,6792,8376,-4607,12613,-16641
6393.572,71,127,46,384,-7752,6792,8376,-4607,12613,-16641
6393.572,74,136,33,386,-7752,6792,8376,-4607,12613,-16641
6404.134,82,144,26,387,-7752,6792,8376,-4607,12613,-16641
6410.183,92,156,20,392,-7752,6792,8376,-4607,12613,-16641
6414.751,103,167,9,394,-8816,3876,7432,-3315,12385,-13271
6422.525000000001,106,171,0,397,-8816,3876,7432,-3315,12385,-13271
6426.913,112,177,0,399,-8816,3876,7432,-3315,12385,-13271
6436.969999999999,122,182,12,403,-8816,3876,7432,-3315,12385,-13271
6445.603,134,181,38,406,-8816,3876,7432,-3315,12385,-13271
6448.608,144,173,64,406,-8816,3876,7432,-3315,12385,-13271
6454.985,157,167,74,403,-10900,3212,6020,-3981,12154,-11720
6459.193,172,161,71,398,-10900,3212,6020,-3981,12154,-11720
6469.037,185,156,62,396,-10900,3212,6020,-3981,12154,-11720
6474.637000000001,196,154,55,392,-10900,3212,6020,-3981,12154,-11720
6482.209,211,153,37,386,-10900,3212,6020,-3981,12154,-11720
6486.715,227,153,17,380,-10900,3212,6020,-3981,12154,-11720
6493.571,246,155,0,371,-11848,3748,6508,52,10192,-10262
6500.034000000001,261,158,0,368,-11848,3748,6508,52,10192,-10262
6504.623,276,156,7,364,-11848,3748,6508,52,10192,-10262
6514.684,287,158,25,362,-11848,3748,6508,52,10192,-10262
6515.285000000001,296,164,55,357,-11848,3748,6508,52,10192,-10262
6526.624,300,171,93,352,-11848,3748,6508,52,10192,-10262
6534.705,303,182,131,348,-11848,3748,6508,52,10192,-10262
6537.938999999999,308,194,161,345,-12968,2636,5648,-317,7326,-8202
6546.953,314,207,189,338,-12968,2636,5648,-317,7326,-8202
6548.724,320,218,206,335,-12968,2636,5648,-317,7326,-8202
6560.031999999999,328,229,219,331,-12968,2636,5648,-317,7326,-8202
6560.031999999999,338,241,232,331,-12968,2636,5648,-317,7326,-8202
6571.027,347,251,247,332,-12968,2636,5648,-317,7326,-8202
6573.952,359,262,261,333,-13376,3132,4676,-310,5296,-5780
6583.03,367,272,271,332,-13376,3132,4676,-310,5296,-5780
6587.043000000001,374,282,278,331,-13376,3132,4676,-310,5296,-5780
6593.256,379,294,282,332,-13376,3132,4676,-310,5296,-5780
6598.641,382,308,278,328,-13376,3132,4676,-310,5296,-5780
6604.164,381,317,266,327,-13376,3132,4676,-310,5296,-5780
6610.093,376,325,251,326,-14456,2320,4840,68,3287,-3767
6614.656,367,334,235,320,-14456,2320,4840,68,3287,-3767
6625.777,362,338,225,317,-14456,2320,4840,68,3287,-3767
6626.45,354,344,213,313,-14456,2320,4840,68,3287,-3767
6637.679999999999,347,351,197,309,-14456,2320,4840,68,3287,-3767
6645.797,342,357,179,303,-14456,2320,4840,68,3287,-3767
6648.668,339,363,160,299,-14456,2320,4840,68,3287,-3767
6656.696,336,368,142,292,-15068,3464,5252,148,2779,-3480
6659.782,335,375,122,285,-15068,3464,5252,148,2779,-3480
6670.266,336,379,110,283,-15068,3464,5252,148,2779,-3480
6670.866,335,386,96,279,-15068,3464,5252,148,2779,-3480
6681.889,334,391,85,274,-15068,3464,5252,148,2779,-3480
6687.396,333,395,76,268,-15068,3464,5252,148,2779,-3480
6691.269,332,400,69,264,-15068,3464,5252,148,2779,-3480
6698.374000000001,332,406,67,261,-15096,3008,4700,359,2567,-3428
6704.299,331,410,66,255,-15096,3008,4700,359,2567,-3428
6710.803,327,413,65,250,-15096,3008,4700,359,2567,-3428
6715.526,323,417,67,248,-15096,3008,4700,359,2567,-3428
6723.651,319,421,73,244,-15096,3008,4700,359,2567,-3428
6726.648,314,424,78,240,-15096,3008,4700,359,2567,-3428
6735.036,308,427,85,237,-15176,2368,4844,-470,1760,-2517
6737.4929999999995,303,429,91,231,-15176,2368,4844,-470,1760,-2517
6748.077,297,431,96,228,-15176,2368,4844,-470,1760,-2517
6748.919,292,432,103,222,-15176,2368,4844,-470,1760,-2517
6759.686000000001,286,434,107,220,-15176,2368,4844,-470,1760,-2517
6759.686000000001,281,435,109,215,-15176,2368,4844,-470,1760,-2517
6771.201999999999,278,438,118,214,-15176,2368,4844,-470,1760,-2517
6771.201999999999,274,438,123,211,-15064,2516,4780,-481,597,-1821
6782.51,271,439,127,209,-15064,2516,4780,-481,597,-1821
6788.068,269,438,131,208,-15064,2516,4780,-481,597,-1821
6792.598,270,438,135,206,-15064,2516,4780,-481,597,-1821
6799.313,270,439,141,204,-15064,2516,4780,-481,597,-1821
6803.871,269,438,148,204,-15064,2516,4780,-481,597,-1821
6814.142000000001,270,438,152,201,-15100,2028,5180,-1077,324,-1228
6814.561000000001,270,437,159,202,-15100,2028,5180,-1077,324,-1228
6826.509,271,436,167,202,-15100,2028,5180,-1077,324,-1228
6831.983,272,432,175,201,-15100,2028,5180,-1077,324,-1228
6836.878,273,431,183,202,-15100,2028,5180,-1077,324,-1228
6844.449,277,431,189,204,-15100,2028,5180,-1077,324,-1228
6848.8150000000005,280,430,195,207,-15100,2028,5180,-1077,324,-1228
6856.601000000001,283,429,201,207,-15212,3312,6088,-265,-152,-733
6860.659,288,428,207,207,-15212,3312,6088,-265,-152,-733
6871.181,292,425,214,207,-15212,3312,6088,-265,-152,-733
6879.217,296,423,220,211,-15212,3312,6088,-265,-152,-733
6882.138,299,422,225,212,-15212,3312,6088,-265,-152,-733
6889.686000000001,303,419,232,215,-15212,3312,6088,-265,-152,-733
6893.254,304,417,239,215,-15332,2748,5676,-80,-332,-432
6897.642,305,414,247,213,-15332,2748,5676,-80,-332,-432
6905.239,308,412,252,215,-15332,2748,5676,-80,-332,-432
6914.666,308,410,256,215,-15332,2748,5676,-80,-332,-432
6917.456999999999,312,409,264,216,-15332,2748,5676,-80,-332,-432
6917.456999999999,313,406,268,211,-15332,2748,5676,-80,-332,-432
6927.029,310,400,273,212,-15332,2748,5676,-80,-332,-432
6936.883,310,399,276,213,-15120,556,5364,-2087,-588,920
6937.486,304,394,283,206,-15120,556,5364,-2087,-588,920
6949.242,301,387,284,211,-15120,556,5364,-2087,-588,920
6950.84,304,385,290,214,-15120,556,5364,-2087,-588,920
6959.097,304,385,294,215,-15120,556,5364,-2087,-588,920
6959.097,304,381,301,214,-15120,556,5364,-2087,-588,920
6971.212,307,378,312,217,-15120,556,5364,-2087,-588,920
6981.972,314,378,321,217,-15048,1956,6412,-1541,-1042,1827
6986.078,318,376,332,218,-15048,1956,6412,-1541,-1042,1827
6994.2080000000005,320,374,342,219,-15048,1956,6412,-1541,-1042,1827
6996.224,324,372,352,219,-15048,1956,6412,-1541,-1042,1827
7005.135,327,369,362,220,-15048,1956,6412,-1541,-1042,1827
7014.116999999999,331,367,369,222,-15048,1956,6412,-1541,-1042,1827
7015.554,334,365,375,222,-14908,3888,6472,-154,-953,2281
7026.6539999999995,334,362,379,223,-14908,3888,6472,-154,-953,2281
7026.6539999999995,334,363,383,223,-14908,3888,6472,-154,-953,2281
7038.025000000001,336,363,385,225,-14908,3888,6472,-154,-953,2281
7041.607,336,363,385,227,-14908,3888,6472,-154,-953,2281
7049.928000000001,337,362,387,228,-14908,3888,6472,-154,-953,2281
7049.928000000001,338,361,388,231,-14624,4284,6508,1326,-225,1537
7059.866999999999,339,361,389,231,-14624,4284,6508,1326,-225,1537
7067.924,339,361,389,232,-14624,4284,6508,1326,-225,1537
7070.925,339,358,388,236,-14624,4284,6508,1326,-225,1537
7078.974999999999,338,357,387,237,-14624,4284,6508,1326,-225,1537
7081.419999999999,337,356,385,237,-14624,4284,6508,1326,-225,1537
7092.493,336,353,385,239,-14624,4284,6508,1326,-225,1537
7093.157999999999,335,352,385,240,-14944,5292,6520,814,214,607
7104.368,335,351,384,241,-14944,5292,6520,814,214,607
7104.368,334,350,383,242,-14944,5292,6520,814,214,607
7116.5830000000005,332,348,381,244,-14944,5292,6520,814,214,607
7116.5830000000005,331,348,377,245,-14944,5292,6520,814,214,607
7122.509,329,347,373,245,-14944,5292,6520,814,214,607
7127.032,328,346,371,245,-14944,5292,6520,814,214,607
7137.673000000001,328,344,367,247,-14672,4224,6348,188,356,7
7137.673000000001,325,345,363,247,-14672,4224,6348,188,356,7
7148.831,323,344,362,247,-14672,4224,6348,188,356,7
7148.831,322,344,357,248,-14672,4224,6348,188,356,7
7159.799999999999,320,344,354,248,-14672,4224,6348,188,356,7
7159.799999999999,319,344,350,250,-14672,4224,6348,188,356,7
7170.338,316,344,348,251,-14672,4224,6348,188,356,7
7171.509,315,343,344,252,-15140,3504,5920,-657,329,-315
7181.423,314,343,339,251,-15140,3504,5920,-657,329,-315
7188.94,312,342,336,253,-15140,3504,5920,-657,329,-315
7193.735000000001,311,341,332,254,-15140,3504,5920,-657,329,-315
7201.765,307,341,328,255,-15140,3504,5920,-657,329,-315
7204.22,304,340,325,255,-15140,3504,5920,-657,329,-315
7214.754,304,339,322,256,-15140,3504,5920,-657,329,-315
7216.284,303,339,318,256,-14944,2652,5940,-250,110,-40
7216.284,302,338,315,258,-14944,2652,5940,-250,110,-40
7226.4710000000005,302,337,312,259,-14944,2652,5940,-250,110,-40
7233.5830000000005,300,336,309,259,-14944,2652,5940,-250,110,-40
7238.241,297,337,308,260,-14944,2652,5940,-250,110,-40
7248.13,296,337,306,260,-14944,2652,5940,-250,110,-40
7248.764999999999,295,334,304,261,-14944,2652,5940,-250,110,-40
7259.702,293,333,303,262,-15048,2520,5848,205,46,283
7259.702,292,334,300,263,-15048,2520,5848,205,46,283
7271.033,291,334,299,264,-15048,2520,5848,205,46,283
7274.285,290,334,298,266,-15048,2520,5848,205,46,283
7282.195,289,334,297,266,-15048,2520,5848,205,46,283
7285.688999999999,288,333,295,267,-15048,2520,5848,205,46,283
7292.9130000000005,287,332,295,269,-15048,2520,5848,205,46,283
7294.475,287,332,294,270,-14996,3296,6140,250,5,288
7303.938999999999,287,332,294,270,-14996,3296,6140,250,5,288
7303.938999999999,286,331,293,271,-14996,3296,6140,250,5,288
7315.482,285,330,293,272,-14996,3296,6140,250,5,288
7315.482,284,329,293,273,-14996,3296,6140,250,5,288
7325.911,284,329,294,273,-14996,3296,6140,250,5,288
7333.509,283,328,293,274,-14996,3296,6140,250,5,288
7338.076,284,327,293,275,-14936,3652,6180,-103,-3,345
7346.411,283,326,293,275,-14936,3652,6180,-103,-3,345
7350.106000000001,284,326,293,276,-14936,3652,6180,-103,-3,345
7350.106000000001,285,324,293,277,-14936,3652,6180,-103,-3,345
7360.4529999999995,286,324,293,277,-14936,3652,6180,-103,-3,345
7363.758,287,323,294,278,-14936,3652,6180,-103,-3,345
7370.7390000000005,287,322,294,279,-14936,3652,6180,-103,-3,345
7376.616,288,322,295,280,-14968,3620,6036,-195,43,328
7381.46,290,321,295,280,-14968,3620,6036,-195,43,328
7389.192,291,321,297,280,-14968,3620,6036,-195,43,328
7392.546,292,319,296,281,-14968,3620,6036,-195,43,328
7396.786999999999,292,320,296,282,-14968,3620,6036,-195,43,328
7404.345,294,319,296,282,-14968,3620,6036,-195,43,328
7404.345,295,319,297,283,-14968,3620,6036,-195,43,328
7415.41,296,319,297,284,-14884,3372,5856,-92,-69,422
7422.1539999999995,297,319,297,284,-14884,3372,5856,-92,-69,422
7426.602,298,318,297,285,-14884,3372,5856,-92,-69,422
7437.005,299,316,298,287,-14884,3372,5856,-92,-69,422
7438.455,299,316,299,287,-14884,3372,5856,-92,-69,422
7448.706999999999,299,316,298,288,-14884,3372,5856,-92,-69,422
7449.664000000001,300,315,299,289,-14884,3372,5856,-92,-69,422
7459.493,299,314,298,290,-14992,3304,6060,294,-166,287
7459.493,299,312,298,291,-14992,3304,6060,294,-166,287
7471.0,300,312,299,291,-14992,3304,6060,294,-166,287
7475.06,301,312,299,292,-14992,3304,6060,294,-166,287
7482.761,302,311,299,292,-14992,3304,6060,294,-166,287
7489.99,302,311,298,292,-14992,3304,6060,294,-166,287
7494.0689999999995,301,311,299,294,-14992,3304,6060,294,-166,287
7496.698,301,310,300,293,-14828,3232,5852,153,-191,373
7504.999,300,309,299,295,-14828,3232,5852,153,-191,373
7514.12,299,309,300,295,-14828,3232,5852,153,-191,373
7515.38,299,309,300,296,-14828,3232,5852,153,-191,373
7520.3730000000005,300,308,300,297,-14828,3232,5852,153,-191,373
7526.699,300,308,300,297,-14828,3232,5852,153,-191,373
7526.699,299,306,300,298,-14896,3612,5948,-225,-412,390
7538.023,299,307,300,299,-14896,3612,5948,-225,-412,390
7544.661,298,307,300,299,-14896,3612,5948,-225,-412,390
7548.978,299,307,301,301,-14896,3612,5948,-225,-412,390
7559.3060000000005,300,307,301,301,-14896,3612,5948,-225,-412,390
7559.981,300,306,301,302,-14896,3612,5948,-225,-412,390
7571.026,300,305,302,303,-14896,3612,5948,-225,-412,390
7579.108,299,305,303,303,-14912,3808,6316,-109,-259,295
7582.063,300,306,304,303,-14912,3808,6316,-109,-259,295
7591.989,300,305,304,305,-14912,3808,6316,-109,-259,295
7593.295999999999,302,305,305,305,-14912,3808,6316,-109,-259,295
7603.603999999999,302,304,305,306,-14912,3808,6316,-109,-259,295
7605.575,302,304,306,305,-14912,3808,6316,-109,-259,295
7615.727,302,304,307,306,-14912,3808,6316,-109,-259,295
7615.727,302,304,307,307,-14844,3712,6184,145,-309,160
7622.664000000001,302,304,308,307,-14844,3712,6184,145,-309,160
7626.445000000001,301,304,307,307,-14844,3712,6184,145,-309,160
7636.979,302,304,307,309,-14844,3712,6184,145,-309,160
7637.666,302,304,308,309,-14844,3712,6184,145,-309,160
7648.637,302,303,308,310,-14844,3712,6184,145,-309,160
7656.713,302,303,309,310,-14844,3712,6184,145,-309,160
7659.95,303,303,309,311,-14860,3524,6284,291,-231,183
7662.4619999999995,303,302,309,311,-14860,3524,6284,291,-231,183
7671.2119999999995,303,302,309,312,-14860,3524,6284,291,-231,183
7671.2119999999995,302,301,308,311,-14860,3524,6284,291,-231,183
7682.119000000001,303,302,309,312,-14860,3524,6284,291,-231,183
7689.987999999999,302,301,309,313,-14860,3524,6284,291,-231,183
7693.031,302,301,308,315,-14876,3892,6656,147,-103,-10
7701.592,303,302,309,315,-14876,3892,6656,147,-103,-10
7704.19,302,301,308,315,-14876,3892,6656,147,-103,-10
7715.182000000001,302,301,309,316,-14876,3892,6656,147,-103,-10
7715.849999999999,301,300,307,316,-14876,3892,6656,147,-103,-10
7725.909,300,300,307,317,-14876,3892,6656,147,-103,-10
7728.717,300,301,307,317,-14876,3892,6656,147,-103,-10
7738.546,300,301,306,315,-14828,3896,6304,-16,6,-80
7738.546,301,301,306,316,-14828,3896,6304,-16,6,-80
7745.2699999999995,299,301,306,317,-14828,3896,6304,-16,6,-80
7749.023,298,301,305,317,-14828,3896,6304,-16,6,-80
7759.777,298,301,305,318,-14828,3896,6304,-16,6,-80
7759.777,298,302,304,318,-14828,3896,6304,-16,6,-80
7770.7,297,301,304,318,-14828,3896,6304,-16,6,-80
7770.7,296,301,304,318,-14896,3556,6164,-173,22,19
7770.7,296,301,303,318,-14896,3556,6164,-173,22,19
7781.7119999999995,295,301,302,319,-14896,3556,6164,-173,22,19
7792.786,295,301,303,318,-14896,3556,6164,-173,22,19
7792.786,294,301,302,319,-14896,3556,6164,-173,22,19
7804.064,294,301,301,319,-14896,3556,6164,-173,22,19
7804.064,293,301,300,319,-14896,3556,6164,-173,22,19
7814.937,293,301,300,320,-14896,3556,6164,-173,22,19
7814.937,292,300,299,320,-14932,3700,6168,-149,-8,87
7825.762,293,301,299,319,-14932,3700,6168,-149,-8,87
7826.388,292,301,298,320,-14932,3700,6168,-149,-8,87
7837.757,291,300,300,319,-14932,3700,6168,-149,-8,87
7845.83,290,301,299,320,-14932,3700,6168,-149,-8,87
7848.665999999999,290,300,299,320,-14932,3700,6168,-149,-8,87
7848.665999999999,290,300,299,320,-14932,3700,6168,-149,-8,87
7860.299999999999,290,300,299,321,-14792,3580,6264,368,31,-1
7860.299999999999,290,299,299,320,-14792,3580,6264,368,31,-1
7871.069,290,299,300,320,-14792,3580,6264,368,31,-1
7878.646,290,299,301,320,-14792,3580,6264,368,31,-1
7882.1269999999995,290,300,302,320,-14792,3580,6264,368,31,-1
7887.2970000000005,291,300,302,319,-14792,3580,6264,368,31,-1
7894.509,291,301,303,320,-14792,3580,6264,368,31,-1
7894.509,292,301,304,320,-14828,3516,6232,203,56,49
7904.664000000001,292,301,304,320,-14828,3516,6232,203,56,49
7908.921,293,300,305,320,-14828,3516,6232,203,56,49
7915.839,294,300,306,320,-14828,3516,6232,203,56,49
7915.839,294,301,305,320,-14828,3516,6232,203,56,49
7926.469,294,301,305,320,-14828,3516,6232,203,56,49
7926.469,294,300,305,321,-14828,3516,6232,203,56,49
7938.121,295,300,306,321,-14820,3588,6168,-176,39,174
7938.121,295,300,306,320,-14820,3588,6168,-176,39,174
7948.817,297,300,306,321,-14820,3588,6168,-176,39,174
7956.867,296,300,307,322,-14820,3588,6168,-176,39,174
7959.892,297,299,307,321,-14820,3588,6168,-176,39,174
7961.967,297,299,307,321,-14820,3588,6168,-176,39,174
7970.94,297,299,307,321,-14820,3588,6168,-176,39,174
7970.94,298,299,307,322,-14828,3712,6268,-70,129,156
7982.409,298,299,307,321,-14828,3712,6268,-70,129,156
7987.583,297,298,308,320,-14828,3712,6268,-70,129,156
7992.639999999999,298,297,308,322,-14828,3712,6268,-70,129,156
8000.491,298,299,308,322,-14828,3712,6268,-70,129,156
8005.2970000000005,298,298,308,321,-14828,3712,6268,-70,129,156
8011.032999999999,297,298,309,322,-14828,3712,6268,-70,129,156
8015.49,296,298,308,322,-14900,3772,6184,38,85,98
8019.985000000001,297,299,308,322,-14900,3772,6184,38,85,98
8026.804999999999,297,298,308,323,-14900,3772,6184,38,85,98
8026.804999999999,297,298,308,324,-14900,3772,6184,38,85,98
8037.649,297,298,308,323,-14900,3772,6184,38,85,98
8044.826999999999,296,298,308,323,-14900,3772,6184,38,85,98
8048.6900000000005,296,298,308,324,-14900,3772,6184,38,85,98
8052.638,295,298,308,324,-14900,3772,6184,38,85,98
8061.231,295,297,307,324,-14840,3796,6284,-97,102,120
8061.231,294,298,307,325,-14840,3796,6284,-97,102,120
8071.082,294,298,307,325,-14840,3796,6284,-97,102,120
8077.4039999999995,293,298,307,326,-14840,3796,6284,-97,102,120
8082.138000000001,294,299,307,325,-14840,3796,6284,-97,102,120
8090.555,294,298,307,326,-14840,3796,6284,-97,102,120
8092.496999999999,294,298,307,325,-14840,3796,6284,-97,102,120
8097.3679999999995,292,298,307,325,-14932,3908,6128,-52,64,120
8104.177,293,299,306,325,-14932,3908,6128,-52,64,120
8104.177,294,298,306,326,-14932,3908,6128,-52,64,120
8115.5869999999995,294,297,306,326,-14932,3908,6128,-52,64,120
8123.039000000001,294,299,306,325,-14932,3908,6128,-52,64,120
8126.281000000001,294,298,305,325,-14932,3908,6128,-52,64,120
8134.403000000001,295,300,305,326,-14932,3908,6128,-52,64,120
8138.499,294,299,304,326,-14812,3664,5916,-127,48,69
8148.111999999999,294,300,304,326,-14812,3664,5916,-127,48,69
8150.550000000001,294,299,304,327,-14812,3664,5916,-127,48,69
8150.550000000001,294,299,303,327,-14812,3664,5916,-127,48,69
8163.073,293,299,303,327,-14812,3664,5916,-127,48,69
8167.033,293,299,304,327,-14812,3664,5916,-127,48,69
8171.2609999999995,292,299,304,328,-14812,3664,5916,-127,48,69
8182.0599999999995,291,299,304,328,-14888,3720,6176,37,-39,154
8182.0599999999995,290,300,304,328,-14888,3720,6176,37,-39,154
8192.904,289,299,304,328,-14888,3720,6176,37,-39,154
8195.314,288,299,303,328,-14888,3720,6176,37,-39,154
8203.519999999999,287,300,303,328,-14888,3720,6176,37,-39,154
8204.094,285,299,303,328,-14888,3720,6176,37,-39,154
8211.923999999999,284,300,303,328,-14888,3720,6176,37,-39,154
8215.87,282,300,301,327,-14804,3884,6500,230,-7,210
8226.352,279,301,301,325,-14804,3884,6500,230,-7,210
8226.352,278,301,300,325,-14804,3884,6500,230,-7,210
8237.019,275,302,299,325,-14804,3884,6500,230,-7,210
8240.16,272,303,297,323,-14804,3884,6500,230,-7,210
8248.494,268,303,296,322,-14804,3884,6500,230,-7,210
8248.494,264,304,294,320,-14804,3884,6500,230,-7,210
8260.241,256,305,293,317,-14860,3912,6532,239,241,195
8267.392,249,306,292,314,-14860,3912,6532,239,241,195
8271.869999999999,245,308,293,312,-14860,3912,6532,239,241,195
8276.013,241,308,295,310,-14860,3912,6532,239,241,195
8283.625,240,309,298,307,-14860,3912,6532,239,241,195
8287.753,239,310,300,306,-14860,3912,6532,239,241,195
8293.248,239,309,304,305,-14860,3912,6532,239,241,195
8298.38,240,310,307,303,-14828,3720,6240,125,483,251
8303.698,241,311,313,301,-14828,3720,6240,125,483,251
8310.743999999999,243,312,318,301,-14828,3720,6240,125,483,251
8315.467999999999,244,312,322,300,-14828,3720,6240,125,483,251
8318.925,246,313,325,299,-14828,3720,6240,125,483,251
8326.916000000001,247,314,328,298,-14828,3720,6240,125,483,251
8336.96,247,315,332,297,-14828,3720,6240,125,483,251
8338.277,246,316,335,296,-14776,3760,6108,96,500,262
8343.921999999999,246,316,338,295,-14776,3760,6108,96,500,262
8348.573,246,316,340,295,-14776,3760,6108,96,500,262
8355.021,246,316,343,295,-14776,3760,6108,96,500,262
8360.032000000001,246,316,345,294,-14776,3760,6108,96,500,262
8370.265,247,316,347,295,-14776,3760,6108,96,500,262
8371.58,248,315,349,297,-14776,3760,6108,96,500,262
8381.447,249,315,349,298,-14976,3936,5828,302,351,137
8383.673,250,314,349,299,-14976,3936,5828,302,351,137
8392.042,251,313,350,301,-14976,3936,5828,302,351,137
8392.598,252,313,350,302,-14976,3936,5828,302,351,137
8403.560000000001,254,313,349,304,-14976,3936,5828,302,351,137
8404.966,255,312,348,305,-14976,3936,5828,302,351,137
8415.282,256,313,346,306,-14976,3936,5828,302,351,137
8415.282,256,311,342,306,-14852,3844,5628,259,147,87
8426.23,257,312,339,308,-14852,3844,5628,259,147,87
8428.689,257,311,336,310,-14852,3844,5628,259,147,87
8438.39,258,311,333,311,-14852,3844,5628,259,147,87
8438.39,259,311,331,312,-14852,3844,5628,259,147,87
8448.077,260,310,327,313,-14852,3844,5628,259,147,87
8448.667000000001,261,309,325,314,-14852,3844,5628,259,147,87
8459.901,264,308,322,316,-14952,3972,5768,78,-125,237
8459.901,266,307,320,317,-14952,3972,5768,78,-125,237
8470.897,268,306,318,318,-14952,3972,5768,78,-125,237
8473.74,271,305,317,319,-14952,3972,5768,78,-125,237
8482.273,272,304,314,318,-14952,3972,5768,78,-125,237
8485.988000000001,275,303,312,319,-14952,3972,5768,78,-125,237
8493.042000000001,277,303,311,321,-14952,3972,5768,78,-125,237
8499.135,280,302,310,322,-14808,4128,6036,249,-134,266
8504.121,284,301,309,323,-14808,4128,6036,249,-134,266
8504.121,286,300,308,325,-14808,4128,6036,249,-134,266
8517.568000000001,289,299,306,326,-14808,4128,6036,249,-134,266
8520.697,291,298,305,327,-14808,4128,6036,249,-134,266
8528.212,294,297,303,328,-14808,4128,6036,249,-134,266
8537.333999999999,297,297,302,330,-14808,4128,6036,249,-134,266
8539.47,299,296,300,330,-14780,4216,6500,662,-16,142
8539.47,302,295,297,332,-14780,4216,6500,662,-16,142
8548.292,305,295,296,333,-14780,4216,6500,662,-16,142
8556.014,308,294,293,333,-14780,4216,6500,662,-16,142
8560.363000000001,310,294,291,333,-14780,4216,6500,662,-16,142
8570.830000000002,312,294,288,334,-14780,4216,6500,662,-16,142
8570.830000000002,314,293,285,335,-14780,4216,6500,662,-16,142
8581.668,316,293,282,335,-14864,4476,6376,665,314,-207
8581.668,317,293,280,335,-14864,4476,6376,665,314,-207
8593.325,320,293,277,336,-14864,4476,6376,665,314,-207
8597.172999999999,320,293,274,336,-14864,4476,6376,665,314,-207
8604.667,322,293,272,335,-14864,4476,6376,665,314,-207
8608.755000000001,322,293,269,336,-14864,4476,6376,665,314,-207
8615.126999999999,322,294,267,336,-14864,4476,6376,665,314,-207
8622.071,322,295,265,335,-14848,3992,6244,348,572,-242
8626.935,322,294,264,336,-14848,3992,6244,348,572,-242
8636.418000000001,323,294,262,336,-14848,3992,6244,348,572,-242
8638.241,321,294,261,336,-14848,3992,6244,348,572,-242
8648.7,321,294,261,335,-14848,3992,6244,348,572,-242
8648.7,320,295,261,335,-14848,3992,6244,348,572,-242
8659.297,318,295,261,335,-14952,3812,5928,313,713,-339
8659.297,316,294,262,333,-14952,3812,5928,313,713,-339
8667.48,315,295,263,333,-14952,3812,5928,313,713,-339
8670.812,313,295,265,334,-14952,3812,5928,313,713,-339
8682.311,314,295,268,334,-14952,3812,5928,313,713,-339
8682.494999999999,314,295,270,333,-14952,3812,5928,313,713,-339
8693.634,313,295,273,333,-14952,3812,5928,313,713,-339
8701.22,314,296,276,333,-15088,3572,5580,191,556,-240
8705.914,317,296,280,333,-15088,3572,5580,191,556,-240
8714.664,320,296,283,333,-15088,3572,5580,191,556,-240
8718.258,323,296,286,334,-15088,3572,5580,191,556,-240
8720.26,326,296,288,333,-15088,3572,5580,191,556,-240
8727.054,331,295,291,334,-15088,3572,5580,191,556,-240
8732.257000000001,335,296,294,334,-15088,3572,5580,191,556,-240
8737.027,338,296,296,334,-15012,3328,5472,217,145,232
8744.201000000001,344,297,299,334,-15012,3328,5472,217,145,232
8748.976,347,298,300,334,-15012,3328,5472,217,145,232
8759.658,352,298,302,334,-15012,3328,5472,217,145,232
8760.688,355,298,304,334,-15012,3328,5472,217,145,232
8770.932999999999,359,299,305,333,-15012,3328,5472,217,145,232
8770.932999999999,363,299,307,333,-15012,3328,5472,217,145,232
8782.192000000001,366,300,308,332,-14972,3760,5448,239,-81,635
8784.83,368,300,308,331,-14972,3760,5448,239,-81,635
8793.211,370,300,309,331,-14972,3760,5448,239,-81,635
8793.211,372,301,311,331,-14972,3760,5448,239,-81,635
8804.434000000001,373,300,312,330,-14972,3760,5448,239,-81,635
8812.489,374,300,313,329,-14972,3760,5448,239,-81,635
8815.31,374,300,315,330,-14972,3760,5448,239,-81,635
8815.31,375,300,316,329,-15012,4208,5728,264,-160,572
8826.895999999999,373,300,317,328,-15012,4208,5728,264,-160,572
8830.551,371,300,317,328,-15012,4208,5728,264,-160,572
8837.287999999999,370,300,317,328,-15012,4208,5728,264,-160,572
8843.327000000001,368,301,317,327,-15012,4208,5728,264,-160,572
8848.155999999999,368,300,319,326,-15012,4208,5728,264,-160,572
8854.823,366,299,318,325,-15012,4208,5728,264,-160,572
8860.919000000002,364,299,318,323,-14868,4624,5704,310,-226,371
8869.844000000001,362,298,318,323,-14868,4624,5704,310,-226,371
8870.419,359,298,317,323,-14868,4624,5704,310,-226,371
8881.736,357,299,317,322,-14868,4624,5704,310,-226,371
8881.736,356,298,317,321,-14868,4624,5704,310,-226,371
8893.061,354,299,317,321,-14868,4624,5704,310,-226,371
8896.044,353,298,316,320,-14868,4624,5704,310,-226,371
8905.607,350,299,313,320,-14856,4528,5732,17,-278,15
8905.607,348,299,312,319,-14856,4528,5732,17,-278,15
8915.331999999999,348,298,311,320,-14856,4528,5732,17,-278,15
8923.389000000001,353,299,310,320,-14856,4528,5732,17,-278,15
8927.084,365,298,309,319,-14856,4528,5732,17,-278,15
8927.084,378,299,308,319,-14856,4528,5732,17,-278,15
8937.828,397,299,309,320,-14856,4528,5732,17,-278,15
8941.003,413,299,308,320,-14840,4376,5964,-69,-337,-102
8948.441,434,299,308,321,-14840,4376,5964,-69,-337,-102
8953.125999999998,446,300,308,321,-14840,4376,5964,-69,-337,-102
8959.93,459,300,308,322,-14840,4376,5964,-69,-337,-102
8965.564,469,300,307,322,-14840,4376,5964,-69,-337,-102
8970.383,475,300,309,322,-14840,4376,5964,-69,-337,-102
8977.653,478,299,308,322,-14872,4188,5876,-93,-274,-35
8982.288999999999,477,300,307,323,-14872,4188,5876,-93,-274,-35
8992.762,474,300,307,323,-14872,4188,5876,-93,-274,-35
8994.396999999999,469,300,306,324,-14872,4188,5876,-93,-274,-35
9004.304,463,300,305,324,-14872,4188,5876,-93,-274,-35
9004.304,458,300,304,324,-14872,4188,5876,-93,-274,-35
9015.535,452,300,304,325,-14872,4188,5876,-93,-274,-35
9015.535,446,300,303,325,-14820,4296,5948,-78,-191,27
9025.9,437,300,302,325,-14820,4296,5948,-78,-191,27
9030.026,431,300,302,326,-14820,4296,5948,-78,-191,27
9037.702,420,300,302,326,-14820,4296,5948,-78,-191,27
9045.795,408,300,299,325,-14820,4296,5948,-78,-191,27
9048.635,399,300,298,325,-14820,4296,5948,-78,-191,27
9056.657,387,299,297,326,-14820,4296,5948,-78,-191,27
9059.766,375,299,295,326,-14856,4256,5984,124,-181,-96
9059.766,366,299,293,325,-14856,4256,5984,124,-181,-96
9070.978000000001,356,299,292,325,-14856,4256,5984,124,-181,-96
9076.561,349,299,291,324,-14856,4256,5984,124,-181,-96
9081.849,339,298,289,324,-14856,4256,5984,124,-181,-96
9089.014000000001,332,298,287,324,-14856,4256,5984,124,-181,-96
9093.396,323,298,284,325,-14856,4256,5984,124,-181,-96
9101.110999999999,315,297,282,324,-14816,4204,6004,62,-178,-160
9105.525,306,296,279,323,-14816,4204,6004,62,-178,-160
9115.973,299,295,278,324,-14816,4204,6004,62,-178,-160
9116.64,291,295,276,324,-14816,4204,6004,62,-178,-160
9126.195,286,295,275,323,-14816,4204,6004,62,-178,-160
9126.195,278,296,275,323,-14816,4204,6004,62,-178,-160
9137.981,274,294,275,324,-14816,4204,6004,62,-178,-160
9142.015000000001,269,294,274,323,-14848,4132,6008,39,-53,-57
9148.966,265,293,275,322,-14848,4132,6008,39,-53,-57
9150.374,262,293,275,323,-14848,4132,6008,39,-53,-57
9160.049,258,292,275,322,-14848,4132,6008,39,-53,-57
9160.049,252,293,275,322,-14848,4132,6008,39,-53,-57
9171.087,248,292,275,321,-14848,4132,6008,39,-53,-57
9174.715,242,292,276,321,-14848,4132,6008,39,-53,-57
9183.345,237,292,276,321,-14792,4200,6076,42,-47,-12
9183.345,230,292,276,320,-14792,4200,6076,42,-47,-12
9193.204,225,291,276,320,-14792,4200,6076,42,-47,-12
9201.306,219,292,277,319,-14792,4200,6076,42,-47,-12
9204.352,212,292,277,318,-14792,4200,6076,42,-47,-12
9213.397,204,292,278,319,-14792,4200,6076,42,-47,-12
9215.501,197,293,277,319,-14792,4200,6076,42,-47,-12
9220.127,190,293,277,318,-14912,4012,6004,-139,108,-8
9227.325,186,293,278,318,-14912,4012,6004,-139,108,-8
9231.804,183,293,279,318,-14912,4012,6004,-139,108,-8
9237.027,181,294,279,318,-14912,4012,6004,-139,108,-8
9244.326,180,294,280,318,-14912,4012,6004,-139,108,-8
9248.911,179,294,282,318,-14912,4012,6004,-139,108,-8
9252.202000000001,180,295,284,318,-14912,4012,6004,-139,108,-8
9259.957999999999,181,295,284,317,-14792,4176,6116,39,284,160
9259.957999999999,183,295,287,316,-14792,4176,6116,39,284,160
9271.046999999999,185,294,288,316,-14792,4176,6116,39,284,160
9278.527,189,294,289,316,-14792,4176,6116,39,284,160
9282.085000000001,192,295,290,316,-14792,4176,6116,39,284,160
9292.460000000001,195,295,292,316,-14792,4176,6116,39,284,160
9293.716,198,294,294,315,-14792,4176,6116,39,284,160
9304.199999999999,202,295,295,315,-14848,4216,5836,78,356,106
9304.392,206,295,297,314,-14848,4216,5836,78,356,106
9311.548,210,294,298,316,-14848,4216,5836,78,356,106
9315.538,214,294,299,315,-14848,4216,5836,78,356,106
9322.488,217,294,300,314,-14848,4216,5836,78,356,106
9326.874,221,294,302,314,-14848,4216,5836,78,356,106
9336.866,223,294,303,314,-14848,4216,5836,78,356,106
9337.51,227,294,304,314,-14880,4276,5728,55,377,58
9348.815999999999,231,294,305,313,-14880,4276,5728,55,377,58
9348.815999999999,234,294,306,313,-14880,4276,5728,55,377,58
9355.243,237,294,307,313,-14880,4276,5728,55,377,58
9359.968,241,295,308,312,-14880,4276,5728,55,377,58
9367.489000000001,244,294,308,312,-14880,4276,5728,55,377,58
9371.48,249,295,308,312,-14880,4276,5728,55,377,58
9381.538,251,295,308,313,-14936,4180,5496,-103,184,8
9381.538,256,296,308,312,-14936,4180,5496,-103,184,8
9393.121000000001,259,296,308,312,-14936,4180,5496,-103,184,8
9393.121000000001,263,296,308,312,-14936,4180,5496,-103,184,8
9400.155,266,296,308,311,-14936,4180,5496,-103,184,8
9404.534,269,296,307,312,-14936,4180,5496,-103,184,8
9414.666000000001,273,296,306,312,-14936,4180,5496,-103,184,8
9415.324999999999,276,297,305,312,-14828,4152,5632,-30,-41,92
9426.378,279,298,303,311,-14828,4152,5632,-30,-41,92
9426.378,281,297,302,312,-14828,4152,5632,-30,-41,92
9437.791000000001,284,297,301,312,-14828,4152,5632,-30,-41,92
9440.92,286,298,300,311,-14828,4152,5632,-30,-41,92
9448.002,288,298,300,311,-14828,4152,5632,-30,-41,92
9449.85,291,297,299,312,-14828,4152,5632,-30,-41,92
9459.759,292,297,299,312,-14828,4152,5632,-30,-41,92
9460.381,294,297,298,312,-14768,4340,5828,50,-137,136
9470.832,296,297,299,312,-14768,4340,5828,50,-137,136
9470.832,298,296,299,312,-14768,4340,5828,50,-137,136
9482.563,300,296,299,312,-14768,4340,5828,50,-137,136
9482.563,301,296,298,311,-14768,4340,5828,50,-137,136
9493.319,303,296,299,312,-14768,4340,5828,50,-137,136
9498.324,304,296,299,312,-14768,4340,5828,50,-137,136
9503.774,304,296,299,312,-14868,4392,6024,135,-64,-2
9503.774,305,296,299,312,-14868,4392,6024,135,-64,-2
9515.394,306,297,300,311,-14868,4392,6024,135,-64,-2
9515.394,307,297,300,312,-14868,4392,6024,135,-64,-2
9526.859,307,297,300,312,-14868,4392,6024,135,-64,-2
9526.859,309,296,301,312,-14868,4392,6024,135,-64,-2
9541.156,310,297,301,312,-14868,4392,6024,135,-64,-2
9543.266,311,297,301,311,-14868,4332,6008,92,96,-44
9548.413,311,297,302,311,-14868,4332,6008,92,96,-44
9548.413,312,298,303,311,-14868,4332,6008,92,96,-44
9559.938,313,298,305,311,-14868,4332,6008,92,96,-44
9559.938,314,298,306,311,-14868,4332,6008,92,96,-44
9571.236,314,298,308,311,-14868,4332,6008,92,96,-44
9577.085000000001,315,298,309,312,-14868,4332,6008,92,96,-44
9581.493,317,298,310,311,-14880,4188,5728,-77,95,-11
9584.218,318,298,312,312,-14880,4188,5728,-77,95,-11
9593.078,318,299,313,312,-14880,4188,5728,-77,95,-11
9593.078,320,298,315,312,-14880,4188,5728,-77,95,-11
9604.765000000001,321,299,315,312,-14880,4188,5728,-77,95,-11
9604.765000000001,322,298,316,313,-14880,4188,5728,-77,95,-11
9619.109999999999,323,298,317,313,-14880,4188,5728,-77,95,-11
9623.336,322,298,318,312,-14880,4248,5676,-134,-13,102
9631.757,323,298,319,312,-14880,4248,5676,-134,-13,102
9635.898,323,298,319,312,-14880,4248,5676,-134,-13,102
9640.333,323,299,320,312,-14880,4248,5676,-134,-13,102
9641.341,323,299,319,311,-14880,4248,5676,-134,-13,102
9650.003,322,299,318,312,-14880,4248,5676,-134,-13,102
9659.32,323,299,318,313,-14880,4248,5676,-134,-13,102
9661.721,323,300,317,312,-14852,4208,5684,-20,-164,135
9670.232,323,299,316,312,-14852,4208,5684,-20,-164,135
9673.7,323,300,314,312,-14852,4208,5684,-20,-164,135
9673.7,322,300,312,312,-14852,4208,5684,-20,-164,135
9682.926,322,299,310,312,-14852,4208,5684,-20,-164,135
9693.17,322,300,307,313,-14852,4208,5684,-20,-164,135
9693.17,321,300,305,313,-14852,4208,5684,-20,-164,135
9704.378999999999,321,300,304,312,-14968,4364,5844,-19,-171,140
9712.456,320,299,302,312,-14968,4364,5844,-19,-171,140
9715.287,320,299,301,312,-14968,4364,5844,-19,-171,140
9719.644,319,299,301,312,-14968,4364,5844,-19,-171,140
9726.293,318,299,300,311,-14968,4364,5844,-19,-171,140
9732.388,317,299,300,312,-14968,4364,5844,-19,-171,140
9736.991,315,300,300,311,-14776,4336,5884,-95,-211,249
9736.991,315,299,301,309,-14776,4336,5884,-95,-211,249
9748.888,314,299,300,311,-14776,4336,5884,-95,-211,249
9758.789,312,298,301,310,-14776,4336,5884,-95,-211,249
9759.578,313,299,301,310,-14776,4336,5884,-95,-211,249
9770.609,311,298,301,309,-14776,4336,5884,-95,-211,249
9770.609,310,298,301,309,-14776,4336,5884,-95,-211,249
9782.047,311,297,302,309,-14860,4436,6140,-72,-65,200
9787.643,311,297,302,309,-14860,4436,6140,-72,-65,200
9793.065999999999,312,297,303,310,-14860,4436,6140,-72,-65,200
9793.065999999999,312,296,303,310,-14860,4436,6140,-72,-65,200
9804.244999999999,313,296,303,310,-14860,4436,6140,-72,-65,200
9812.344,312,296,303,310,-14860,4436,6140,-72,-65,200
9815.573,313,295,303,310,-14860,4436,6140,-72,-65,200
9823.969,312,295,303,310,-14820,4340,5924,42,155,-74
9826.613,313,295,304,308,-14820,4340,5924,42,155,-74
9826.613,314,295,304,309,-14820,4340,5924,42,155,-74
9837.538999999999,314,294,305,309,-14820,4340,5924,42,155,-74
9842.523,314,295,305,310,-14820,4340,5924,42,155,-74
9849.38,314,295,306,310,-14820,4340,5924,42,155,-74
9854.223,316,295,306,310,-14820,4340,5924,42,155,-74
9859.235999999999,322,295,307,310,-14820,4332,5636,-31,55,-143
9862.591,341,295,307,310,-14820,4332,5636,-31,55,-143
9871.283,357,295,309,310,-14820,4332,5636,-31,55,-143
9881.48,378,296,309,311,-14820,4332,5636,-31,55,-143
9882.996000000001,394,296,310,311,-14820,4332,5636,-31,55,-143
9887.556999999999,414,296,311,310,-14820,4332,5636,-31,55,-143
9893.288999999999,429,298,311,311,-14820,4332,5636,-31,55,-143
9899.337,441,298,312,311,-14756,4304,5664,54,-149,189
9903.708999999999,450,298,311,311,-14756,4304,5664,54,-149,189
9911.439,452,298,311,311,-14756,4304,5664,54,-149,189
9915.735,452,299,311,311,-14756,4304,5664,54,-149,189
9926.876999999999,448,299,311,311,-14756,4304,5664,54,-149,189
9928.113,444,299,310,311,-14756,4304,5664,54,-149,189
9936.805,435,299,310,311,-14756,4304,5664,54,-149,189
9940.041000000001,428,299,310,310,-14872,4360,5864,-75,-273,150
9949.367,420,299,308,310,-14872,4360,5864,-75,-273,150
9949.367,412,299,307,311,-14872,4360,5864,-75,-273,150
9959.872000000001,405,299,307,311,-14872,4360,5864,-75,-273,150
9959.872000000001,396,299,306,311,-14872,4360,5864,-75,-273,150
9971.124,386,299,306,311,-14872,4360,5864,-75,-273,150
9979.45,376,299,306,310,-14872,4360,5864,-75,-273,150
9982.332,364,299,304,310,-14804,4600,5956,20,-168,-32
9985.18,353,299,302,310,-14804,4600,5956,20,-168,-32
9993.473,343,299,300,311,-14804,4600,5956,20,-168,-32
9997.362000000001,336,299,300,310,-14804,4600,5956,20,-168,-32
10003.996000000001,330,299,299,310,-14804,4600,5956,20,-168,-32
10009.753999999999,325,300,300,309,-14804,4600,5956,20,-168,-32
10014.822,321,299,299,310,-14804,4600,5956,20,-168,-32
10022.083999999999,318,300,298,310,-14784,4240,5968,-76,-157,-145
10026.673,313,300,296,311,-14784,4240,5968,-76,-157,-145
10037.792,310,300,296,311,-14784,4240,5968,-76,-157,-145
10037.792,307,301,296,311,-14784,4240,5968,-76,-157,-145
10049.456,305,301,296,310,-14784,4240,5968,-76,-157,-145
10054.085000000001,304,301,297,311,-14784,4240,5968,-76,-157,-145
10061.572,304,301,297,311,-14784,4240,5968,-76,-157,-145
10065.701000000001,303,302,297,311,-14752,4272,6076,-27,-109,93
10073.314,304,302,298,311,-14752,4272,6076,-27,-109,93
10074.328,304,302,298,311,-14752,4272,6076,-27,-109,93
10082.048999999999,305,303,298,311,-14752,4272,6076,-27,-109,93
10090.127,305,302,298,310,-14752,4272,6076,-27,-109,93
10093.68,302,302,298,311,-14752,4272,6076,-27,-109,93
10095.601,301,302,298,311,-14752,4272,6076,-27,-109,93
10104.166,297,302,298,311,-14808,4468,6172,186,-20,99
10104.166,294,302,298,311,-14808,4468,6172,186,-20,99
10115.73,291,302,298,311,-14808,4468,6172,186,-20,99
10115.73,290,302,299,310,-14808,4468,6172,186,-20,99
10126.514000000001,288,302,298,310,-14808,4468,6172,186,-20,99
10134.829,288,302,298,311,-14808,4468,6172,186,-20,99
10137.184,287,302,298,309,-14808,4468,6172,186,-20,99
10141.554,285,302,298,309,-14816,4648,5952,191,120,-19
10148.281,283,302,298,310,-14816,4648,5952,191,120,-19
10159.615,281,302,299,309,-14816,4648,5952,191,120,-19
10161.348,278,302,299,309,-14816,4648,5952,191,120,-19
10169.470000000001,275,303,298,309,-14816,4648,5952,191,120,-19
10171.692000000001,272,302,298,309,-14816,4648,5952,191,120,-19
10178.331,267,302,297,309,-14816,4648,5952,191,120,-19
10182.579,263,302,297,308,-14728,4472,6076,56,181,-46
10193.171,255,303,295,308,-14728,4472,6076,56,181,-46
10193.709,251,303,295,308,-14728,4472,6076,56,181,-46
10203.768,243,304,294,307,-14728,4472,6076,56,181,-46
10203.768,233,303,293,307,-14728,4472,6076,56,181,-46
10211.539,223,303,293,307,-14728,4472,6076,56,181,-46
10215.484999999999,214,303,292,307,-14728,4472,6076,56,181,-46
10223.488,207,303,292,307,-14800,4304,5824,-25,147,-88
10227.786,201,302,291,307,-14800,4304,5824,-25,147,-88
10237.557,196,302,292,306,-14800,4304,5824,-25,147,-88
10237.557,192,302,291,306,-14800,4304,5824,-25,147,-88
10248.623,189,301,291,306,-14800,4304,5824,-25,147,-88
10248.623,188,301,291,307,-14800,4304,5824,-25,147,-88
10259.92,187,300,292,306,-14800,4304,5824,-25,147,-88
10264.462,188,300,292,306,-14884,4196,5576,-85,76,-4
10270.663,189,299,293,306,-14884,4196,5576,-85,76,-4
10270.663,189,299,294,306,-14884,4196,5576,-85,76,-4
10282.034,191,299,295,306,-14884,4196,5576,-85,76,-4
10282.034,193,299,295,306,-14884,4196,5576,-85,76,-4
10293.977,196,299,296,306,-14884,4196,5576,-85,76,-4
10293.977,200,300,297,307,-14884,4196,5576,-85,76,-4
10303.598,202,299,297,306,-14868,4120,5644,66,-126,89
10304.252999999999,207,299,298,306,-14868,4120,5644,66,-126,89
10315.835,211,300,298,306,-14868,4120,5644,66,-126,89
10323.938999999998,214,300,299,306,-14868,4120,5644,66,-126,89
10326.494999999999,218,301,300,306,-14868,4120,5644,66,-126,89
10326.494999999999,222,300,300,306,-14868,4120,5644,66,-126,89
10337.71,227,301,301,307,-14868,4120,5644,66,-126,89
10342.33,232,301,301,307,-14744,4392,5860,104,-296,124
10348.553,236,301,301,306,-14744,4392,5860,104,-296,124
10353.847,240,300,300,307,-14744,4392,5860,104,-296,124
10359.137,244,301,301,306,-14744,4392,5860,104,-296,124
10362.171,248,301,300,306,-14744,4392,5860,104,-296,124
10371.684,252,301,300,306,-14744,4392,5860,104,-296,124
10381.344000000001,256,301,300,306,-14744,4392,5860,104,-296,124
10381.964999999998,259,301,299,306,-14768,4528,6104,41,-191,118
10393.981,263,301,299,306,-14768,4528,6104,41,-191,118
10393.981,267,302,299,306,-14768,4528,6104,41,-191,118
10398.791,270,302,299,306,-14768,4528,6104,41,-191,118
10403.672999999999,272,303,299,306,-14768,4528,6104,41,-191,118
10415.391,276,303,299,306,-14768,4528,6104,41,-191,118
10416.238,278,303,300,305,-14768,4528,6104,41,-191,118
10425.973,282,303,299,306,-14772,4704,6064,10,-96,19
10425.973,285,303,299,306,-14772,4704,6064,10,-96,19
10438.974999999999,287,303,299,306,-14772,4704,6064,10,-96,19
10438.974999999999,289,303,299,305,-14772,4704,6064,10,-96,19
10443.74,291,303,300,305,-14772,4704,6064,10,-96,19
10448.285,292,302,299,305,-14772,4704,6064,10,-96,19
10456.715,295,302,299,306,-14772,4704,6064,10,-96,19
10461.291,296,303,298,306,-14768,4608,5760,-218,-13,-227
10471.144,299,303,298,306,-14768,4608,5760,-218,-13,-227
10471.144,301,303,299,306,-14768,4608,5760,-218,-13,-227
10482.454,304,303,298,306,-14768,4608,5760,-218,-13,-227
10485.563,306,303,299,307,-14768,4608,5760,-218,-13,-227
10494.244999999999,308,303,300,307,-14768,4608,5760,-218,-13,-227
10497.223,310,304,300,307,-14768,4608,5760,-218,-13,-227
10503.978,313,304,300,307,-14828,4520,5856,-483,-104,-487
10510.043,315,304,300,306,-14828,4520,5856,-483,-104,-487
10514.8,318,304,301,308,-14828,4520,5856,-483,-104,-487
10521.827,318,304,301,307,-14828,4520,5856,-483,-104,-487
10526.594,320,304,301,308,-14828,4520,5856,-483,-104,-487
10536.994,320,304,303,308,-14828,4520,5856,-483,-104,-487
10537.764,321,304,303,308,-14708,4168,6024,-674,-163,-320
10549.778999999999,322,303,304,308,-14708,4168,6024,-674,-163,-320
10551.179,322,303,304,308,-14708,4168,6024,-674,-163,-320
10560.018,324,303,305,309,-14708,4168,6024,-674,-163,-320
10570.284,323,302,305,308,-14708,4168,6024,-674,-163,-320
10571.683,323,301,306,308,-14708,4168,6024,-674,-163,-320
10581.925,322,302,307,308,-14708,4168,6024,-674,-163,-320
10581.925,321,301,308,308,-14780,4120,6192,-637,-106,-39
10594.201,321,301,309,307,-14780,4120,6192,-637,-106,-39
10594.201,320,301,310,308,-14780,4120,6192,-637,-106,-39
10604.34,320,301,310,307,-14780,4120,6192,-637,-106,-39
10608.479000000001,320,300,311,307,-14780,4120,6192,-637,-106,-39
10615.766000000001,319,300,311,307,-14780,4120,6192,-637,-106,-39
10619.903,319,301,311,307,-14780,4120,6192,-637,-106,-39
10631.098,319,301,311,307,-14744,4124,6180,-224,-4,406
10635.265000000001,318,300,311,307,-14744,4124,6180,-224,-4,406
10639.744,318,301,311,306,-14744,4124,6180,-224,-4,406
10647.862,318,300,310,306,-14744,4124,6180,-224,-4,406
10651.037,318,300,310,306,-14744,4124,6180,-224,-4,406
10659.689999999999,318,299,310,305,-14744,4124,6180,-224,-4,406
10660.443000000001,316,300,309,305,-14820,4292,6072,-113,55,349
10665.074,317,300,309,305,-14820,4292,6072,-113,55,349
10670.632,317,300,309,305,-14820,4292,6072,-113,55,349
10677.553,316,300,309,305,-14820,4292,6072,-113,55,349
10682.579,316,300,309,304,-14820,4292,6072,-113,55,349
10692.868,316,300,309,304,-14820,4292,6072,-113,55,349
10694.110999999999,318,300,309,304,-14820,4292,6072,-113,55,349
10704.077,318,301,309,304,-14668,4468,6020,-76,94,299
10704.077,317,301,308,304,-14668,4468,6020,-76,94,299
10715.915,317,301,308,304,-14668,4468,6020,-76,94,299
10715.915,317,301,308,305,-14668,4468,6020,-76,94,299
10723.029,317,301,307,304,-14668,4468,6020,-76,94,299
10726.946,318,301,306,304,-14668,4468,6020,-76,94,299
10737.532,319,301,305,305,-14668,4468,6020,-76,94,299
10737.532,319,301,305,304,-14668,4468,6020,-76,94,299
10749.33,318,302,304,304,-14868,4600,5944,121,119,135
10749.33,318,302,303,304,-14868,4600,5944,121,119,135
10760.024,319,302,303,305,-14868,4600,5944,121,119,135
10763.887,319,303,303,304,-14868,4600,5944,121,119,135
10772.331,320,303,303,304,-14868,4600,5944,121,119,135
10772.331,320,303,304,305,-14868,4600,5944,121,119,135
10782.225,319,303,304,305,-14868,4600,5944,121,119,135
10790.305,320,304,303,304,-14704,4492,5912,320,111,175
10794.359999999999,320,304,303,304,-14704,4492,5912,320,111,175
10794.359999999999,320,305,303,305,-14704,4492,5912,320,111,175
10804.341,320,305,301,305,-14704,4492,5912,320,111,175
10809.143,320,305,300,305,-14704,4492,5912,320,111,175
10814.893,322,305,299,305,-14704,4492,5912,320,111,175
10820.685,321,305,299,305,-14704,4660,5800,524,-83,239
10825.883,322,306,298,305,-14704,4660,5800,524,-83,239
10833.807,322,306,297,305,-14704,4660,5800,524,-83,239
10837.521999999999,321,305,295,305,-14704,4660,5800,524,-83,239
10848.097,321,305,294,305,-14704,4660,5800,524,-83,239
10849.38,320,305,293,305,-14704,4660,5800,524,-83,239
10859.268,321,305,293,305,-14704,4660,5800,524,-83,239
10861.738000000001,320,305,293,306,-14836,4632,5584,151,-149,-22
10861.738000000001,320,305,293,305,-14836,4632,5584,151,-149,-22
10870.564,318,304,294,305,-14836,4632,5584,151,-149,-22
10881.408000000001,316,304,296,304,-14836,4632,5584,151,-149,-22
10882.087,316,304,296,305,-14836,4632,5584,151,-149,-22
10893.322,315,304,297,306,-14836,4632,5584,151,-149,-22
10894.327000000001,315,304,299,305,-14836,4632,5584,151,-149,-22
10904.413,316,304,300,305,-14668,4472,5588,-107,-373,64
10909.425000000001,316,304,301,306,-14668,4472,5588,-107,-373,64
10915.195000000002,316,304,301,307,-14668,4472,5588,-107,-373,64
10918.962000000001,315,304,302,307,-14668,4472,5588,-107,-373,64
10926.297,316,304,302,307,-14668,4472,5588,-107,-373,64
10931.378,316,305,302,308,-14668,4472,5588,-107,-373,64
10937.625,316,305,302,308,-14668,4472,5588,-107,-373,64
10943.718,317,306,301,308,-14724,4492,5808,44,-747,32
10948.134,316,308,301,309,-14724,4492,5808,44,-747,32
10952.089,316,309,301,310,-14724,4492,5808,44,-747,32
10960.068,316,310,300,311,-14724,4492,5808,44,-747,32
10970.707,316,311,300,311,-14724,4492,5808,44,-747,32
10971.278999999999,315,311,301,312,-14724,4492,5808,44,-747,32
10977.257,315,312,301,313,-14724,4492,5808,44,-747,32
10981.970000000001,315,312,300,312,-14712,4432,6036,195,-756,20
10988.939,314,313,299,313,-14712,4432,6036,195,-756,20
10994.431999999999,313,314,297,314,-14712,4432,6036,195,-756,20
11003.598,313,314,296,315,-14712,4432,6036,195,-756,20
11004.339,312,314,293,315,-14712,4432,6036,195,-756,20
11014.798,312,314,292,316,-14712,4432,6036,195,-756,20
11017.375,310,314,290,316,-14712,4432,6036,195,-756,20
11025.838,311,314,288,316,-14644,4392,6124,224,-867,198
11029.76,311,314,286,317,-14644,4392,6124,224,-867,198
11029.76,311,314,284,318,-14644,4392,6124,224,-867,198
11037.362,312,315,282,319,-14644,4392,6124,224,-867,198
11048.701,310,315,280,320,-14644,4392,6124,224,-867,198
11056.876,311,314,278,321,-14644,4392,6124,224,-867,198
11059.865,311,313,277,321,-14644,4392,6124,224,-867,198
11069.305999999999,312,313,276,321,-14568,4568,6284,-121,-859,244
11072.575,312,312,274,320,-14568,4568,6284,-121,-859,244
11075.416000000001,310,313,274,322,-14568,4568,6284,-121,-859,244
11082.292000000001,307,313,273,324,-14568,4568,6284,-121,-859,244
11092.57,303,313,273,326,-14568,4568,6284,-121,-859,244
11095.262,301,313,273,329,-14568,4568,6284,-121,-859,244
11105.469,298,313,272,332,-14568,4568,6284,-121,-859,244
11105.469,295,312,272,334,-14564,5284,6764,-221,-757,-117
11115.776,294,311,272,337,-14564,5284,6764,-221,-757,-117
11120.435000000001,291,311,271,338,-14564,5284,6764,-221,-757,-117
11126.386999999999,289,310,271,338,-14564,5284,6764,-221,-757,-117
11131.894,287,310,271,339,-14564,5284,6764,-221,-757,-117
11137.061,285,309,271,339,-14564,5284,6764,-221,-757,-117
11144.16,284,308,271,338,-14524,5040,6788,41,-241,-364
11148.141000000001,284,307,271,337,-14524,5040,6788,41,-241,-364
11160.097,285,307,271,337,-14524,5040,6788,41,-241,-364
11160.097,286,307,270,335,-14524,5040,6788,41,-241,-364
11171.307,288,307,271,334,-14524,5040,6788,41,-241,-364
11171.307,289,307,270,333,-14524,5040,6788,41,-241,-364
11183.967,289,306,270,332,-14524,5040,6788,41,-241,-364
11185.551,291,307,270,330,-14496,4548,6572,114,33,-390
11185.551,292,306,272,330,-14496,4548,6572,114,33,-390
11194.716,293,306,273,328,-14496,4548,6572,114,33,-390
11204.292000000001,294,305,275,325,-14496,4548,6572,114,33,-390
11212.414,296,304,275,324,-14496,4548,6572,114,33,-390
11215.377999999999,296,304,276,323,-14496,4548,6572,114,33,-390
11218.215,298,304,277,321,-14496,4548,6572,114,33,-390
11226.152,299,304,278,320,-14560,4268,6304,45,210,-400
11234.166,302,304,280,318,-14560,4268,6304,45,210,-400
11240.822,304,304,281,318,-14560,4268,6304,45,210,-400
11245.231,307,303,282,316,-14560,4268,6304,45,210,-400
11252.878,308,303,284,315,-14560,4268,6304,45,210,-400
11257.462,311,303,285,314,-14560,4268,6304,45,210,-400
11259.788,313,304,286,313,-14560,4268,6304,45,210,-400
11263.33,314,304,287,311,-14664,3928,5872,65,109,-64
11271.172999999999,316,304,289,311,-14664,3928,5872,65,109,-64
11271.172999999999,317,304,290,310,-14664,3928,5872,65,109,-64
11282.645,318,304,292,309,-14664,3928,5872,65,109,-64
11288.646,319,303,294,307,-14664,3928,5872,65,109,-64
11294.938,320,302,296,307,-14664,3928,5872,65,109,-64
11301.514,322,302,299,306,-14664,3928,5872,65,109,-64
11304.516,321,302,300,305,-14736,3492,4984,54,-36,714
11315.448,322,302,303,304,-14736,3492,4984,54,-36,714
11315.448,322,302,305,304,-14736,3492,4984,54,-36,714
11321.068000000001,322,301,307,303,-14736,3492,4984,54,-36,714
11325.905999999999,322,301,307,302,-14736,3492,4984,54,-36,714
11332.901,322,301,311,302,-14736,3492,4984,54,-36,714
11337.797,322,300,314,302,-14736,3492,4984,54,-36,714
11348.0,320,300,316,301,-14636,3096,5160,409,-811,2611
11348.713,318,300,320,302,-14636,3096,5160,409,-811,2611
11359.788999999999,316,300,322,303,-14636,3096,5160,409,-811,2611
11359.788999999999,313,299,325,303,-14636,3096,5160,409,-811,2611
11371.002,309,298,327,304,-14636,3096,5160,409,-811,2611
11374.432,303,298,329,305,-14636,3096,5160,409,-811,2611
11383.775,297,297,330,306,-14636,3096,5160,409,-811,2611
11383.775,289,297,331,306,-14760,1012,4292,-1379,-1614,4967
11394.859999999999,279,296,329,308,-14760,1012,4292,-1379,-1614,4967
11403.967,270,296,328,310,-14760,1012,4292,-1379,-1614,4967
11403.967,263,296,327,313,-14760,1012,4292,-1379,-1614,4967
11416.953,253,296,326,318,-14760,1012,4292,-1379,-1614,4967
11421.364000000001,244,296,325,322,-14760,1012,4292,-1379,-1614,4967
11429.038,234,296,324,328,-14192,2384,3880,-766,-4436,8392
11433.442,222,292,324,337,-14192,2384,3880,-766,-4436,8392
11439.038999999999,213,290,322,345,-14192,2384,3880,-766,-4436,8392
11443.789999999999,205,289,319,350,-14192,2384,3880,-766,-4436,8392
11448.16,199,287,316,355,-14192,2384,3880,-766,-4436,8392
11459.863000000001,197,286,317,362,-14192,2384,3880,-766,-4436,8392
11460.528,198,285,316,365,-13964,1488,4672,3142,-5064,11549
11471.07,204,284,314,370,-13964,1488,4672,3142,-5064,11549
11479.153,210,283,310,373,-13964,1488,4672,3142,-5064,11549
11482.007,219,284,310,375,-13964,1488,4672,3142,-5064,11549
11488.966,235,287,310,378,-13964,1488,4672,3142,-5064,11549
11494.87,270,293,312,381,-13964,1488,4672,3142,-5064,11549
11500.799,311,299,312,381,-13964,1488,4672,3142,-5064,11549
11504.938,353,305,314,382,-11932,6704,4148,5661,-10732,12007
11515.347,403,314,316,381,-11932,6704,4148,5661,-10732,12007
11524.107,430,319,317,380,-11932,6704,4148,5661,-10732,12007
11526.613,463,324,318,377,-11932,6704,4148,5661,-10732,12007
11534.149,485,326,320,374,-11932,6704,4148,5661,-10732,12007
11537.677,505,326,322,368,-11932,6704,4148,5661,-10732,12007
11549.226,516,325,323,362,-10860,5908,7636,1544,-9448,14181
11551.094000000001,524,322,327,354,-10860,5908,7636,1544,-9448,14181
11559.536,525,321,328,347,-10860,5908,7636,1544,-9448,14181
11566.257,523,320,330,337,-10860,5908,7636,1544,-9448,14181
11571.109,516,322,331,329,-10860,5908,7636,1544,-9448,14181
11581.437,508,328,333,322,-10860,5908,7636,1544,-9448,14181
11586.113,496,339,335,313,-9116,8652,7272,-562,-9548,14060
11593.197999999999,485,349,337,307,-9116,8652,7272,-562,-9548,14060
11594.712,475,360,338,304,-9116,8652,7272,-562,-9548,14060
11604.564999999999,463,370,338,301,-9116,8652,7272,-562,-9548,14060
11613.688,450,380,338,297,-9116,8652,7272,-562,-9548,14060
11615.52,436,386,335,293,-9116,8652,7272,-562,-9548,14060
11626.414999999999,418,391,332,288,-9116,8652,7272,-562,-9548,14060
11634.426,398,394,331,284,-8128,8924,9024,-6653,-9415,14711
11639.059,373,394,330,280,-8128,8924,9024,-6653,-9415,14711
11639.960000000001,352,393,330,276,-8128,8924,9024,-6653,-9415,14711
11648.395,329,390,328,271,-8128,8924,9024,-6653,-9415,14711
11658.946,313,388,330,269,-8128,8924,9024,-6653,-9415,14711
11660.3,299,389,331,267,-8128,8924,9024,-6653,-9415,14711
11670.921999999999,287,393,333,265,-5988,11476,11488,-6148,-9348,13184
11670.921999999999,277,399,333,265,-5988,11476,11488,-6148,-9348,13184
11682.257,269,405,331,264,-5988,11476,11488,-6148,-9348,13184
11691.176000000001,262,413,327,263,-5988,11476,11488,-6148,-9348,13184
11695.043,258,420,323,264,-5988,11476,11488,-6148,-9348,13184
11704.152,255,426,320,266,-5988,11476,11488,-6148,-9348,13184
11704.952000000001,253,428,316,264,-5320,8968,10612,-7961,-9535,12425
11715.555999999999,249,429,311,265,-5320,8968,10612,-7961,-9535,12425
11719.427,245,428,307,264,-5320,8968,10612,-7961,-9535,12425
11726.751999999999,236,423,304,262,-5320,8968,10612,-7961,-9535,12425
11737.764000000001,228,416,301,260,-5320,8968,10612,-7961,-9535,12425
11744.446999999998,216,405,295,257,-5320,8968,10612,-7961,-9535,12425
11748.829000000002,206,395,288,253,-3388,13240,12856,-8057,-9045,10229
11757.178,193,380,284,249,-3388,13240,12856,-8057,-9045,10229
11761.665,181,368,281,245,-3388,13240,12856,-8057,-9045,10229
11764.732,168,353,278,241,-3388,13240,12856,-8057,-9045,10229
11771.152,152,333,275,236,-3388,13240,12856,-8057,-9045,10229
11782.379,135,315,271,231,-3388,13240,12856,-8057,-9045,10229
11790.440999999999,122,299,269,227,-3536,13356,15140,-5038,-7787,7121
11793.143,105,280,265,224,-3536,13356,15140,-5038,-7787,7121
11795.158000000001,91,268,262,221,-3536,13356,15140,-5038,-7787,7121
11804.689,80,256,258,221,-3536,13356,15140,-5038,-7787,7121
11814.848,73,248,255,221,-3536,13356,15140,-5038,-7787,7121
11815.628999999999,68,242,250,224,-3536,13356,15140,-5038,-7787,7121
11826.469,65,239,247,229,-3648,11400,12988,-3014,-6343,4765
11834.844000000001,64,246,242,234,-3648,11400,12988,-3014,-6343,4765
11837.68,64,249,236,239,-3648,11400,12988,-3014,-6343,4765
11841.179,66,252,229,244,-3648,11400,12988,-3014,-6343,4765
11848.898000000001,69,256,224,249,-3648,11400,12988,-3014,-6343,4765
11859.895,75,266,220,256,-3648,11400,12988,-3014,-6343,4765
11867.905,80,278,215,260,-3648,11400,12988,-3014,-6343,4765
11871.741,88,288,210,265,-2884,11580,13800,-5432,-5255,3341
11880.186,97,290,207,271,-2884,11580,13800,-5432,-5255,3341
11882.576000000001,106,288,208,275,-2884,11580,13800,-5432,-5255,3341
11892.803,117,293,217,279,-2884,11580,13800,-5432,-5255,3341
11895.319000000001,125,302,224,283,-2884,11580,13800,-5432,-5255,3341
11904.137999999999,134,311,234,285,-2884,11580,13800,-5432,-5255,3341
11913.238,141,314,244,288,-2496,10204,13996,-4336,-4592,2271
11915.350999999999,150,312,259,291,-2496,10204,13996,-4336,-4592,2271
11925.488,157,308,272,293,-2496,10204,13996,-4336,-4592,2271
11926.289,165,306,285,295,-2496,10204,13996,-4336,-4592,2271
11937.22,172,307,296,298,-2496,10204,13996,-4336,-4592,2271
11937.22,180,309,307,299,-2496,10204,13996,-4336,-4592,2271
11948.385999999999,187,309,312,301,-2804,8464,14092,-3703,-3833,1948
11948.385999999999,197,309,312,304,-2804,8464,14092,-3703,-3833,1948
11959.709,205,311,305,305,-2804,8464,14092,-3703,-3833,1948
11970.934,212,313,295,308,-2804,8464,14092,-3703,-3833,1948
11971.218,216,315,280,314,-2804,8464,14092,-3703,-3833,1948
11982.212000000001,217,317,260,318,-2804,8464,14092,-3703,-3833,1948
11990.299,220,314,237,321,-2196,7456,13900,-3211,-3587,2670
11995.189999999999,228,304,209,326,-2196,7456,13900,-3211,-3587,2670
12003.193,237,296,177,330,-2196,7456,13900,-3211,-3587,2670
12004.636,247,290,139,332,-2196,7456,13900,-3211,-3587,2670
12015.078000000001,261,286,94,335,-2196,7456,13900,-3211,-3587,2670
12015.078000000001,273,284,67,336,-2196,7456,13900,-3211,-3587,2670
12027.046,284,284,49,337,-2196,7456,13900,-3211,-3587,2670
12029.818000000001,296,285,36,337,-1492,7760,14036,-2022,-3499,2750
12037.174,307,286,30,337,-1492,7760,14036,-2022,-3499,2750
12041.125,315,289,26,335,-1492,7760,14036,-2022,-3499,2750
12048.498,323,291,24,334,-1492,7760,14036,-2022,-3499,2750
12059.775,333,296,28,335,-1492,7760,14036,-2022,-3499,2750
12061.964,338,299,33,333,-1492,7760,14036,-2022,-3499,2750
12070.501999999999,343,304,41,331,-1416,7684,14268,-2139,-3383,3439
12073.893999999998,345,306,51,330,-1416,7684,14268,-2139,-3383,3439
12081.771,345,310,63,327,-1416,7684,14268,-2139,-3383,3439
12087.755,341,312,77,324,-1416,7684,14268,-2139,-3383,3439
12095.045,336,315,91,321,-1416,7684,14268,-2139,-3383,3439
12100.127,332,317,106,318,-1416,7684,14268,-2139,-3383,3439
12104.710000000001,327,319,121,313,-964,8652,13368,-1667,-3262,3647
12111.753,323,321,135,311,-964,8652,13368,-1667,-3262,3647
12116.306,321,324,152,309,-964,8652,13368,-1667,-3262,3647
12126.465,318,328,170,307,-964,8652,13368,-1667,-3262,3647
12134.633,317,336,196,305,-964,8652,13368,-1667,-3262,3647
12138.208999999999,319,343,218,303,-964,8652,13368,-1667,-3262,3647
12140.027999999998,321,349,242,301,-964,8652,13368,-1667,-3262,3647
12148.412,325,355,267,300,-476,9144,15572,-1862,-3185,3759
12156.014000000001,331,361,294,299,-476,9144,15572,-1862,-3185,3759
12160.453,335,364,316,298,-476,9144,15572,-1862,-3185,3759
12171.062,341,366,340,297,-476,9144,15572,-1862,-3185,3759
12179.449999999999,346,367,362,296,-476,9144,15572,-1862,-3185,3759
12182.176,351,367,383,295,-476,9144,15572,-1862,-3185,3759
12190.25,354,366,398,293,2988,14428,18772,4468,-567,-246
12195.128999999999,358,364,412,292,2988,14428,18772,4468,-567,-246
12203.675000000001,361,361,419,291,2988,14428,18772,4468,-567,-246
12204.611,363,359,426,290,2988,14428,18772,4468,-567,-246
12215.365,366,356,431,289,2988,14428,18772,4468,-567,-246
12215.365,368,352,434,288,2988,14428,18772,4468,-567,-246
12226.958,369,348,433,287,2988,14428,18772,4468,-567,-246
12226.958,371,344,433,286,-740,6684,12292,-60,-596,68
12233.805,373,339,432,288,-740,6684,12292,-60,-596,68
12238.024,374,336,428,287,-740,6684,12292,-60,-596,68
12248.867,376,332,427,287,-740,6684,12292,-60,-596,68
12256.946,377,329,424,289,-740,6684,12292,-60,-596,68
12260.803,378,325,420,290,-740,6684,12292,-60,-596,68
12260.803,379,321,416,291,-740,6684,12292,-60,-596,68
12271.085,380,318,413,291,-116,9300,15792,-1840,151,655
12275.106,380,313,410,294,-116,9300,15792,-1840,151,655
12282.493,379,310,408,294,-116,9300,15792,-1840,151,655
12286.823999999999,380,307,405,294,-116,9300,15792,-1840,151,655
12292.569,381,303,405,295,-116,9300,15792,-1840,151,655
12295.094000000001,380,300,403,295,-116,9300,15792,-1840,151,655
12304.734,380,296,402,295,-116,9300,15792,-1840,151,655
12314.24,379,292,402,297,-164,8336,13692,1019,-318,131
12315.687,379,287,401,298,-164,8336,13692,1019,-318,131
12325.752,378,284,401,298,-164,8336,13692,1019,-318,131
12328.257000000001,378,279,400,300,-164,8336,13692,1019,-318,131
12338.219000000001,378,276,401,302,-164,8336,13692,1019,-318,131
12339.228000000001,377,271,402,304,-164,8336,13692,1019,-318,131
12343.996000000001,375,265,401,305,-92,8256,14008,627,-246,134
12348.519,373,261,401,307,-92,8256,14008,627,-246,134
12359.752,373,258,400,309,-92,8256,14008,627,-246,134
12359.752,374,254,399,310,-92,8256,14008,627,-246,134
12370.742,377,250,399,311,-92,8256,14008,627,-246,134
12370.742,382,247,398,314,-92,8256,14008,627,-246,134
12382.198,386,244,397,316,-92,8256,14008,627,-246,134
12385.726,390,241,397,316,-172,8456,14052,730,-45,-166
12393.62,396,238,396,319,-172,8456,14052,730,-45,-166
12395.105,401,235,395,321,-172,8456,14052,730,-45,-166
12404.285,403,233,393,323,-172,8456,14052,730,-45,-166
12412.367,403,231,392,323,-172,8456,14052,730,-45,-166
12415.236,400,229,392,325,-172,8456,14052,730,-45,-166
12415.236,398,229,391,326,-172,8456,14052,730,-45,-166
12427.182999999999,395,228,391,326,-300,8456,13560,-173,140,-95
12427.182999999999,391,228,390,327,-300,8456,13560,-173,140,-95
12437.588,387,228,390,326,-300,8456,13560,-173,140,-95
12443.405,384,227,389,325,-300,8456,13560,-173,140,-95
12448.123000000001,379,228,389,324,-300,8456,13560,-173,140,-95
12455.199999999999,379,228,388,323,-300,8456,13560,-173,140,-95
12459.832,377,230,389,322,-300,8456,13560,-173,140,-95
12464.010999999999,377,231,389,321,-192,8192,13852,-697,32,36
12471.934,378,232,387,320,-192,8192,13852,-697,32,36
12471.934,379,234,388,320,-192,8192,13852,-697,32,36
12481.365,380,235,386,319,-192,8192,13852,-697,32,36
12487.904999999999,380,236,385,319,-192,8192,13852,-697,32,36
12495.052,381,238,385,319,-192,8192,13852,-697,32,36
12495.052,380,239,383,319,-192,8192,13852,-697,32,36
12504.609,380,240,381,319,-192,8192,13852,-697,32,36
12504.609,379,242,380,319,-116,8412,13696,272,3,-64
12515.221,378,244,378,320,-116,8412,13696,272,3,-64
12521.201,377,245,377,320,-116,8412,13696,272,3,-64
12525.890000000001,377,248,375,320,-116,8412,13696,272,3,-64
12528.752,377,250,373,320,-116,8412,13696,272,3,-64
12538.383,377,251,372,322,-116,8412,13696,272,3,-64
12538.383,376,254,369,321,-116,8412,13696,272,3,-64
12548.771,376,256,367,321,-212,8452,13904,45,43,-105
12553.893,376,259,365,322,-212,8452,13904,45,43,-105
12560.77,376,260,362,323,-212,8452,13904,45,43,-105
12561.894,374,263,360,323,-212,8452,13904,45,43,-105
12571.405,374,264,357,323,-212,8452,13904,45,43,-105
12571.405,372,267,354,323,-212,8452,13904,45,43,-105
12582.129,370,268,353,323,-212,8452,13904,45,43,-105
12586.582,366,271,351,323,-168,8356,13840,216,8,-87
12593.021,362,273,348,323,-168,8356,13840,216,8,-87
12601.044999999998,361,274,347,323,-168,8356,13840,216,8,-87
12604.609999999999,358,275,344,322,-168,8356,13840,216,8,-87
12604.609999999999,355,277,342,322,-168,8356,13840,216,8,-87
12615.416,354,278,341,323,-168,8356,13840,216,8,-87
12619.154999999999,351,280,339,322,-168,8356,13840,216,8,-87
12626.379,347,280,337,322,-168,8356,13840,216,8,-87
12627.725,343,281,335,322,-116,8360,13712,-68,40,-59
12637.818,341,283,333,322,-116,8360,13712,-68,40,-59
12637.818,338,283,331,321,-116,8360,13712,-68,40,-59
12648.827000000001,335,283,330,320,-116,8360,13712,-68,40,-59
12652.039,333,284,328,321,-116,8360,13712,-68,40,-59
12652.039,331,284,327,320,-116,8360,13712,-68,40,-59
12661.263,328,284,325,319,-116,8360,13712,-68,40,-59
12670.495,327,285,324,318,-196,8360,13768,-88,2,29
12671.217999999999,324,285,323,319,-196,8360,13768,-88,2,29
12681.860999999999,323,286,322,318,-196,8360,13768,-88,2,29
12681.860999999999,321,286,320,317,-196,8360,13768,-88,2,29
12689.869,320,286,319,317,-196,8360,13768,-88,2,29
12695.434000000001,318,287,319,317,-196,8360,13768,-88,2,29
12703.289,317,286,317,317,-196,8360,13768,-88,2,29
12703.810000000001,315,286,316,316,-196,8360,13768,-88,2,29
12703.810000000001,314,287,316,315,-116,8556,13776,194,-19,-6
12715.225,312,287,315,316,-116,8556,13776,194,-19,-6
12721.853,311,287,315,315,-116,8556,13776,194,-19,-6
12726.544,311,286,314,314,-116,8556,13776,194,-19,-6
12726.544,310,286,314,315,-116,8556,13776,194,-19,-6
12738.255000000001,311,285,313,314,-116,8556,13776,194,-19,-6
12738.255000000001,312,284,312,313,-116,8556,13776,194,-19,-6
12748.780999999999,313,284,312,313,-184,8492,13880,161,15,-63
12755.175,313,284,312,314,-184,8492,13880,161,15,-63
12759.257,312,283,311,313,-184,8492,13880,161,15,-63
12769.546,312,283,311,312,-184,8492,13880,161,15,-63
12773.355,312,283,312,312,-184,8492,13880,161,15,-63
12777.701000000001,313,282,311,313,-184,8492,13880,161,15,-63
12784.746000000001,313,281,311,311,-184,8492,13880,161,15,-63
12789.509,313,280,311,311,-208,8360,13776,34,-3,-50
12794.1,314,280,310,312,-208,8360,13776,34,-3,-50
12801.646,315,279,310,311,-208,8360,13776,34,-3,-50
12804.251,315,279,310,311,-208,8360,13776,34,-3,-50
12804.251,316,278,310,311,-208,8360,13776,34,-3,-50
12816.784,317,278,310,311,-208,8360,13776,34,-3,-50
12822.693,318,278,309,311,-208,8360,13776,34,-3,-50
12826.28,318,278,309,310,-208,8360,13776,34,-3,-50
12833.833,319,277,310,311,-180,8428,13808,-105,62,-44
12837.044,319,277,310,311,-180,8428,13808,-105,62,-44
12840.128,320,277,310,310,-180,8428,13808,-105,62,-44
12848.516,320,278,310,309,-180,8428,13808,-105,62,-44
12854.746000000001,321,278,310,310,-180,8428,13808,-105,62,-44
12859.538,321,279,310,310,-180,8428,13808,-105,62,-44
12865.016000000001,321,279,310,309,-180,8428,13808,-105,62,-44
12870.386,322,279,309,309,-196,8368,13696,-80,-12,44
12875.633,322,279,309,310,-196,8368,13696,-80,-12,44
12883.509,323,280,309,309,-196,8368,13696,-80,-12,44
12886.032,322,281,309,308,-196,8368,13696,-80,-12,44
12895.512999999999,322,282,309,309,-196,8368,13696,-80,-12,44
12896.539,321,282,308,309,-196,8368,13696,-80,-12,44
12904.163,320,284,307,308,-196,8368,13696,-80,-12,44
12912.394,320,283,308,308,-200,8384,13752,126,-22,-73
12915.256,319,284,307,308,-200,8384,13752,126,-22,-73
12924.447,318,284,308,307,-200,8384,13752,126,-22,-73
12926.629,317,286,307,308,-200,8384,13752,126,-22,-73
12930.975,316,286,306,307,-200,8384,13752,126,-22,-73
12937.924,315,287,306,308,-200,8384,13752,126,-22,-73
12942.741,314,288,305,307,-200,8384,13752,126,-22,-73
12948.161,312,288,305,307,-220,8364,13812,80,0,-61
12950.863,312,289,305,307,-220,8364,13812,80,0,-61
12959.36,310,290,304,307,-220,8364,13812,80,0,-61
12959.36,309,289,304,307,-220,8364,13812,80,0,-61
12967.11,307,290,303,306,-220,8364,13812,80,0,-61
12971.368999999999,305,290,303,307,-220,8364,13812,80,0,-61
12982.14,304,291,303,306,-220,8364,13812,80,0,-61
12982.14,303,291,301,306,-220,8364,13812,80,0,-61
12993.320000000002,302,292,301,307,-168,8380,13664,4,-38,-27
12996.188999999998,302,292,300,307,-168,8380,13664,4,-38,-27
12996.188999999998,299,291,300,306,-168,8380,13664,4,-38,-27
13004.943000000001,299,291,299,306,-168,8380,13664,4,-38,-27
13014.879,296,291,299,307,-168,8380,13664,4,-38,-27
13015.582,294,290,299,307,-168,8380,13664,4,-38,-27
13026.239,293,291,298,306,-168,8380,13664,4,-38,-27
13026.239,291,290,297,307,-188,8412,13780,-127,13,-21
13033.399,289,290,297,307,-188,8412,13780,-127,13,-21
13037.597,288,290,297,307,-188,8412,13780,-127,13,-21
13045.467,288,290,296,306,-188,8412,13780,-127,13,-21
13049.178,286,290,297,306,-188,8412,13780,-127,13,-21
13059.543,285,290,297,307,-188,8412,13780,-127,13,-21
13061.363,284,290,297,307,-188,8412,13780,-127,13,-21
13070.983999999999,285,289,297,306,-236,8464,13792,-4,-14,-20
13070.983999999999,286,289,297,307,-236,8464,13792,-4,-14,-20
13078.12,286,289,297,306,-236,8464,13792,-4,-14,-20
13082.277,286,289,297,306,-236,8464,13792,-4,-14,-20
13092.436,287,289,297,306,-236,8464,13792,-4,-14,-20
13095.537999999999,287,289,298,306,-236,8464,13792,-4,-14,-20
13104.129,288,288,298,307,-236,8464,13792,-4,-14,-20
13104.129,288,288,298,305,-236,8464,13792,-4,-14,-20
13111.845000000001,289,288,299,306,-240,8548,13804,60,-35,-21
13117.172999999999,291,288,300,306,-240,8548,13804,60,-35,-21
13123.252,292,287,300,306,-240,8548,13804,60,-35,-21
13127.43,293,287,301,305,-240,8548,13804,60,-35,-21
13137.985999999999,295,287,301,306,-240,8548,13804,60,-35,-21
13137.985999999999,296,286,302,306,-240,8548,13804,60,-35,-21
13143.668,298,287,302,305,-240,8548,13804,60,-35,-21
13148.761999999999,300,287,303,305,-196,8492,13776,15,-17,-66
13155.47,302,287,304,305,-196,8492,13776,15,-17,-66
13160.271,304,287,303,305,-196,8492,13776,15,-17,-66
13164.11,306,287,304,304,-196,8492,13776,15,-17,-66
13172.622000000001,308,287,304,305,-196,8492,13776,15,-17,-66
13172.622000000001,309,287,305,305,-196,8492,13776,15,-17,-66
13182.322,310,287,304,304,-196,8492,13776,15,-17,-66
13190.703,311,287,305,305,-184,8400,13776,-94,-6,-34
13192.551,312,288,306,305,-184,8400,13776,-94,-6,-34
13196.422999999999,313,289,306,305,-184,8400,13776,-94,-6,-34
13203.626,313,289,306,304,-184,8400,13776,-94,-6,-34
13215.063,313,289,306,304,-184,8400,13776,-94,-6,-34
13217.010999999999,314,290,306,305,-184,8400,13776,-94,-6,-34
13217.010999999999,314,291,306,305,-184,8400,13776,-94,-6,-34
13227.102,314,292,305,305,-232,8372,13744,-83,17,-7
13236.098,314,292,305,305,-232,8372,13744,-83,17,-7
13237.674,315,294,305,306,-232,8372,13744,-83,17,-7
13242.238000000001,314,294,305,305,-232,8372,13744,-83,17,-7
13249.046999999999,315,294,305,305,-232,8372,13744,-83,17,-7
13254.382,315,294,305,306,-232,8372,13744,-83,17,-7
13259.285,315,294,304,306,-232,8372,13744,-83,17,-7
13262.209,315,294,304,305,-232,8372,13744,-83,17,-7
13270.619,313,295,304,306,-220,8608,13872,-22,14,-53
13270.619,313,295,303,306,-220,8608,13872,-22,14,-53
13282.101,312,295,303,306,-220,8608,13872,-22,14,-53
13287.831,311,294,303,306,-220,8608,13872,-22,14,-53
13292.901,310,294,303,306,-220,8608,13872,-22,14,-53
13296.105000000001,309,293,302,306,-220,8608,13872,-22,14,-53
13304.571,308,293,302,305,-220,8608,13872,-22,14,-53
13313.546,307,294,302,305,-284,8920,14380,-113,52,-125
13315.225999999999,306,292,301,306,-284,8920,14380,-113,52,-125
13319.821,305,293,301,305,-284,8920,14380,-113,52,-125
13326.250999999998,304,293,300,305,-284,8920,14380,-113,52,-125
13332.408,304,293,300,305,-284,8920,14380,-113,52,-125
13337.007,304,293,300,306,-284,8920,14380,-113,52,-125
13343.804,303,294,299,305,-284,8920,14380,-113,52,-125
13348.25,303,293,299,305,-220,8576,13828,-247,-18,-41
13352.642,303,294,299,306,-220,8576,13828,-247,-18,-41
13360.849,302,295,299,305,-220,8576,13828,-247,-18,-41
13370.305,301,295,299,305,-220,8576,13828,-247,-18,-41
13371.677,300,296,299,306,-220,8576,13828,-247,-18,-41
13377.157000000001,300,296,299,306,-220,8576,13828,-247,-18,-41
13381.5,300,295,298,305,-220,8576,13828,-247,-18,-41
13389.341,300,297,298,305,-280,8000,13220,105,-72,171
13395.521,300,297,298,306,-280,8000,13220,105,-72,171
13404.420999999998,299,297,297,306,-280,8000,13220,105,-72,171
13404.446,299,298,298,305,-280,8000,13220,105,-72,171
13415.259,300,298,299,306,-280,8000,13220,105,-72,171
13415.259,300,298,299,306,-280,8000,13220,105,-72,171
13422.693000000001,301,299,298,305,-280,8000,13220,105,-72,171
13426.597,301,299,298,305,-16,8680,13804,559,-109,77
13434.579,301,298,297,306,-16,8680,13804,559,-109,77
13438.815999999999,301,298,297,306,-16,8680,13804,559,-109,77
13448.857,300,299,298,305,-16,8680,13804,559,-109,77
13448.857,300,298,298,306,-16,8680,13804,559,-109,77
13459.821,300,298,299,306,-16,8680,13804,559,-109,77
13459.821,299,298,299,306,-16,8680,13804,559,-109,77
13467.333,299,297,299,305,-96,8880,13692,227,-92,-200
13471.383,299,296,299,306,-96,8880,13692,227,-92,-200
13481.854,299,297,299,305,-96,8880,13692,227,-92,-200
13481.854,299,296,299,305,-96,8880,13692,227,-92,-200
13492.783,299,296,299,305,-96,8880,13692,227,-92,-200
13495.8,301,296,300,306,-96,8880,13692,227,-92,-200
13504.56,301,296,300,305,-96,8880,13692,227,-92,-200
13504.56,301,296,300,305,-96,8880,13692,227,-92,-200
13514.689,302,296,301,305,-104,8788,14096,-320,-2,-67
13515.377,302,297,301,306,-104,8788,14096,-320,-2,-67
13526.509,300,297,300,305,-104,8788,14096,-320,-2,-67
13526.509,300,297,300,305,-104,8788,14096,-320,-2,-67
13537.741,299,297,301,306,-104,8788,14096,-320,-2,-67
13540.885,298,298,301,305,-104,8788,14096,-320,-2,-67
13549.782000000001,298,298,301,305,-104,8788,14096,-320,-2,-67
13549.782000000001,299,297,301,305,-356,8108,13028,-267,-46,-5
13560.179,300,298,302,305,-356,8108,13028,-267,-46,-5
13568.241,302,298,302,305,-356,8108,13028,-267,-46,-5
13570.911,302,298,301,304,-356,8108,13028,-267,-46,-5
13570.911,303,299,302,306,-356,8108,13028,-267,-46,-5
13582.151,303,299,302,306,-356,8108,13028,-267,-46,-5
13586.194000000001,302,299,300,305,-356,8108,13028,-267,-46,-5
13595.952000000001,302,299,300,305,-224,8416,13460,249,-4,-13
13597.673,301,299,301,306,-224,8416,13460,249,-4,-13
13603.751,300,300,301,305,-224,8416,13460,249,-4,-13
13606.452000000001,299,300,300,305,-224,8416,13460,249,-4,-13
13616.390000000001,297,300,301,306,-224,8416,13460,249,-4,-13
13616.390000000001,296,300,300,305,-224,8416,13460,249,-4,-13
13628.579,296,301,300,305,-224,8416,13460,249,-4,-13
13631.131,296,300,300,305,-12,8532,13584,235,-11,-8
13637.653999999999,297,301,300,306,-12,8532,13584,235,-11,-8
13637.653999999999,297,301,299,305,-12,8532,13584,235,-11,-8
13648.774,298,301,299,305,-12,8532,13584,235,-11,-8
13648.774,299,302,299,305,-12,8532,13584,235,-11,-8
13656.633,298,302,299,306,-12,8532,13584,235,-11,-8
13659.801,297,302,299,305,-12,8532,13584,235,-11,-8
13670.532,297,302,298,304,-168,8452,13808,28,-70,94
13671.204,295,302,298,306,-168,8452,13808,28,-70,94
13681.504,294,303,298,305,-168,8452,13808,28,-70,94
13684.069,293,303,298,304,-168,8452,13808,28,-70,94
13684.069,292,303,298,304,-168,8452,13808,28,-70,94
13696.202,292,303,298,305,-168,8452,13808,28,-70,94
13703.381,291,304,298,305,-168,8452,13808,28,-70,94
