Time (ms),EMG1,EMG2,EMG3,EMG4,AccX,AccY,AccZ,GyroX,GyroY,GyroZ
1534.637,0,0,0,0,0,0,0,0,0,0
1534.637,0,0,0,0,0,0,0,0,0,0
1534.637,305,306,304,305,0,0,0,0,0,0
1550.87,305,305,305,305,0,0,0,0,0,0
1555.336,305,305,304,306,0,0,0,0,0,0
1555.849,305,306,304,306,0,0,0,0,0,0
1560.927,305,306,304,306,0,0,0,0,0,0
1560.927,305,305,304,306,0,0,0,0,0,0
1570.044,305,305,304,306,0,0,0,0,0,0
1570.044,306,305,304,306,0,0,0,0,0,0
1572.481,305,305,303,306,0,0,0,0,0,0
1579.6460000000002,306,304,303,307,0,0,0,0,0,0
1583.882,305,305,303,307,0,0,0,0,0,0
1584.905,305,305,303,306,0,0,0,0,0,0
1584.905,304,305,303,306,1656,5980,14908,-91,-36,-33
1595.637,304,305,302,306,1656,5980,14908,-91,-36,-33
1601.754,304,304,303,306,1656,5980,14908,-91,-36,-33
1605.934,305,304,302,306,1656,5980,14908,-91,-36,-33
1616.3220000000001,306,305,303,306,1656,5980,14908,-91,-36,-33
1618.222,306,305,303,306,1656,5980,14908,-91,-36,-33
1628.213,307,305,303,306,1656,5980,14908,-91,-36,-33
1628.213,307,304,303,305,1656,5980,14908,-91,-36,-33
1634.55,308,304,303,305,1632,5932,14912,-87,43,-51
1639.125,308,304,303,305,1632,5932,14912,-87,43,-51
1647.192,309,304,303,305,1632,5932,14912,-87,43,-51
1649.5040000000001,310,303,304,305,1632,5932,14912,-87,43,-51
1660.933,310,304,304,305,1632,5932,14912,-87,43,-51
1662.441,311,303,304,305,1632,5932,14912,-87,43,-51
1670.443,310,303,304,305,1632,5932,14912,-87,43,-51
1672.136,309,304,304,305,1640,6072,14880,-44,32,-56
1679.109,309,304,304,305,1640,6072,14880,-44,32,-56
1683.117,308,304,304,305,1640,6072,14880,-44,32,-56
1693.509,308,304,305,305,1640,6072,14880,-44,32,-56
1695.3519999999999,308,305,305,304,1640,6072,14880,-44,32,-56
1703.355,307,304,305,305,1640,6072,14880,-44,32,-56
1705.436,307,304,304,305,1640,6072,14880,-44,32,-56
1712.037,306,304,304,304,1724,5912,14824,-70,-2,-18
1721.2620000000002,305,305,305,304,1724,5912,14824,-70,-2,-18
1721.2620000000002,304,306,305,305,1724,5912,14824,-70,-2,-18
1728.194,303,306,304,304,1724,5912,14824,-70,-2,-18
1738.776,302,306,304,305,1724,5912,14824,-70,-2,-18
1740.3509999999999,303,306,304,305,1724,5912,14824,-70,-2,-18
1740.3509999999999,302,306,304,305,1724,5912,14824,-70,-2,-18
1755.552,302,306,304,305,1728,5976,14832,-88,11,-25
1757.012,302,306,304,305,1728,5976,14832,-88,11,-25
1761.221,302,306,304,305,1728,5976,14832,-88,11,-25
1771.919,302,305,304,306,1728,5976,14832,-88,11,-25
1773.269,303,305,304,305,1728,5976,14832,-88,11,-25
1773.269,305,304,304,305,1728,5976,14832,-88,11,-25
1784.028,307,304,304,305,1728,5976,14832,-88,11,-25
1790.187,307,304,304,305,1728,5976,14832,-88,11,-25
1794.1879999999999,308,304,303,305,1676,5932,14888,-82,61,-26
1798.9180000000001,308,305,303,305,1676,5932,14888,-82,61,-26
1805.879,308,306,303,304,1676,5932,14888,-82,61,-26
1805.879,308,306,303,304,1676,5932,14888,-82,61,-26
1820.614,308,307,303,303,1676,5932,14888,-82,61,-26
1824.757,309,307,301,303,1676,5932,14888,-82,61,-26
1828.941,308,307,301,303,1676,5932,14888,-82,61,-26
1837.372,307,307,301,302,1664,5968,14836,-101,8,-5
1840.5800000000002,307,307,301,303,1664,5968,14836,-101,8,-5
1840.5800000000002,307,308,300,303,1664,5968,14836,-101,8,-5
1849.854,307,307,300,303,1664,5968,14836,-101,8,-5
1856.0220000000002,307,307,300,303,1664,5968,14836,-101,8,-5
1860.857,307,307,300,304,1664,5968,14836,-101,8,-5
1870.381,308,306,299,303,1664,5968,14836,-101,8,-5
1873.254,308,306,298,303,1632,5944,14908,-100,20,-29
1873.254,307,305,298,304,1632,5944,14908,-100,20,-29
1883.797,308,306,298,304,1632,5944,14908,-100,20,-29
1887.7,306,305,297,304,1632,5944,14908,-100,20,-29
1894.963,306,305,298,304,1632,5944,14908,-100,20,-29
1903.318,305,305,298,304,1632,5944,14908,-100,20,-29
1905.443,304,305,297,304,1632,5944,14908,-100,20,-29
1914.439,303,305,297,303,1692,5920,14852,-70,81,-21
1916.784,303,304,297,303,1692,5920,14852,-70,81,-21
1916.784,303,305,297,304,1692,5920,14852,-70,81,-21
1925.57,302,305,297,303,1692,5920,14852,-70,81,-21
1932.831,302,304,297,303,1692,5920,14852,-70,81,-21
1940.002,302,304,297,303,1692,5920,14852,-70,81,-21
1943.9370000000001,302,304,297,304,1692,5920,14852,-70,81,-21
1950.2759999999998,302,304,297,304,1692,5920,14852,-70,81,-21
1957.369,303,303,297,303,1640,5912,14840,-36,-7,6
1960.863,304,303,298,304,1640,5912,14840,-36,-7,6
1966.47,304,303,297,304,1640,5912,14840,-36,-7,6
1971.454,303,304,297,304,1640,5912,14840,-36,-7,6
1974.06,303,304,297,304,1640,5912,14840,-36,-7,6
1983.685,303,304,297,304,1640,5912,14840,-36,-7,6
1983.685,303,304,297,304,1640,5912,14840,-36,-7,6
1992.09,302,304,298,303,1648,5928,14872,-68,-8,-25
1993.872,302,304,298,303,1648,5928,14872,-68,-8,-25
2005.404,301,304,298,304,1648,5928,14872,-68,-8,-25
2005.9459999999997,301,304,297,303,1648,5928,14872,-68,-8,-25
2016.3020000000001,300,305,298,303,1648,5928,14872,-68,-8,-25
2019.2420000000002,300,304,298,304,1648,5928,14872,-68,-8,-25
2019.2420000000002,300,305,298,304,1648,5928,14872,-68,-8,-25
2028.1189999999997,300,304,297,304,1648,5928,14872,-68,-8,-25
2036.088,300,304,298,303,1680,5932,14912,-95,43,-44
2038.659,300,304,298,304,1680,5932,14912,-95,43,-44
2049.2149999999997,300,304,298,304,1680,5932,14912,-95,43,-44
2051.897,300,304,298,304,1680,5932,14912,-95,43,-44
2061.978,300,304,299,304,1680,5932,14912,-95,43,-44
2067.4030000000002,301,304,298,304,1680,5932,14912,-95,43,-44
2068.878,300,305,298,304,1680,5932,14912,-95,43,-44
2072.19,300,305,298,304,1652,5976,14780,-83,44,-16
2083.022,300,304,298,305,1652,5976,14780,-83,44,-16
2083.022,302,304,298,305,1652,5976,14780,-83,44,-16
2095.4739999999997,301,304,298,304,1652,5976,14780,-83,44,-16
2095.4739999999997,302,305,299,304,1652,5976,14780,-83,44,-16
2101.3419999999996,301,305,299,304,1652,5976,14780,-83,44,-16
2105.886,302,304,298,304,1652,5976,14780,-83,44,-16
2116.2999999999997,302,305,299,303,1688,5984,14816,-42,18,6
2116.2999999999997,302,304,298,303,1688,5984,14816,-42,18,6
2122.111,303,304,298,304,1688,5984,14816,-42,18,6
2127.186,303,304,298,303,1688,5984,14816,-42,18,6
2134.0150000000003,302,304,299,303,1688,5984,14816,-42,18,6
2138.877,303,304,299,304,1688,5984,14816,-42,18,6
2142.5930000000003,302,305,298,304,1688,5984,14816,-42,18,6
2150.992,302,304,298,304,1688,5984,14816,-42,18,6
2156.517,302,305,298,304,1668,5960,14872,-68,-10,-15
2160.842,302,304,298,305,1668,5960,14872,-68,-10,-15
2166.765,302,304,298,305,1668,5960,14872,-68,-10,-15
2171.852,302,304,298,305,1668,5960,14872,-68,-10,-15
2174.854,302,304,299,304,1668,5960,14872,-68,-10,-15
2183.614,302,305,299,305,1668,5960,14872,-68,-10,-15
2192.1940000000004,302,304,299,305,1668,5960,14872,-68,-10,-15
2194.719,302,304,299,304,1664,5960,14864,-147,55,-16
2199.856,302,304,299,305,1664,5960,14864,-147,55,-16
2204.853,303,304,298,305,1664,5960,14864,-147,55,-16
2212.94,303,304,299,304,1664,5960,14864,-147,55,-16
2216.4990000000003,303,304,299,305,1664,5960,14864,-147,55,-16
2220.603,303,304,298,305,1664,5960,14864,-147,55,-16
2227.751,302,304,299,305,1664,5960,14864,-147,55,-16
2238.699,302,304,300,305,1660,5928,14820,-62,90,-43
2238.699,303,303,300,305,1660,5928,14820,-62,90,-43
2244.701,303,304,300,305,1660,5928,14820,-62,90,-43
2249.45,303,303,300,305,1660,5928,14820,-62,90,-43
2257.358,304,303,299,305,1660,5928,14820,-62,90,-43
2260.679,304,303,301,306,1660,5928,14820,-62,90,-43
2271.601,305,304,301,306,1660,5928,14820,-62,90,-43
2271.601,305,304,302,305,1636,5872,14800,-102,9,-9
2271.601,306,304,303,305,1636,5872,14800,-102,9,-9
2283.472,306,304,303,305,1636,5872,14800,-102,9,-9
2289.8360000000002,307,304,302,305,1636,5872,14800,-102,9,-9
2294.416,309,303,302,304,1636,5872,14800,-102,9,-9
2298.25,310,303,303,305,1636,5872,14800,-102,9,-9
2305.932,310,303,302,305,1636,5872,14800,-102,9,-9
2305.932,309,303,302,305,1636,5872,14800,-102,9,-9
2316.291,309,304,302,304,1712,5980,14852,-15,-51,-42
2324.3450000000003,310,304,303,305,1712,5980,14852,-15,-51,-42
2327.4689999999996,309,305,302,305,1712,5980,14852,-15,-51,-42
2330.183,310,305,302,304,1712,5980,14852,-15,-51,-42
2339.147,310,306,302,304,1712,5980,14852,-15,-51,-42
2339.147,310,306,301,304,1712,5980,14852,-15,-51,-42
2349.957,309,307,301,304,1712,5980,14852,-15,-51,-42
2356.388,309,307,300,304,1640,5956,14912,-146,74,-30
2360.976,309,308,301,305,1640,5956,14912,-146,74,-30
2363.399,309,309,300,305,1640,5956,14912,-146,74,-30
2372.578,308,308,300,304,1640,5956,14912,-146,74,-30
2381.297,309,309,300,304,1640,5956,14912,-146,74,-30
2383.375,309,309,300,305,1640,5956,14912,-146,74,-30
2388.987,308,309,300,305,1640,5956,14912,-146,74,-30
2393.786,308,309,300,305,1644,5876,14804,-83,64,-15
2400.031,307,309,300,305,1644,5876,14804,-83,64,-15
2405.223,307,310,299,305,1644,5876,14804,-83,64,-15
2414.691,306,310,300,305,1644,5876,14804,-83,64,-15
2416.782,306,310,299,306,1644,5876,14804,-83,64,-15
2420.655,307,309,300,306,1644,5876,14804,-83,64,-15
2426.886,305,309,299,305,1644,5876,14804,-83,64,-15
2433.761,306,309,300,305,1604,6020,14920,-10,17,-32
2438.395,305,308,300,305,1604,6020,14920,-10,17,-32
2445.545,306,308,299,305,1604,6020,14920,-10,17,-32
2450.8070000000002,305,307,300,305,1604,6020,14920,-10,17,-32
2456.631,305,307,300,304,1604,6020,14920,-10,17,-32
2460.44,305,306,300,305,1604,6020,14920,-10,17,-32
2465.576,306,306,299,305,1604,6020,14920,-10,17,-32
2471.7039999999997,305,305,300,305,1668,5976,14856,-82,-78,-33
2477.799,305,304,300,305,1668,5976,14856,-82,-78,-33
2483.092,304,305,300,305,1668,5976,14856,-82,-78,-33
2492.6879999999996,304,304,300,305,1668,5976,14856,-82,-78,-33
2494.8920000000003,304,303,300,304,1668,5976,14856,-82,-78,-33
2503.29,304,303,301,305,1668,5976,14856,-82,-78,-33
2505.545,304,302,300,305,1668,5976,14856,-82,-78,-33
2511.314,304,301,300,304,1668,5976,14856,-82,-78,-33
2516.192,303,301,300,305,1632,5984,14880,-55,50,-36
2522.7439999999997,304,301,300,305,1632,5984,14880,-55,50,-36
2527.545,304,301,300,304,1632,5984,14880,-55,50,-36
2531.832,303,301,300,304,1632,5984,14880,-55,50,-36
2539.6679999999997,303,301,300,304,1632,5984,14880,-55,50,-36
2539.6679999999997,303,301,300,304,1632,5984,14880,-55,50,-36
2549.242,303,300,300,304,1632,5984,14880,-55,50,-36
2557.187,303,300,301,304,1668,5964,14856,-67,112,-36
2560.883,303,299,301,304,1668,5964,14856,-67,112,-36
2564.333,304,300,301,305,1668,5964,14856,-67,112,-36
2575.041,302,300,302,305,1668,5964,14856,-67,112,-36
2581.069,303,300,302,305,1668,5964,14856,-67,112,-36
2583.147,303,300,302,305,1668,5964,14856,-67,112,-36
2590.007,303,299,302,305,1668,5964,14856,-67,112,-36
2594.111,303,300,302,305,1680,5940,14800,-118,-27,-33
2601.307,303,299,301,305,1680,5940,14800,-118,-27,-33
2605.489,304,300,301,305,1680,5940,14800,-118,-27,-33
2614.264,302,301,302,305,1680,5940,14800,-118,-27,-33
2616.193,302,301,301,305,1680,5940,14800,-118,-27,-33
2627.688,302,302,301,306,1680,5940,14800,-118,-27,-33
2627.688,302,303,302,305,1680,5940,14800,-118,-27,-33
2638.9230000000002,302,303,302,305,1632,5968,14844,-51,-8,-21
2641.96,302,304,302,305,1632,5968,14844,-51,-8,-21
2641.96,302,304,302,305,1632,5968,14844,-51,-8,-21
2650.868,302,304,302,304,1632,5968,14844,-51,-8,-21
2660.978,302,305,302,304,1632,5968,14844,-51,-8,-21
2660.978,302,306,301,304,1632,5968,14844,-51,-8,-21
2671.793,302,306,301,304,1632,5968,14844,-51,-8,-21
2674.643,302,306,301,304,1656,5960,14900,-47,68,-18
2674.643,303,306,300,303,1656,5960,14900,-47,68,-18
2684.3360000000002,303,306,300,303,1656,5960,14900,-47,68,-18
2691.215,303,305,300,303,1656,5960,14900,-47,68,-18
2694.1169999999997,303,305,300,303,1656,5960,14900,-47,68,-18
2705.872,303,305,300,304,1656,5960,14900,-47,68,-18
2705.872,303,305,300,303,1656,5960,14900,-47,68,-18
2711.745,303,305,300,304,1608,5936,14868,-80,-11,-14
2716.615,303,304,300,304,1608,5936,14868,-80,-11,-14
2724.544,304,303,301,304,1608,5936,14868,-80,-11,-14
2727.31,304,304,301,304,1608,5936,14868,-80,-11,-14
2738.429,303,303,301,304,1608,5936,14868,-80,-11,-14
2738.429,304,303,302,305,1608,5936,14868,-80,-11,-14
2749.534,304,302,302,305,1608,5936,14868,-80,-11,-14
2751.952,304,301,302,304,1608,5936,14868,-80,-11,-14
2758.8050000000003,305,300,302,304,1664,5948,14844,-38,8,-23
2760.522,305,300,302,305,1664,5948,14844,-38,8,-23
2770.8370000000004,306,299,301,304,1664,5948,14844,-38,8,-23
2776.151,305,298,302,304,1664,5948,14844,-38,8,-23
2783.6240000000003,305,298,302,304,1664,5948,14844,-38,8,-23
2787.055,304,299,302,304,1664,5948,14844,-38,8,-23
2792.4069999999997,304,299,303,304,1664,5948,14844,-38,8,-23
2795.9100000000003,304,299,303,304,1656,5900,14880,-71,42,-35
2803.913,304,299,303,304,1656,5900,14880,-71,42,-35
2804.899,305,299,303,304,1656,5900,14880,-71,42,-35
2816.2349999999997,305,299,303,304,1656,5900,14880,-71,42,-35
2816.2349999999997,306,298,303,304,1656,5900,14880,-71,42,-35
2822.899,306,298,303,305,1656,5900,14880,-71,42,-35
2827.491,306,298,303,304,1656,5900,14880,-71,42,-35
2834.615,306,298,303,304,1668,5932,14784,-74,-6,-2
2839.275,306,298,304,305,1668,5932,14784,-74,-6,-2
2842.8239999999996,306,298,303,305,1668,5932,14784,-74,-6,-2
2850.391,307,297,303,305,1668,5932,14784,-74,-6,-2
2857.973,307,297,303,305,1668,5932,14784,-74,-6,-2
2861.265,305,298,303,305,1668,5932,14784,-74,-6,-2
2867.424,306,298,304,306,1668,5932,14784,-74,-6,-2
2872.358,304,298,304,305,1668,5932,14784,-74,-6,-2
2874.936,304,299,303,305,1652,5924,14880,-78,46,-53
2883.852,304,299,303,306,1652,5924,14880,-78,46,-53
2883.852,303,299,303,306,1652,5924,14880,-78,46,-53
2894.619,304,298,303,305,1652,5924,14880,-78,46,-53
2901.851,303,299,304,306,1652,5924,14880,-78,46,-53
2905.431,304,300,303,306,1652,5924,14880,-78,46,-53
2908.486,303,300,303,305,1652,5924,14880,-78,46,-53
2916.768,303,300,303,305,1648,5964,14880,-98,24,-32
2916.768,304,300,303,306,1648,5964,14880,-98,24,-32
2927.558,303,301,302,306,1648,5964,14880,-98,24,-32
2935.751,302,300,302,305,1648,5964,14880,-98,24,-32
2939.2239999999997,304,301,302,305,1648,5964,14880,-98,24,-32
2947.759,303,301,302,306,1648,5964,14880,-98,24,-32
2949.86,304,301,303,306,1648,5964,14880,-98,24,-32
2953.283,302,301,304,305,1660,5936,14856,-72,23,-5
2960.826,303,302,304,305,1660,5936,14856,-72,23,-5
2965.2180000000003,303,302,303,305,1660,5936,14856,-72,23,-5
2971.457,303,303,304,305,1660,5936,14856,-72,23,-5
2971.457,303,303,304,305,1660,5936,14856,-72,23,-5
2982.986,304,303,304,305,1660,5936,14856,-72,23,-5
2982.986,304,303,304,306,1660,5936,14856,-72,23,-5
2994.406,303,302,304,306,1660,5936,14856,-72,23,-5
2994.406,303,303,304,306,1692,6084,14896,-51,-20,-17
3005.176,302,304,303,306,1692,6084,14896,-51,-20,-17
3013.177,302,304,303,306,1692,6084,14896,-51,-20,-17
3016.534,301,304,303,306,1692,6084,14896,-51,-20,-17
3016.534,301,304,303,306,1692,6084,14896,-51,-20,-17
3028.123,301,304,303,306,1692,6084,14896,-51,-20,-17
3028.123,300,304,303,306,1692,6084,14896,-51,-20,-17
3034.7490000000003,301,303,303,306,1632,5948,14820,-91,47,-8
3039.155,302,303,303,306,1632,5948,14820,-91,47,-8
3049.55,302,303,302,306,1632,5948,14820,-91,47,-8
3057.5800000000004,303,302,303,306,1632,5948,14820,-91,47,-8
3060.946,303,303,302,306,1632,5948,14820,-91,47,-8
3060.946,304,302,302,306,1632,5948,14820,-91,47,-8
3068.459,305,303,302,306,1632,5948,14820,-91,47,-8
3073.071,305,302,301,305,1676,5972,14872,-63,61,-22
3082.9240000000004,306,302,302,306,1676,5972,14872,-63,61,-22
3087.0829999999996,305,303,302,306,1676,5972,14872,-63,61,-22
3094.3160000000003,305,303,301,306,1676,5972,14872,-63,61,-22
3096.204,305,303,301,306,1676,5972,14872,-63,61,-22
3106.1899999999996,305,303,301,306,1676,5972,14872,-63,61,-22
3106.1899999999996,305,303,301,306,1676,5972,14872,-63,61,-22
3113.367,305,302,301,306,1676,5972,14872,-63,61,-22
3116.292,305,303,301,306,1640,5972,14876,-34,17,-26
3127.4030000000002,305,303,301,306,1640,5972,14876,-34,17,-26
3127.4030000000002,304,303,301,306,1640,5972,14876,-34,17,-26
3138.54,305,304,302,306,1640,5972,14876,-34,17,-26
3141.5099999999998,304,304,301,306,1640,5972,14876,-34,17,-26
3141.5099999999998,306,304,301,306,1640,5972,14876,-34,17,-26
3151.392,305,304,300,305,1640,5972,14876,-34,17,-26
3160.844,305,304,301,305,1688,5976,14844,-133,-9,-43
3160.844,305,304,299,306,1688,5976,14844,-133,-9,-43
3171.941,305,305,300,305,1688,5976,14844,-133,-9,-43
3174.82,304,305,299,305,1688,5976,14844,-133,-9,-43
3174.82,304,305,299,306,1688,5976,14844,-133,-9,-43
3188.54,303,304,299,306,1688,5976,14844,-133,-9,-43
3193.2,303,305,300,305,1688,5976,14844,-133,-9,-43
3201.087,303,305,300,305,1696,5940,14864,-74,71,-35
3205.479,303,305,300,305,1696,5940,14864,-74,71,-35
3210.0499999999997,303,305,300,305,1696,5940,14864,-74,71,-35
3216.311,302,305,300,305,1696,5940,14864,-74,71,-35
3218.862,302,305,301,305,1696,5940,14864,-74,71,-35
3218.862,302,305,301,306,1696,5940,14864,-74,71,-35
3228.346,301,305,301,305,1696,5940,14864,-74,71,-35
3238.4300000000003,302,305,302,305,1704,6040,14856,-15,24,-21
3238.4300000000003,302,305,302,305,1704,6040,14856,-15,24,-21
3249.6730000000002,301,305,302,306,1704,6040,14856,-15,24,-21
3251.9390000000003,301,304,302,306,1704,6040,14856,-15,24,-21
3259.3830000000003,300,305,303,306,1704,6040,14856,-15,24,-21
3261.96,300,305,302,307,1704,6040,14856,-15,24,-21
3268.8869999999997,300,304,302,307,1704,6040,14856,-15,24,-21
3271.973,300,304,303,306,1628,5984,14880,-109,21,-23
3282.645,300,304,303,306,1628,5984,14880,-109,21,-23
3284.847,302,304,303,306,1628,5984,14880,-109,21,-23
3294.228,301,305,303,306,1628,5984,14880,-109,21,-23
3296.732,300,304,303,306,1628,5984,14880,-109,21,-23
3296.732,301,305,303,306,1628,5984,14880,-109,21,-23
3305.714,301,304,302,307,1628,5984,14880,-109,21,-23
3316.377,300,304,302,306,1628,5984,14880,-109,21,-23
3317.3819999999996,301,304,302,306,1620,5972,14940,-45,16,-21
3327.162,302,304,302,306,1620,5972,14940,-45,16,-21
3327.162,302,304,301,306,1620,5972,14940,-45,16,-21
3338.8450000000003,302,304,302,306,1620,5972,14940,-45,16,-21
3342.5150000000003,301,304,301,306,1620,5972,14940,-45,16,-21
3342.5150000000003,301,305,301,306,1620,5972,14940,-45,16,-21
3350.0860000000002,301,304,301,305,1620,5972,14940,-45,16,-21
3361.313,302,304,301,306,1632,5888,14808,-45,54,-15
3361.313,303,304,301,306,1632,5888,14808,-45,54,-15
3372.096,303,304,300,306,1632,5888,14808,-45,54,-15
3372.096,303,305,301,305,1632,5888,14808,-45,54,-15
3379.82,302,304,301,305,1632,5888,14808,-45,54,-15
3382.963,301,304,301,305,1632,5888,14808,-45,54,-15
3394.072,301,304,300,305,1632,5888,14808,-45,54,-15
3394.072,301,304,301,305,1736,6004,14896,-107,-34,-22
3405.127,301,305,300,305,1736,6004,14896,-107,-34,-22
3407.8909999999996,302,304,300,305,1736,6004,14896,-107,-34,-22
3417.163,301,304,301,304,1736,6004,14896,-107,-34,-22
3419.6240000000003,301,305,299,304,1736,6004,14896,-107,-34,-22
3419.6240000000003,302,304,300,304,1736,6004,14896,-107,-34,-22
3427.9790000000003,301,305,300,304,1736,6004,14896,-107,-34,-22
3438.538,302,305,301,304,1588,5984,14744,-63,-16,-3
3446.592,302,305,301,304,1588,5984,14744,-63,-16,-3
3449.912,302,305,301,304,1588,5984,14744,-63,-16,-3
3449.912,302,305,301,304,1588,5984,14744,-63,-16,-3
3460.572,302,305,301,304,1588,5984,14744,-63,-16,-3
3465.217,302,305,301,305,1588,5984,14744,-63,-16,-3
3471.562,303,305,301,304,1588,5984,14744,-63,-16,-3
3471.562,302,305,302,305,1632,5912,14924,-84,59,-7
3483.1859999999997,303,305,302,305,1632,5912,14924,-84,59,-7
3483.1859999999997,302,305,302,305,1632,5912,14924,-84,59,-7
3494.624,303,305,302,305,1632,5912,14924,-84,59,-7
3494.624,304,305,303,304,1632,5912,14924,-84,59,-7
3503.063,305,304,303,305,1632,5912,14924,-84,59,-7
3505.096,305,304,302,305,1632,5912,14924,-84,59,-7
3516.376,304,305,303,304,1632,5912,14924,-84,59,-7
3516.376,304,305,302,304,1668,6044,14800,15,-92,-15
3523.317,304,305,303,304,1668,6044,14800,15,-92,-15
3527.463,304,305,303,304,1668,6044,14800,15,-92,-15
3535.163,304,305,304,304,1668,6044,14800,15,-92,-15
3538.554,304,305,304,304,1668,6044,14800,15,-92,-15
3549.3199999999997,304,306,304,304,1668,6044,14800,15,-92,-15
3551.155,304,306,303,303,1668,6044,14800,15,-92,-15
3561.808,305,306,304,303,1592,5884,14932,-162,36,-36
3561.808,305,307,304,304,1592,5884,14932,-162,36,-36
3567.71,306,307,303,303,1592,5884,14932,-162,36,-36
3572.469,307,307,302,303,1592,5884,14932,-162,36,-36
3579.7850000000003,308,307,302,303,1592,5884,14932,-162,36,-36
3583.1349999999998,307,307,303,303,1592,5884,14932,-162,36,-36
3594.9080000000004,307,306,302,303,1592,5884,14932,-162,36,-36
3595.974,306,306,302,303,1652,5952,14860,-69,-15,-1
3603.977,306,307,302,303,1652,5952,14860,-69,-15,-1
3605.433,307,306,302,304,1652,5952,14860,-69,-15,-1
3612.407,307,306,302,303,1652,5952,14860,-69,-15,-1
3616.815,307,306,302,303,1652,5952,14860,-69,-15,-1
3627.621,308,306,302,304,1652,5952,14860,-69,-15,-1
3627.621,309,305,301,303,1652,5952,14860,-69,-15,-1
3638.798,310,305,301,304,1604,5936,14808,93,44,-32
3641.5890000000004,311,305,302,304,1604,5936,14808,93,44,-32
3641.5890000000004,311,305,302,304,1604,5936,14808,93,44,-32
3650.9100000000003,312,305,301,303,1604,5936,14808,93,44,-32
3658.913,312,304,301,303,1604,5936,14808,93,44,-32
3661.669,313,304,302,303,1604,5936,14808,93,44,-32
3661.669,312,304,301,303,1604,5936,14808,93,44,-32
3671.628,312,304,301,302,1604,5936,14808,93,44,-32
3677.985,311,304,302,303,1624,5992,14868,-2,-160,-23
3683.2850000000003,310,304,302,302,1624,5992,14868,-2,-160,-23
3690.8050000000003,309,305,303,302,1624,5992,14868,-2,-160,-23
3694.013,308,305,303,301,1624,5992,14868,-2,-160,-23
3705.3379999999997,308,306,303,301,1624,5992,14868,-2,-160,-23
3705.3379999999997,308,306,303,302,1624,5992,14868,-2,-160,-23
3711.117,307,306,303,301,1624,5992,14868,-2,-160,-23
3716.297,307,306,303,301,1696,5968,14824,-41,-40,-7
3722.951,306,307,304,301,1696,5968,14824,-41,-40,-7
3727.92,305,307,304,301,1696,5968,14824,-41,-40,-7
3736.707,303,308,305,301,1696,5968,14824,-41,-40,-7
3739.182,302,308,305,301,1696,5968,14824,-41,-40,-7
3739.182,301,308,305,301,1696,5968,14824,-41,-40,-7
3749.8999999999996,300,308,305,300,1696,5968,14824,-41,-40,-7
3749.8999999999996,298,308,306,300,1692,6104,14764,84,37,-45
3761.289,296,308,306,300,1692,6104,14764,84,37,-45
3770.136,295,309,306,300,1692,6104,14764,84,37,-45
3774.72,294,309,307,300,1692,6104,14764,84,37,-45
3779.308,293,309,307,300,1692,6104,14764,84,37,-45
3782.901,292,310,308,300,1692,6104,14764,84,37,-45
3788.49,292,309,307,299,1692,6104,14764,84,37,-45
3793.865,293,309,308,299,1692,6104,14764,84,37,-45
3796.721,293,309,308,299,1684,6016,14832,-95,-47,-33
3805.933,294,309,308,299,1684,6016,14832,-95,-47,-33
3805.933,294,309,308,299,1684,6016,14832,-95,-47,-33
3816.7490000000003,294,309,308,298,1684,6016,14832,-95,-47,-33
3821.8830000000003,294,308,308,298,1684,6016,14832,-95,-47,-33
3827.12,295,308,308,298,1684,6016,14832,-95,-47,-33
3834.442,295,308,308,298,1684,6016,14832,-95,-47,-33
3839.141,296,307,307,299,1648,5960,14816,-7,-39,-5
3842.26,297,306,307,298,1648,5960,14816,-7,-39,-5
3850.93,296,307,306,299,1648,5960,14816,-7,-39,-5
3850.93,296,306,306,298,1648,5960,14816,-7,-39,-5
3860.883,296,306,306,299,1648,5960,14816,-7,-39,-5
3867.824,297,305,305,299,1648,5960,14816,-7,-39,-5
3872.3990000000003,299,304,305,298,1648,5960,14816,-7,-39,-5
3881.625,300,303,304,298,1712,6032,14808,-26,23,-33
3883.808,302,303,303,298,1712,6032,14808,-26,23,-33
3883.808,303,302,303,298,1712,6032,14808,-26,23,-33
3894.24,304,303,303,298,1712,6032,14808,-26,23,-33
3899.2140000000004,304,302,302,298,1712,6032,14808,-26,23,-33
3904.802,304,302,302,299,1712,6032,14808,-26,23,-33
3904.802,304,302,302,299,1712,6032,14808,-26,23,-33
3917.277,304,302,302,299,1712,6032,14808,-26,23,-33
3917.277,305,301,302,300,1608,5992,14804,-88,-20,-15
3927.549,304,302,302,300,1608,5992,14804,-88,-20,-15
3932.8979999999997,304,301,302,300,1608,5992,14804,-88,-20,-15
3938.1279999999997,303,301,302,301,1608,5992,14804,-88,-20,-15
3940.321,303,301,303,301,1608,5992,14804,-88,-20,-15
3950.121,304,300,302,302,1608,5992,14804,-88,-20,-15
3959.065,304,300,301,301,1608,5992,14804,-88,-20,-15
3960.951,304,300,302,302,1684,6048,14916,-7,3,-8
3964.846,303,301,302,302,1684,6048,14916,-7,3,-8
3971.6870000000004,304,300,303,302,1684,6048,14916,-7,3,-8
3971.6870000000004,304,300,303,302,1684,6048,14916,-7,3,-8
3983.201,304,300,303,303,1684,6048,14916,-7,3,-8
3983.201,305,300,304,303,1684,6048,14916,-7,3,-8
3990.1949999999997,305,299,304,302,1684,6048,14916,-7,3,-8
3994.1879999999996,305,299,305,302,1712,5928,14748,-50,3,1
4001.697,305,299,305,303,1712,5928,14748,-50,3,1
4005.8160000000003,306,298,305,303,1712,5928,14748,-50,3,1
4011.121,307,298,305,303,1712,5928,14748,-50,3,1
4016.079,308,297,305,302,1712,5928,14748,-50,3,1
4021.909,308,298,306,303,1712,5928,14748,-50,3,1
4028.0570000000002,308,298,306,303,1712,5928,14748,-50,3,1
4028.0570000000002,308,298,306,303,1712,5928,14748,-50,3,1
4038.534,308,298,306,302,1720,6024,14896,-109,2,-29
4042.7749999999996,308,298,306,303,1720,6024,14896,-109,2,-29
4042.7749999999996,310,298,306,303,1720,6024,14896,-109,2,-29
4050.632,310,298,306,303,1720,6024,14896,-109,2,-29
4061.19,312,298,306,303,1720,6024,14896,-109,2,-29
4064.0539999999996,312,298,305,303,1720,6024,14896,-109,2,-29
4072.8869999999997,312,298,305,303,1720,6024,14896,-109,2,-29
4072.8869999999997,312,299,305,303,1720,6024,14896,-109,2,-29
4079.5620000000004,312,299,305,303,1648,6096,14772,-31,0,-5
4083.2059999999997,311,299,304,303,1648,6096,14772,-31,0,-5
4094.2360000000003,312,299,305,304,1648,6096,14772,-31,0,-5
4094.2360000000003,312,300,303,303,1648,6096,14772,-31,0,-5
4106.525000000001,311,300,304,304,1648,6096,14772,-31,0,-5
4107.652,312,300,303,304,1648,6096,14772,-31,0,-5
4115.651,311,301,302,304,1648,6096,14772,-31,0,-5
4116.952,311,301,301,304,1692,5984,14876,-97,41,-22
4124.42,311,301,301,305,1692,5984,14876,-97,41,-22
4127.693,312,301,301,305,1692,5984,14876,-97,41,-22
4137.972000000001,312,301,300,305,1692,5984,14876,-97,41,-22
4140.338,313,301,300,305,1692,5984,14876,-97,41,-22
4148.334,313,301,299,306,1692,5984,14876,-97,41,-22
4150.514,312,302,298,305,1692,5984,14876,-97,41,-22
4158.973,312,302,298,306,1588,6056,14756,-85,-9,4
4161.1269999999995,312,302,297,306,1588,6056,14756,-85,-9,4
4165.96,312,302,297,306,1588,6056,14756,-85,-9,4
4171.643,311,302,297,306,1588,6056,14756,-85,-9,4
4177.4529999999995,312,302,297,306,1588,6056,14756,-85,-9,4
4182.794000000001,312,302,297,306,1588,6056,14756,-85,-9,4
4185.896,312,302,296,306,1588,6056,14756,-85,-9,4
4195.1720000000005,312,302,296,305,1588,6056,14756,-85,-9,4
4195.1720000000005,312,302,296,306,1692,6004,14844,-39,73,-54
4205.253,313,302,296,306,1692,6004,14844,-39,73,-54
4213.33,313,302,296,306,1692,6004,14844,-39,73,-54
4215.8,314,302,296,306,1692,6004,14844,-39,73,-54
4218.6539999999995,315,302,296,307,1692,6004,14844,-39,73,-54
4228.157999999999,315,302,296,307,1692,6004,14844,-39,73,-54
4228.157999999999,315,302,295,306,1692,6004,14844,-39,73,-54
4238.392,313,303,295,306,1772,6088,14832,-176,-50,-28
4243.682,312,304,294,306,1772,6088,14832,-176,-50,-28
4249.755999999999,312,304,293,306,1772,6088,14832,-176,-50,-28
4255.996,310,305,292,305,1772,6088,14832,-176,-50,-28
4261.315,309,305,292,306,1772,6088,14832,-176,-50,-28
4264.1720000000005,308,305,291,306,1772,6088,14832,-176,-50,-28
4272.732999999999,308,306,291,306,1772,6088,14832,-176,-50,-28
4272.732999999999,306,306,291,306,1668,5984,14752,-50,31,4
4283.133000000001,304,306,292,306,1668,5984,14752,-50,31,4
4291.134,304,306,292,306,1668,5984,14752,-50,31,4
4294.522,303,306,292,306,1668,5984,14752,-50,31,4
4303.3,302,306,292,306,1668,5984,14752,-50,31,4
4305.398,302,306,293,306,1668,5984,14752,-50,31,4
4305.398,300,306,292,306,1668,5984,14752,-50,31,4
4313.17,299,306,293,306,1668,5984,14752,-50,31,4
4316.41,298,306,293,306,1680,6012,14876,-82,56,-35
4327.495,297,306,293,306,1680,6012,14876,-82,56,-35
4327.495,296,306,293,306,1680,6012,14876,-82,56,-35
4339.009,296,306,293,306,1680,6012,14876,-82,56,-35
4341.154,296,305,294,306,1680,6012,14876,-82,56,-35
4350.3769999999995,297,305,294,307,1680,6012,14876,-82,56,-35
4353.287,298,304,295,306,1680,6012,14876,-82,56,-35
4360.579000000001,298,304,295,306,1704,6028,14820,-104,-41,-20
4361.601000000001,298,304,295,307,1704,6028,14820,-104,-41,-20
4371.750999999999,299,305,296,307,1704,6028,14820,-104,-41,-20
4371.750999999999,299,304,296,307,1704,6028,14820,-104,-41,-20
4383.239,300,303,297,308,1704,6028,14820,-104,-41,-20
4387.5019999999995,301,303,297,308,1704,6028,14820,-104,-41,-20
4394.022,302,303,297,308,1704,6028,14820,-104,-41,-20
4398.776,301,303,298,308,1720,5996,14768,-10,60,-35
4404.7919999999995,303,302,298,308,1720,5996,14768,-10,60,-35
4407.048,302,303,298,308,1720,5996,14768,-10,60,-35
4416.983,302,303,299,308,1720,5996,14768,-10,60,-35
4416.983,302,302,300,309,1720,5996,14768,-10,60,-35
4427.443,302,303,300,309,1720,5996,14768,-10,60,-35
4432.11,303,302,300,308,1720,5996,14768,-10,60,-35
4438.3150000000005,302,303,301,308,1724,6052,14780,-110,20,-3
4444.27,302,303,302,308,1724,6052,14780,-110,20,-3
4449.2570000000005,302,303,302,309,1724,6052,14780,-110,20,-3
4452.066000000001,301,303,303,309,1724,6052,14780,-110,20,-3
4461.469,301,304,304,309,1724,6052,14780,-110,20,-3
4461.469,301,303,304,309,1724,6052,14780,-110,20,-3
4471.919,301,304,304,309,1724,6052,14780,-110,20,-3
4471.919,301,303,305,309,1724,6052,14780,-110,20,-3
4483.115,300,303,305,309,1652,5944,14796,-60,27,-24
4491.242,300,302,305,310,1652,5944,14796,-60,27,-24
4493.9400000000005,300,303,306,310,1652,5944,14796,-60,27,-24
4496.912,299,303,306,310,1652,5944,14796,-60,27,-24
4505.924,299,303,307,310,1652,5944,14796,-60,27,-24
4505.924,300,303,307,310,1652,5944,14796,-60,27,-24
4516.634,300,302,307,310,1652,5944,14796,-60,27,-24
4524.637000000001,301,302,308,310,1684,6060,14840,-19,49,-38
4527.7300000000005,301,302,308,311,1684,6060,14840,-19,49,-38
4527.7300000000005,302,302,308,310,1684,6060,14840,-19,49,-38
4538.9400000000005,302,303,308,310,1684,6060,14840,-19,49,-38
4544.936,303,302,309,310,1684,6060,14840,-19,49,-38
4549.158,303,303,308,309,1684,6060,14840,-19,49,-38
4557.424,302,304,309,308,1684,6060,14840,-19,49,-38
4561.4169999999995,300,305,309,308,1684,6008,14820,-112,9,-11
4565.839999999999,300,306,310,308,1684,6008,14820,-112,9,-11
4572.105,298,306,309,308,1684,6008,14820,-112,9,-11
4572.105,297,307,310,307,1684,6008,14820,-112,9,-11
4583.057,295,307,310,308,1684,6008,14820,-112,9,-11
4587.590999999999,293,308,311,308,1684,6008,14820,-112,9,-11
4593.924999999999,292,307,310,307,1684,6008,14820,-112,9,-11
4593.924999999999,292,307,310,307,1716,6036,14876,-48,13,-27
4605.434,291,307,309,307,1716,6036,14876,-48,13,-27
4605.434,292,307,309,307,1716,6036,14876,-48,13,-27
4616.863,292,306,309,306,1716,6036,14876,-48,13,-27
4616.863,293,306,309,306,1716,6036,14876,-48,13,-27
4627.2570000000005,293,306,309,307,1716,6036,14876,-48,13,-27
4631.0,293,306,308,306,1716,6036,14876,-48,13,-27
4638.767,293,306,308,306,1716,6036,14876,-48,13,-27
4638.767,294,305,307,306,1672,6028,14776,-6,49,-12
4649.693,295,305,308,306,1672,6028,14776,-6,49,-12
4652.921,295,304,307,305,1672,6028,14776,-6,49,-12
4652.921,296,304,307,305,1672,6028,14776,-6,49,-12
4661.214,297,304,306,305,1672,6028,14776,-6,49,-12
4665.165,298,304,307,305,1672,6028,14776,-6,49,-12
4672.265,298,304,306,305,1672,6028,14776,-6,49,-12
4682.974,299,303,306,305,1624,6036,14880,-74,-16,-5
4685.351,300,303,306,306,1624,6036,14880,-74,-16,-5
4693.357,302,302,305,305,1624,6036,14880,-74,-16,-5
4695.291,302,303,305,305,1624,6036,14880,-74,-16,-5
4702.273,303,302,304,305,1624,6036,14880,-74,-16,-5
4705.3099999999995,303,302,304,305,1624,6036,14880,-74,-16,-5
4716.6230000000005,304,302,304,305,1624,6036,14880,-74,-16,-5
4717.489,304,302,303,305,1660,5956,14864,-44,22,-39
4725.915,305,302,304,305,1660,5956,14864,-44,22,-39
4730.613,305,302,303,305,1660,5956,14864,-44,22,-39
4735.174,306,302,303,305,1660,5956,14864,-44,22,-39
4738.601,305,302,302,304,1660,5956,14864,-44,22,-39
4749.692999999999,306,302,303,305,1660,5956,14864,-44,22,-39
4750.921,305,302,302,305,1660,5956,14864,-44,22,-39
4750.921,305,302,303,304,1660,5956,14864,-44,22,-39
4761.744000000001,305,303,302,305,1616,6060,14780,-69,57,-13
4767.996,304,302,302,305,1616,6060,14780,-69,57,-13
4771.999,304,303,301,304,1616,6060,14780,-69,57,-13
4776.629,304,302,302,305,1616,6060,14780,-69,57,-13
4783.262,304,302,303,305,1616,6060,14780,-69,57,-13
4787.915,305,302,303,305,1616,6060,14780,-69,57,-13
4793.97,304,303,302,305,1616,6060,14780,-69,57,-13
4801.102,304,303,302,305,1648,6096,14796,-142,54,-12
4806.0869999999995,303,304,303,305,1648,6096,14796,-142,54,-12
4814.725,302,304,303,305,1648,6096,14796,-142,54,-12
4816.738,301,304,303,305,1648,6096,14796,-142,54,-12
4827.4400000000005,301,304,303,305,1648,6096,14796,-142,54,-12
4827.4400000000005,301,304,303,305,1648,6096,14796,-142,54,-12
4833.515,300,304,303,305,1648,6096,14796,-142,54,-12
4838.153,299,305,304,305,1632,5980,14872,-75,17,-7
4846.095,298,304,305,306,1632,5980,14872,-75,17,-7
4849.6410000000005,298,304,304,306,1632,5980,14872,-75,17,-7
4854.155000000001,300,303,304,306,1632,5980,14872,-75,17,-7
4861.186,302,301,304,306,1632,5980,14872,-75,17,-7
4866.3150000000005,304,301,304,306,1632,5980,14872,-75,17,-7
4871.598,304,302,304,306,1632,5980,14872,-75,17,-7
4878.236,303,302,304,306,1632,5980,14872,-75,17,-7
4882.829,304,301,303,306,1640,6000,14792,-2,-19,1
4886.119,305,301,303,306,1640,6000,14792,-2,-19,1
4894.394,306,301,303,305,1640,6000,14792,-2,-19,1
4898.152999999999,306,301,303,306,1640,6000,14792,-2,-19,1
4905.158,307,301,303,306,1640,6000,14792,-2,-19,1
4905.158,306,301,303,305,1640,6000,14792,-2,-19,1
4916.446,307,301,303,305,1640,6000,14792,-2,-19,1
4916.446,308,301,302,305,1724,5988,14880,-158,-31,-24
4927.514999999999,308,302,302,306,1724,5988,14880,-158,-31,-24
4927.514999999999,308,302,301,305,1724,5988,14880,-158,-31,-24
4938.522,308,302,302,305,1724,5988,14880,-158,-31,-24
4943.982,309,302,302,306,1724,5988,14880,-158,-31,-24
4949.287,310,302,302,306,1724,5988,14880,-158,-31,-24
4951.669,309,302,302,305,1724,5988,14880,-158,-31,-24
4961.79,310,302,301,305,1668,5976,14880,-66,80,-29
4970.421,310,302,301,306,1668,5976,14880,-66,80,-29
4972.6759999999995,309,303,300,306,1668,5976,14880,-66,80,-29
4976.033,309,302,300,305,1668,5976,14880,-66,80,-29
4982.851000000001,310,303,300,306,1668,5976,14880,-66,80,-29
4989.187,311,302,300,306,1668,5976,14880,-66,80,-29
4994.114,311,301,300,306,1668,5976,14880,-66,80,-29
4996.7300000000005,312,302,300,306,1736,5988,14808,-81,14,-17
5006.415,311,302,300,306,1736,5988,14808,-81,14,-17
5006.415,311,302,300,306,1736,5988,14808,-81,14,-17
5016.3859999999995,312,302,300,306,1736,5988,14808,-81,14,-17
5022.496,313,302,300,306,1736,5988,14808,-81,14,-17
5027.163,314,302,299,306,1736,5988,14808,-81,14,-17
5029.7390000000005,315,302,298,306,1736,5988,14808,-81,14,-17
5038.700000000001,315,302,298,305,1736,5988,14808,-81,14,-17
5038.700000000001,315,302,298,306,1740,5968,14864,-202,-69,-13
5050.209,317,302,298,305,1740,5968,14864,-202,-69,-13
5050.209,317,303,298,305,1740,5968,14864,-202,-69,-13
5061.852,317,303,298,305,1740,5968,14864,-202,-69,-13
5061.852,317,303,297,305,1740,5968,14864,-202,-69,-13
5072.09,318,303,297,305,1740,5968,14864,-202,-69,-13
5081.005,317,304,296,305,1740,5968,14864,-202,-69,-13
5083.121,317,303,297,305,1628,6056,14820,-56,59,-4
5083.121,316,304,297,305,1628,6056,14820,-56,59,-4
5094.158,314,304,297,304,1628,6056,14820,-56,59,-4
5099.71,311,305,297,304,1628,6056,14820,-56,59,-4
5104.8330000000005,310,305,297,303,1628,6056,14820,-56,59,-4
5114.880999999999,308,305,297,303,1628,6056,14820,-56,59,-4
5117.463,306,306,297,303,1628,6056,14820,-56,59,-4
5117.463,305,306,297,303,1640,5996,14816,-97,53,-36
5127.583,303,306,297,302,1640,5996,14816,-97,53,-36
5133.125,300,307,297,301,1640,5996,14816,-97,53,-36
5139.0289999999995,298,307,297,301,1640,5996,14816,-97,53,-36
5140.527999999999,297,307,297,301,1640,5996,14816,-97,53,-36
5150.750999999999,296,307,297,300,1640,5996,14816,-97,53,-36
5150.750999999999,294,307,297,299,1640,5996,14816,-97,53,-36
5161.888,293,307,297,300,1632,6008,14792,-63,-95,-58
5161.888,293,307,298,300,1632,6008,14792,-63,-95,-58
5171.9980000000005,293,307,298,300,1632,6008,14792,-63,-95,-58
5178.479,292,306,298,300,1632,6008,14792,-63,-95,-58
5183.085,292,307,298,299,1632,6008,14792,-63,-95,-58
5185.235,291,306,298,299,1632,6008,14792,-63,-95,-58
5194.865,290,306,297,298,1632,6008,14792,-63,-95,-58
5194.865,290,306,297,298,1672,6036,14792,50,-27,-58
5205.543,291,305,298,298,1672,6036,14792,50,-27,-58
5205.543,292,305,297,297,1672,6036,14792,50,-27,-58
5216.721,292,304,297,296,1672,6036,14792,50,-27,-58
5225.4,293,304,297,296,1672,6036,14792,50,-27,-58
5227.643999999999,294,303,297,297,1672,6036,14792,50,-27,-58
5227.643999999999,295,303,296,296,1672,6036,14792,50,-27,-58
5238.847,296,302,296,297,1672,6036,14792,50,-27,-58
5238.847,296,302,295,298,1712,6028,14820,-89,-19,-10
5249.558,298,301,294,298,1712,6028,14820,-89,-19,-10
5255.204,299,301,293,299,1712,6028,14820,-89,-19,-10
5261.834000000001,301,300,292,300,1712,6028,14820,-89,-19,-10
5270.34,301,301,291,301,1712,6028,14820,-89,-19,-10
5272.281999999999,302,301,290,301,1712,6028,14820,-89,-19,-10
5272.281999999999,302,302,289,301,1712,6028,14820,-89,-19,-10
5282.941,303,303,289,303,1576,6072,14848,-38,23,-49
5288.54,308,301,288,304,1576,6072,14848,-38,23,-49
5293.876,309,301,288,304,1576,6072,14848,-38,23,-49
5299.756,311,301,286,304,1576,6072,14848,-38,23,-49
5305.504,312,302,287,305,1576,6072,14848,-38,23,-49
5307.922,312,303,287,306,1576,6072,14848,-38,23,-49
5316.687,312,303,287,306,1576,6072,14848,-38,23,-49
5321.012,312,304,287,306,1688,6016,14836,-125,47,-34
5326.933,312,304,287,306,1688,6016,14836,-125,47,-34
5333.392,312,305,287,305,1688,6016,14836,-125,47,-34
5338.597,312,304,287,305,1688,6016,14836,-125,47,-34
5340.886,311,304,288,306,1688,6016,14836,-125,47,-34
5350.204,310,304,287,306,1688,6016,14836,-125,47,-34
5359.106,309,303,288,305,1688,6016,14836,-125,47,-34
5361.811000000001,309,303,288,305,1672,5976,14720,-22,-20,0
5366.698,309,301,288,305,1672,5976,14720,-22,-20,0
5371.347,310,299,287,304,1672,5976,14720,-22,-20,0
5371.347,310,298,289,303,1672,5976,14720,-22,-20,0
5383.013,311,296,290,303,1672,5976,14720,-22,-20,0
5383.013,311,295,291,304,1672,5976,14720,-22,-20,0
5394.0599999999995,310,294,292,304,1672,5976,14720,-22,-20,0
5398.612,311,293,294,304,1672,5976,14720,-22,-20,0
5405.253,312,291,295,304,1668,6024,14848,-3,41,-20
5405.253,313,291,296,303,1668,6024,14848,-3,41,-20
5416.405,315,290,296,303,1668,6024,14848,-3,41,-20
5416.405,316,290,297,302,1668,6024,14848,-3,41,-20
5427.881,316,290,299,302,1668,6024,14848,-3,41,-20
5427.881,317,291,300,301,1668,6024,14848,-3,41,-20
5436.3279999999995,316,291,302,301,1668,6024,14848,-3,41,-20
5438.379,316,292,303,300,1612,6012,14792,-189,41,-33
5449.634,316,292,304,301,1612,6012,14792,-189,41,-33
5449.634,316,292,305,300,1612,6012,14792,-189,41,-33
5462.1230000000005,317,292,306,299,1612,6012,14792,-189,41,-33
5464.137,317,293,307,299,1612,6012,14792,-189,41,-33
5472.767,318,293,307,299,1612,6012,14792,-189,41,-33
5472.767,318,295,308,298,1612,6012,14792,-189,41,-33
5483.120000000001,318,295,308,298,1692,6056,14868,-68,71,-17
5491.2119999999995,317,296,308,299,1692,6056,14868,-68,71,-17
5494.416,317,296,307,299,1692,6056,14868,-68,71,-17
5494.416,316,297,309,300,1692,6056,14868,-68,71,-17
5505.563,315,298,309,301,1692,6056,14868,-68,71,-17
5505.563,314,299,308,302,1692,6056,14868,-68,71,-17
5514.364,312,300,308,303,1692,6056,14868,-68,71,-17
5516.398,310,301,309,305,1692,5968,14776,-77,54,-8
5527.422,308,303,308,307,1692,5968,14776,-77,54,-8
5527.422,306,303,307,308,1692,5968,14776,-77,54,-8
5538.627,305,303,307,309,1692,5968,14776,-77,54,-8
5541.835,304,304,308,310,1692,5968,14776,-77,54,-8
5541.835,303,304,307,311,1692,5968,14776,-77,54,-8
5550.376,303,304,306,312,1692,5968,14776,-77,54,-8
5558.531999999999,301,305,306,312,1692,5968,14776,-77,54,-8
5562.426,300,305,306,314,1648,6056,14804,-88,-21,-16
5572.245,300,306,306,314,1648,6056,14804,-88,-21,-16
5574.906999999999,299,306,305,315,1648,6056,14804,-88,-21,-16
5574.906999999999,299,305,306,315,1648,6056,14804,-88,-21,-16
5584.083,298,305,306,316,1648,6056,14804,-88,-21,-16
5591.215,298,304,305,316,1648,6056,14804,-88,-21,-16
5594.105,297,305,305,315,1648,6056,14804,-88,-21,-16
5605.265,297,305,305,316,1668,6088,14788,-70,52,-24
5605.265,296,305,305,315,1668,6088,14788,-70,52,-24
5616.734,296,305,305,314,1668,6088,14788,-70,52,-24
5616.734,297,305,305,313,1668,6088,14788,-70,52,-24
5625.581,297,305,306,313,1668,6088,14788,-70,52,-24
5628.115,297,305,306,312,1668,6088,14788,-70,52,-24
5636.655,297,304,306,311,1668,6088,14788,-70,52,-24
5639.069,297,305,307,310,1724,6052,14788,-62,61,-13
5649.982,298,304,307,310,1724,6052,14788,-62,61,-13
5655.139,298,305,307,309,1724,6052,14788,-62,61,-13
5659.066,298,305,307,308,1724,6052,14788,-62,61,-13
5663.588,298,305,307,308,1724,6052,14788,-62,61,-13
5668.384,298,305,307,308,1724,6052,14788,-62,61,-13
5673.054999999999,298,305,308,307,1724,6052,14788,-62,61,-13
5682.789,298,305,307,307,1724,6052,14788,-62,61,-13
5684.692,298,305,307,307,1628,6088,14832,-119,25,-18
5692.704,298,304,307,307,1628,6088,14832,-119,25,-18
5694.313,298,304,307,307,1628,6088,14832,-119,25,-18
5701.324,298,304,306,307,1628,6088,14832,-119,25,-18
5705.585,299,304,307,308,1628,6088,14832,-119,25,-18
5716.317,299,304,307,308,1628,6088,14832,-119,25,-18
5716.317,301,304,308,308,1628,6088,14832,-119,25,-18
5728.122,302,304,307,309,1676,6048,14868,-74,24,-13
5728.122,303,303,307,309,1676,6048,14868,-74,24,-13
5736.847,304,303,307,309,1676,6048,14868,-74,24,-13
5739.129,304,303,307,309,1676,6048,14868,-74,24,-13
5749.218,305,303,307,310,1676,6048,14868,-74,24,-13
5749.218,305,303,307,310,1676,6048,14868,-74,24,-13
5760.76,307,303,306,310,1676,6048,14868,-74,24,-13
5762.765,307,304,307,311,1644,6020,14736,36,-2,-35
5767.203,308,304,307,311,1644,6020,14736,36,-2,-35
5771.906000000001,307,303,306,311,1644,6020,14736,36,-2,-35
5779.969,306,304,306,310,1644,6020,14736,36,-2,-35
5782.943,307,304,306,310,1644,6020,14736,36,-2,-35
5787.8730000000005,307,304,306,310,1644,6020,14736,36,-2,-35
5795.365000000001,307,305,306,309,1644,6020,14736,36,-2,-35
5799.761,308,304,305,309,1700,6012,14896,-225,-54,-37
5805.111,308,304,305,308,1700,6012,14896,-225,-54,-37
5812.119,308,305,306,307,1700,6012,14896,-225,-54,-37
5817.189,308,305,306,307,1700,6012,14896,-225,-54,-37
5823.912,308,305,306,307,1700,6012,14896,-225,-54,-37
5827.559,308,306,305,306,1700,6012,14896,-225,-54,-37
5838.361,308,305,305,305,1700,6012,14896,-225,-54,-37
5838.361,307,305,304,305,1660,6008,14784,-19,30,-29
5849.952,307,305,303,305,1660,6008,14784,-19,30,-29
5852.942,307,305,302,305,1660,6008,14784,-19,30,-29
5852.942,306,304,301,304,1660,6008,14784,-19,30,-29
5862.87,306,305,301,304,1660,6008,14784,-19,30,-29
5872.058,305,305,301,304,1660,6008,14784,-19,30,-29
5872.058,305,305,300,304,1660,6008,14784,-19,30,-29
5882.382,305,305,300,303,1660,6008,14784,-19,30,-29
5885.241,304,305,300,303,1684,6024,14864,-90,96,-48
5885.241,305,304,299,303,1684,6024,14864,-90,96,-48
5894.76,304,304,299,303,1684,6024,14864,-90,96,-48
5904.518,304,304,299,303,1684,6024,14864,-90,96,-48
5908.966,303,304,299,304,1684,6024,14864,-90,96,-48
5916.527999999999,302,304,298,304,1684,6024,14864,-90,96,-48
5920.772,302,304,297,303,1684,6024,14864,-90,96,-48
5924.8640000000005,301,303,297,304,1692,5944,14736,-125,-37,-31
5929.905,301,304,297,304,1692,5944,14736,-125,-37,-31
5937.908,300,303,297,304,1692,5944,14736,-125,-37,-31
5938.544,299,303,296,304,1692,5944,14736,-125,-37,-31
5949.789,298,303,297,304,1692,5944,14736,-125,-37,-31
5949.789,298,303,296,304,1692,5944,14736,-125,-37,-31
5960.732,298,303,297,304,1692,5944,14736,-125,-37,-31
5963.261,298,303,297,305,1580,6008,14800,34,30,-52
5973.231,297,302,298,305,1580,6008,14800,34,30,-52
5973.231,297,302,298,305,1580,6008,14800,34,30,-52
5980.174,298,302,299,305,1580,6008,14800,34,30,-52
5983.111,298,302,299,305,1580,6008,14800,34,30,-52
5993.763999999999,298,303,300,305,1580,6008,14800,34,30,-52
5996.255,298,303,300,305,1580,6008,14800,34,30,-52
5996.255,298,303,301,305,1660,5968,14844,-68,5,-35
6006.739,299,303,301,304,1660,5968,14844,-68,5,-35
6012.924,299,302,301,304,1660,5968,14844,-68,5,-35
6016.4929999999995,300,303,301,304,1660,5968,14844,-68,5,-35
6027.419,300,303,302,304,1660,5968,14844,-68,5,-35
6029.021000000001,300,304,302,303,1660,5968,14844,-68,5,-35
6029.021000000001,301,304,302,303,1660,5968,14844,-68,5,-35
6039.335999999999,301,304,302,302,1660,5968,14844,-68,5,-35
6045.73,302,303,302,303,1744,6072,14856,-109,-9,-8
6050.125,302,304,302,303,1744,6072,14856,-109,-9,-8
6054.642000000001,301,304,303,302,1744,6072,14856,-109,-9,-8
6063.0199999999995,302,304,302,303,1744,6072,14856,-109,-9,-8
6063.0199999999995,302,304,302,303,1744,6072,14856,-109,-9,-8
6072.754,303,304,301,304,1744,6072,14856,-109,-9,-8
6081.065,301,305,302,304,1744,6072,14856,-109,-9,-8
6083.787,302,304,302,304,1664,6024,14792,-14,58,-42
6092.197999999999,302,304,301,304,1664,6024,14792,-14,58,-42
6094.643999999999,302,304,300,304,1664,6024,14792,-14,58,-42
6100.044,302,304,300,305,1664,6024,14792,-14,58,-42
6104.749,302,304,300,305,1664,6024,14792,-14,58,-42
6111.8240000000005,302,303,299,306,1664,6024,14792,-14,58,-42
6116.522,302,303,299,305,1664,6024,14792,-14,58,-42
6119.71,301,303,298,305,1616,5976,14828,-121,25,-26
6127.945000000001,301,303,298,306,1616,5976,14828,-121,25,-26
6136.849,301,303,299,306,1616,5976,14828,-121,25,-26
6138.943,301,303,299,305,1616,5976,14828,-121,25,-26
6145.273,303,303,299,306,1616,5976,14828,-121,25,-26
6149.931,302,303,299,306,1616,5976,14828,-121,25,-26
6157.991,302,303,300,306,1616,5976,14828,-121,25,-26
6160.8099999999995,302,303,300,306,1628,6004,14832,-33,18,-4
6164.804,303,303,302,306,1628,6004,14832,-33,18,-4
6173.079000000001,303,303,302,306,1628,6004,14832,-33,18,-4
6173.079000000001,303,303,302,306,1628,6004,14832,-33,18,-4
6183.168000000001,303,303,303,306,1628,6004,14832,-33,18,-4
6189.907,305,302,303,306,1628,6004,14832,-33,18,-4
6194.263,304,302,303,306,1628,6004,14832,-33,18,-4
6197.4619999999995,304,302,303,306,1628,6004,14832,-33,18,-4
6206.168,303,302,303,306,1676,6008,14872,-38,52,-39
6206.168,303,302,303,305,1676,6008,14872,-38,52,-39
6216.669,303,303,303,305,1676,6008,14872,-38,52,-39
6216.669,303,302,304,305,1676,6008,14872,-38,52,-39
6227.503,303,303,304,305,1676,6008,14872,-38,52,-39
6236.599,304,303,304,305,1676,6008,14872,-38,52,-39
6238.265,304,303,304,305,1676,6008,14872,-38,52,-39
6241.959,304,303,304,305,1604,5968,14760,-85,5,-7
6249.782,305,303,305,305,1604,5968,14760,-85,5,-7
6254.2119999999995,304,303,304,305,1604,5968,14760,-85,5,-7
6260.671,305,303,304,305,1604,5968,14760,-85,5,-7
6263.156,305,303,306,305,1604,5968,14760,-85,5,-7
6272.286,306,303,305,305,1604,5968,14760,-85,5,-7
6274.468,306,303,306,305,1604,5968,14760,-85,5,-7
6282.468,306,303,306,305,1604,5968,14760,-85,5,-7
6283.795999999999,307,304,306,306,1680,5976,14816,33,-38,20
6294.05,307,304,307,305,1680,5976,14816,33,-38,20
6294.072,306,304,307,305,1680,5976,14816,33,-38,20
6305.586,306,305,307,305,1680,5976,14816,33,-38,20
6307.8640000000005,306,304,307,306,1680,5976,14816,33,-38,20
6307.8640000000005,306,304,308,305,1680,5976,14816,33,-38,20
6317.523,306,304,308,305,1680,5976,14816,33,-38,20
6324.314,307,305,309,305,1692,6120,14668,275,-245,87
6327.7609999999995,306,305,308,305,1692,6120,14668,275,-245,87
6338.1720000000005,306,306,308,305,1692,6120,14668,275,-245,87
6340.221,306,305,308,304,1692,6120,14668,275,-245,87
6340.221,307,306,308,305,1692,6120,14668,275,-245,87
6350.565,307,306,307,305,1692,6120,14668,275,-245,87
6357.005,307,306,307,305,1692,6120,14668,275,-245,87
6365.146000000001,306,306,306,305,1716,6168,14716,289,-283,-1
6365.146000000001,307,306,306,305,1716,6168,14716,289,-283,-1
6372.822,306,306,304,304,1716,6168,14716,289,-283,-1
6383.169,306,306,304,305,1716,6168,14716,289,-283,-1
6385.266,305,307,304,305,1716,6168,14716,289,-283,-1
6385.266,305,307,303,304,1716,6168,14716,289,-283,-1
6394.712,306,306,303,304,1716,6168,14716,289,-283,-1
6402.191,306,306,302,304,1696,6148,14768,10,-83,-3
6405.402999999999,305,305,302,304,1696,6148,14768,10,-83,-3
6416.634,305,306,301,304,1696,6148,14768,10,-83,-3
6421.092,304,305,301,304,1696,6148,14768,10,-83,-3
6425.264,304,306,301,304,1696,6148,14768,10,-83,-3
6432.643,304,306,300,304,1696,6148,14768,10,-83,-3
6436.904,304,305,299,303,1696,6148,14768,10,-83,-3
6439.054999999999,303,305,299,302,1696,6148,14768,10,-83,-3
6449.6050000000005,304,304,299,301,1732,6048,14772,-96,147,-56
6449.6050000000005,303,304,299,302,1732,6048,14772,-96,147,-56
6455.402,303,304,299,302,1732,6048,14772,-96,147,-56
6463.888,302,304,298,302,1732,6048,14772,-96,147,-56
6467.495000000001,302,304,299,302,1732,6048,14772,-96,147,-56
6472.639,302,304,299,302,1732,6048,14772,-96,147,-56
6479.35,302,304,299,303,1732,6048,14772,-96,147,-56
6483.144,302,304,300,304,1556,5160,15072,-134,137,138
6494.225,302,304,300,305,1556,5160,15072,-134,137,138
6495.709,301,304,300,304,1556,5160,15072,-134,137,138
6505.413,301,304,300,304,1556,5160,15072,-134,137,138
6507.844999999999,299,304,299,305,1556,5160,15072,-134,137,138
6507.844999999999,299,303,298,305,1556,5160,15072,-134,137,138
6516.222,298,303,296,304,1556,5160,15072,-134,137,138
6527.687,298,302,296,303,2020,7116,15032,1304,-649,-439
6535.688,298,301,296,301,2020,7116,15032,1304,-649,-439
6538.741,298,300,296,299,2020,7116,15032,1304,-649,-439
6540.746,298,300,297,300,2020,7116,15032,1304,-649,-439
6550.285,298,299,297,301,2020,7116,15032,1304,-649,-439
6559.094,298,298,296,302,2020,7116,15032,1304,-649,-439
6564.094,299,298,296,303,2020,7116,15032,1304,-649,-439
6572.037,299,296,296,305,1396,4660,17496,-1998,1453,-1539
6572.037,301,293,295,307,1396,4660,17496,-1998,1453,-1539
6583.431,303,291,295,308,1396,4660,17496,-1998,1453,-1539
6586.342000000001,304,288,295,309,1396,4660,17496,-1998,1453,-1539
6595.137000000001,305,284,296,310,1396,4660,17496,-1998,1453,-1539
6595.137000000001,306,280,296,308,1396,4660,17496,-1998,1453,-1539
6605.375,308,275,295,310,1736,8280,16980,2957,2279,-1398
6612.185,310,269,292,310,1736,8280,16980,2957,2279,-1398
6616.374000000001,311,265,290,310,1736,8280,16980,2957,2279,-1398
6623.420999999999,311,262,286,311,1736,8280,16980,2957,2279,-1398
6627.994000000001,312,259,284,313,1736,8280,16980,2957,2279,-1398
6636.032,312,259,280,314,1736,8280,16980,2957,2279,-1398
6638.643,312,260,276,315,1736,8280,16980,2957,2279,-1398
6649.69,312,260,274,316,1912,9968,18136,3810,6148,-2306
6651.658,315,262,271,317,1912,9968,18136,3810,6148,-2306
6661.762000000001,318,264,271,317,1912,9968,18136,3810,6148,-2306
6670.348,321,268,272,317,1912,9968,18136,3810,6148,-2306
6674.288,324,272,273,318,1912,9968,18136,3810,6148,-2306
6682.848,328,277,281,319,1912,9968,18136,3810,6148,-2306
6682.848,334,283,292,320,1808,11208,14328,1805,11953,-5691
6694.022,341,295,310,321,1808,11208,14328,1805,11953,-5691
6696.551,345,306,325,323,1808,11208,14328,1805,11953,-5691
6705.83,352,325,346,327,1808,11208,14328,1805,11953,-5691
6708.715,358,343,361,330,1808,11208,14328,1805,11953,-5691
6716.478,363,371,376,336,1808,11208,14328,1805,11953,-5691
6727.138,366,404,385,344,1472,9716,18636,2269,14291,-7925
6729.362,370,453,392,354,1472,9716,18636,2269,14291,-7925
6739.511,373,497,390,361,1472,9716,18636,2269,14291,-7925
6739.511,376,569,376,369,1472,9716,18636,2269,14291,-7925
6749.699,378,640,358,377,1472,9716,18636,2269,14291,-7925
6749.699,380,722,324,382,1472,9716,18636,2269,14291,-7925
6764.491999999999,382,804,273,384,1472,9716,18636,2269,14291,-7925
6766.637000000001,380,857,261,391,-1276,8564,18500,-291,17300,-10200
6772.682,376,857,246,398,-1276,8564,18500,-291,17300,-10200
6782.991,369,844,228,405,-1276,8564,18500,-291,17300,-10200
6786.928,358,828,212,410,-1276,8564,18500,-291,17300,-10200
6795.1990000000005,344,803,194,415,-1276,8564,18500,-291,17300,-10200
6798.679,337,777,176,416,-1276,8564,18500,-291,17300,-10200
6805.103,334,744,161,417,-2216,9392,16888,4784,18870,-11348
6816.675,330,722,149,412,-2216,9392,16888,4784,18870,-11348
6819.613,324,713,144,406,-2216,9392,16888,4784,18870,-11348
6828.7300000000005,318,707,142,405,-2216,9392,16888,4784,18870,-11348
6828.7300000000005,309,699,141,408,-2216,9392,16888,4784,18870,-11348
6838.692,300,691,145,409,-2216,9392,16888,4784,18870,-11348
6848.868,287,680,150,406,-3852,7904,14472,2826,20439,-13462
6851.775,278,667,162,407,-3852,7904,14472,2826,20439,-13462
6861.664,270,652,183,410,-3852,7904,14472,2826,20439,-13462
6864.678,262,633,211,419,-3852,7904,14472,2826,20439,-13462
6871.818,250,609,248,432,-3852,7904,14472,2826,20439,-13462
6882.715,237,584,277,448,-3852,7904,14472,2826,20439,-13462
6884.915,220,554,313,468,-5128,5500,12364,1406,21919,-13783
6895.549,203,521,354,489,-5128,5500,12364,1406,21919,-13783
6895.549,190,487,383,507,-5128,5500,12364,1406,21919,-13783
6905.99,174,441,389,527,-5128,5500,12364,1406,21919,-13783
6905.99,152,385,392,553,-5128,5500,12364,1406,21919,-13783
6916.518,139,353,400,577,-5128,5500,12364,1406,21919,-13783
6927.303,127,321,407,606,-9748,3956,6172,-504,20982,-12843
6927.303,116,285,405,635,-9748,3956,6172,-504,20982,-12843
6938.455,111,256,389,656,-9748,3956,6172,-504,20982,-12843
6942.579000000001,112,207,335,682,-9748,3956,6172,-504,20982,-12843
6949.396,126,166,275,704,-9748,3956,6172,-504,20982,-12843
6955.367,137,127,216,717,-9748,3956,6172,-504,20982,-12843
6964.87,148,103,178,726,-9748,3956,6172,-504,20982,-12843
6971.884,158,78,140,733,-9112,1484,6476,-1752,18951,-10474
6974.872,170,35,84,740,-9112,1484,6476,-1752,18951,-10474
6983.826,175,4,48,740,-9112,1484,6476,-1752,18951,-10474
6987.414000000001,172,0,22,731,-9112,1484,6476,-1752,18951,-10474
6994.083,165,0,0,720,-9112,1484,6476,-1752,18951,-10474
6995.851,163,0,0,704,-9112,1484,6476,-1752,18951,-10474
7005.749,165,0,0,686,-10768,1100,4820,431,16698,-8455
7014.444,170,0,0,660,-10768,1100,4820,431,16698,-8455
7016.585,184,0,0,644,-10768,1100,4820,431,16698,-8455
7026.034000000001,201,0,0,637,-10768,1100,4820,431,16698,-8455
7028.475,221,0,0,625,-10768,1100,4820,431,16698,-8455
7032.402,246,0,0,611,-10768,1100,4820,431,16698,-8455
7038.492,276,0,0,599,-10768,1100,4820,431,16698,-8455
7045.719,298,0,0,593,-11592,60,3568,879,13095,-5304
7050.224,324,0,10,583,-11592,60,3568,879,13095,-5304
7057.423,339,0,28,577,-11592,60,3568,879,13095,-5304
7060.818,356,0,51,570,-11592,60,3568,879,13095,-5304
7072.040999999999,384,0,83,557,-11592,60,3568,879,13095,-5304
7072.040999999999,407,1,115,543,-11592,60,3568,879,13095,-5304
7083.033,430,24,153,523,-11592,60,3568,879,13095,-5304
7085.811,444,49,186,502,-12992,2060,4440,1020,9381,-4811
7085.811,450,90,224,477,-12992,2060,4440,1020,9381,-4811
7094.973000000001,449,119,249,464,-12992,2060,4440,1020,9381,-4811
7105.365,443,156,275,445,-12992,2060,4440,1020,9381,-4811
7111.795,428,178,288,426,-12992,2060,4440,1020,9381,-4811
7116.086,407,189,294,410,-12992,2060,4440,1020,9381,-4811
7123.4349999999995,379,191,299,394,-12992,2060,4440,1020,9381,-4811
7127.611,341,194,294,375,-14044,1968,3736,1422,5032,-4200
7135.301,307,198,289,358,-14044,1968,3736,1422,5032,-4200
7139.175,277,206,286,340,-14044,1968,3736,1422,5032,-4200
7149.84,254,213,282,323,-14044,1968,3736,1422,5032,-4200
7157.989,234,214,272,299,-14044,1968,3736,1422,5032,-4200
7160.698,223,219,271,282,-14044,1968,3736,1422,5032,-4200
7165.214,213,224,272,263,-15520,3320,5292,2137,3483,-3246
7172.67,206,219,270,239,-15520,3320,5292,2137,3483,-3246
7182.267000000001,204,217,274,217,-15520,3320,5292,2137,3483,-3246
7187.23,206,222,287,199,-15520,3320,5292,2137,3483,-3246
7193.97,213,229,302,180,-15520,3320,5292,2137,3483,-3246
7193.97,220,237,317,161,-15520,3320,5292,2137,3483,-3246
7205.531,230,244,335,143,-15100,3028,4420,1825,3286,-2244
7209.098,236,249,348,125,-15100,3028,4420,1825,3286,-2244
7216.391,242,251,363,110,-15100,3028,4420,1825,3286,-2244
7227.407999999999,252,256,378,96,-15100,3028,4420,1825,3286,-2244
7227.407999999999,261,262,392,82,-15100,3028,4420,1825,3286,-2244
7238.91,271,267,405,67,-15100,3028,4420,1825,3286,-2244
7238.91,279,278,417,56,-15100,3028,4420,1825,3286,-2244
7249.956,284,288,427,46,-15160,2812,4740,-197,2481,-2148
7249.956,292,299,433,35,-15160,2812,4740,-197,2481,-2148
7260.665,298,310,441,25,-15160,2812,4740,-197,2481,-2148
7268.781,305,321,447,21,-15160,2812,4740,-197,2481,-2148
7276.156,310,329,447,13,-15160,2812,4740,-197,2481,-2148
7281.624,315,340,452,8,-15160,2812,4740,-197,2481,-2148
7293.9800000000005,319,348,449,2,-15160,2812,4740,-197,2481,-2148
7293.9800000000005,323,354,449,0,-15300,2172,4964,-550,1592,-1836
7293.9800000000005,323,353,444,0,-15300,2172,4964,-550,1592,-1836
7305.755999999999,325,359,443,0,-15300,2172,4964,-550,1592,-1836
7305.755999999999,323,365,441,0,-15300,2172,4964,-550,1592,-1836
7316.360000000001,318,368,438,0,-15300,2172,4964,-550,1592,-1836
7316.360000000001,311,368,433,0,-15300,2172,4964,-550,1592,-1836
7327.291,308,370,433,0,-15524,1696,4680,-687,1535,-869
7331.887,304,370,430,0,-15524,1696,4680,-687,1535,-869
7338.213,302,370,431,0,-15524,1696,4680,-687,1535,-869
7344.048,300,372,430,0,-15524,1696,4680,-687,1535,-869
7349.349,299,370,431,0,-15524,1696,4680,-687,1535,-869
7355.816,300,369,431,0,-15524,1696,4680,-687,1535,-869
7361.022,302,367,431,0,-15524,1696,4680,-687,1535,-869
7365.478999999999,308,367,433,3,-15584,2532,4528,346,1181,-723
7373.049,315,368,433,6,-15584,2532,4528,346,1181,-723
7383.183,320,370,434,9,-15584,2532,4528,346,1181,-723
7383.183,328,372,434,12,-15584,2532,4528,346,1181,-723
7389.173000000001,336,376,433,15,-15584,2532,4528,346,1181,-723
7394.369000000001,340,377,432,17,-15584,2532,4528,346,1181,-723
7403.412,344,377,431,19,-15584,2532,4528,346,1181,-723
7405.160000000001,349,377,433,26,-15576,2988,5136,92,855,-969
7416.291,356,373,432,31,-15576,2988,5136,92,855,-969
7424.294,359,367,430,34,-15576,2988,5136,92,855,-969
7427.37,361,359,425,35,-15576,2988,5136,92,855,-969
7427.37,366,348,425,39,-15576,2988,5136,92,855,-969
7439.193,369,340,424,45,-15576,2988,5136,92,855,-969
7439.193,372,334,424,50,-15576,2988,5136,92,855,-969
7446.273,376,326,420,55,-15620,2032,4760,443,1025,-999
7449.626,379,320,417,58,-15620,2032,4760,443,1025,-999
7461.447,383,317,415,61,-15620,2032,4760,443,1025,-999
7466.829,387,312,411,66,-15620,2032,4760,443,1025,-999
7471.945,391,312,408,70,-15620,2032,4760,443,1025,-999
7474.744000000001,394,315,405,75,-15620,2032,4760,443,1025,-999
7484.127,394,317,401,79,-15620,2032,4760,443,1025,-999
7484.127,393,319,397,82,-15660,2496,4648,737,630,-435
7494.541,392,321,397,87,-15660,2496,4648,737,630,-435
7500.604,391,323,395,90,-15660,2496,4648,737,630,-435
7505.259,391,326,393,95,-15660,2496,4648,737,630,-435
7511.771000000001,388,327,388,97,-15660,2496,4648,737,630,-435
7517.057000000001,387,329,386,99,-15660,2496,4648,737,630,-435
7526.137000000001,387,333,388,105,-15660,2496,4648,737,630,-435
7527.907,384,335,389,109,-15584,2252,4536,337,787,-263
7538.845,380,338,388,115,-15584,2252,4536,337,787,-263
7538.845,379,339,387,118,-15584,2252,4536,337,787,-263
7549.991,377,341,387,123,-15584,2252,4536,337,787,-263
7549.991,374,342,387,128,-15584,2252,4536,337,787,-263
7561.098999999999,373,343,387,131,-15584,2252,4536,337,787,-263
7566.117,371,346,387,136,-15584,2252,4536,337,787,-263
7570.0070000000005,368,348,388,142,-15500,2160,4928,405,1288,-501
7580.1449999999995,365,349,389,147,-15500,2160,4928,405,1288,-501
7581.773,361,348,387,148,-15500,2160,4928,405,1288,-501
7589.758,358,347,389,155,-15500,2160,4928,405,1288,-501
7594.557,354,345,387,158,-15500,2160,4928,405,1288,-501
7597.8550000000005,352,344,391,163,-15500,2160,4928,405,1288,-501
7606.37,348,341,391,168,-15520,2064,4048,-50,927,-756
7616.939,343,337,389,173,-15520,2064,4048,-50,927,-756
7616.939,339,335,388,176,-15520,2064,4048,-50,927,-756
7627.867,336,333,389,181,-15520,2064,4048,-50,927,-756
7627.867,334,331,387,185,-15520,2064,4048,-50,927,-756
7635.597,330,330,385,188,-15520,2064,4048,-50,927,-756
7638.451,328,328,384,192,-15520,2064,4048,-50,927,-756
7649.783,325,328,381,194,-15980,2180,4420,-406,389,-47
7658.226,322,330,380,200,-15980,2180,4420,-406,389,-47
7661.06,319,332,381,204,-15980,2180,4420,-406,389,-47
7670.264999999999,317,332,379,207,-15980,2180,4420,-406,389,-47
7672.055,316,334,379,211,-15980,2180,4420,-406,389,-47
7681.142000000001,313,335,377,214,-15980,2180,4420,-406,389,-47
7683.084,311,336,377,217,-15980,2180,4420,-406,389,-47
7688.209,310,337,374,218,-15944,2064,5672,349,414,262
7693.95,308,338,373,221,-15944,2064,5672,349,414,262
7702.153,304,338,373,223,-15944,2064,5672,349,414,262
7707.5779999999995,302,338,368,224,-15944,2064,5672,349,414,262
7712.788,301,337,368,228,-15944,2064,5672,349,414,262
7716.887,302,336,367,229,-15944,2064,5672,349,414,262
7727.233,302,334,366,233,-15944,2064,5672,349,414,262
7728.762,304,331,364,235,-15724,2044,4120,12,-225,279
7739.395,304,328,361,237,-15724,2044,4120,12,-225,279
7739.395,304,326,360,239,-15724,2044,4120,12,-225,279
7747.876,302,324,355,242,-15724,2044,4120,12,-225,279
7750.049,302,323,353,244,-15724,2044,4120,12,-225,279
7758.168000000001,303,320,354,248,-15724,2044,4120,12,-225,279
7766.366,303,317,352,250,-15724,2044,4120,12,-225,279
7771.825,303,310,350,251,-15612,2584,4984,-149,-503,23
7779.922,303,306,348,253,-15612,2584,4984,-149,-503,23
7783.112,304,303,346,255,-15612,2584,4984,-149,-503,23
7786.098,304,301,346,259,-15612,2584,4984,-149,-503,23
7795.293,304,299,345,261,-15612,2584,4984,-149,-503,23
7795.293,304,297,344,262,-15612,2584,4984,-149,-503,23
7805.767000000001,305,295,343,265,-15612,2584,4984,-149,-503,23
7811.317,306,294,341,264,-15544,2304,5040,-503,-264,-30
7816.023999999999,306,295,340,267,-15544,2304,5040,-503,-264,-30
7822.758000000001,306,295,340,270,-15544,2304,5040,-503,-264,-30
7827.789,306,296,341,273,-15544,2304,5040,-503,-264,-30
7835.876,305,298,338,274,-15544,2304,5040,-503,-264,-30
7838.4890000000005,305,299,342,277,-15544,2304,5040,-503,-264,-30
7849.618,304,298,342,279,-15632,2392,5112,-293,-167,-22
7849.618,303,296,342,281,-15632,2392,5112,-293,-167,-22
7861.327,303,297,344,282,-15632,2392,5112,-293,-167,-22
7866.837,303,296,346,285,-15632,2392,5112,-293,-167,-22
7872.236,302,293,346,286,-15632,2392,5112,-293,-167,-22
7876.78,302,292,346,289,-15632,2392,5112,-293,-167,-22
7882.780000000001,303,290,346,291,-15632,2392,5112,-293,-167,-22
7888.366,305,288,344,292,-15816,2076,4636,-147,-1,-102
7893.995999999999,307,288,345,293,-15816,2076,4636,-147,-1,-102
7901.512000000001,309,288,344,293,-15816,2076,4636,-147,-1,-102
7905.184,310,287,343,294,-15816,2076,4636,-147,-1,-102
7913.464,310,289,341,294,-15816,2076,4636,-147,-1,-102
7916.371,310,291,339,294,-15816,2076,4636,-147,-1,-102
7927.669,310,293,338,295,-15816,2076,4636,-147,-1,-102
7929.9710000000005,311,294,337,297,-15640,1816,4916,-266,533,79
7939.769,310,295,335,296,-15640,1816,4916,-266,533,79
7939.769,310,297,335,297,-15640,1816,4916,-266,533,79
7949.886,311,299,333,299,-15640,1816,4916,-266,533,79
7954.542,311,299,330,298,-15640,1816,4916,-266,533,79
7960.247,309,299,329,300,-15640,1816,4916,-266,533,79
7968.672,309,299,327,302,-15640,1816,4916,-266,533,79
7971.851,309,297,324,301,-15800,2244,4540,454,391,-48
7974.935,310,296,325,303,-15800,2244,4540,454,391,-48
7983.5380000000005,310,295,323,304,-15800,2244,4540,454,391,-48
7983.5380000000005,312,293,320,305,-15800,2244,4540,454,391,-48
7994.213000000001,313,291,318,306,-15800,2244,4540,454,391,-48
7999.917,313,290,313,305,-15800,2244,4540,454,391,-48
8004.906999999999,314,289,314,307,-15800,2244,4540,454,391,-48
8011.17,315,289,313,308,-15748,2652,4464,274,347,-190
8016.460999999999,316,287,310,309,-15748,2652,4464,274,347,-190
8019.893,316,285,308,309,-15748,2652,4464,274,347,-190
8028.603999999999,314,284,306,309,-15748,2652,4464,274,347,-190
8036.972000000001,315,284,307,310,-15748,2652,4464,274,347,-190
8039.415,314,283,302,310,-15748,2652,4464,274,347,-190
8049.6269999999995,314,283,301,312,-15764,2352,4604,180,452,-288
8049.6269999999995,313,284,299,311,-15764,2352,4604,180,452,-288
8061.441000000001,314,285,299,314,-15764,2352,4604,180,452,-288
8064.879,312,285,298,314,-15764,2352,4604,180,452,-288
8071.564,314,287,297,316,-15764,2352,4604,180,452,-288
8072.803000000001,314,288,295,315,-15764,2352,4604,180,452,-288
8082.8640000000005,313,288,293,315,-15764,2352,4604,180,452,-288
8082.8640000000005,312,288,293,317,-15732,2052,4392,-14,296,-165
8094.797,310,289,291,316,-15732,2052,4392,-14,296,-165
8103.539,306,288,288,316,-15732,2052,4392,-14,296,-165
8105.802000000001,306,288,288,317,-15732,2052,4392,-14,296,-165
8109.638999999999,306,287,286,317,-15732,2052,4392,-14,296,-165
8116.107,306,287,289,319,-15732,2052,4392,-14,296,-165
8123.039000000001,305,287,288,319,-15732,2052,4392,-14,296,-165
8127.554999999999,304,285,287,318,-15800,2720,4976,467,191,-258
8134.677,303,286,286,319,-15800,2720,4976,467,191,-258
8139.607,303,287,287,320,-15800,2720,4976,467,191,-258
8147.259,303,289,286,320,-15800,2720,4976,467,191,-258
8149.699999999999,304,291,286,320,-15800,2720,4976,467,191,-258
8160.790999999999,304,292,287,318,-15800,2720,4976,467,191,-258
8160.790999999999,304,294,285,318,-15800,2720,4976,467,191,-258
8171.825,304,296,287,320,-15684,2348,4264,1109,229,-410
8175.68,304,297,288,320,-15684,2348,4264,1109,229,-410
8184.2699999999995,302,296,288,321,-15684,2348,4264,1109,229,-410
8184.2699999999995,301,296,289,323,-15684,2348,4264,1109,229,-410
8194.264000000001,300,293,290,323,-15684,2348,4264,1109,229,-410
8203.329,299,295,290,324,-15684,2348,4264,1109,229,-410
8204.959,298,297,291,325,-15684,2348,4264,1109,229,-410
8213.206,298,298,292,325,-15820,2492,4984,1002,487,-792
8218.856,297,300,294,326,-15820,2492,4984,1002,487,-792
8227.525,296,302,292,326,-15820,2492,4984,1002,487,-792
8227.563999999998,295,305,291,327,-15820,2492,4984,1002,487,-792
8238.654999999999,294,307,294,328,-15820,2492,4984,1002,487,-792
8246.717,293,308,294,328,-15820,2492,4984,1002,487,-792
8249.55,291,310,296,330,-15824,1692,3952,49,485,-421
8252.741,290,310,297,329,-15824,1692,3952,49,485,-421
8261.628,289,310,296,330,-15824,1692,3952,49,485,-421
8265.053,288,309,298,331,-15824,1692,3952,49,485,-421
8271.785,288,309,298,332,-15824,1692,3952,49,485,-421
8277.872000000001,288,306,299,332,-15824,1692,3952,49,485,-421
8283.101,288,305,301,330,-15824,1692,3952,49,485,-421
8285.779,289,302,303,330,-15852,1708,4328,-891,341,112
8294.788999999999,291,301,302,329,-15852,1708,4328,-891,341,112
8304.865,291,299,301,327,-15852,1708,4328,-891,341,112
8305.315999999999,292,299,302,327,-15852,1708,4328,-891,341,112
8316.385,294,298,304,327,-15852,1708,4328,-891,341,112
8316.385,294,297,303,327,-15852,1708,4328,-891,341,112
8325.901,296,296,304,326,-15852,1708,4328,-891,341,112
8328.592999999999,297,297,303,326,-15780,2248,4196,10,161,50
8335.493,297,296,300,325,-15780,2248,4196,10,161,50
8338.951,297,296,302,326,-15780,2248,4196,10,161,50
8349.84,298,297,301,326,-15780,2248,4196,10,161,50
8351.563,299,298,300,325,-15780,2248,4196,10,161,50
8361.708,300,299,300,325,-15780,2248,4196,10,161,50
8361.708,301,299,300,325,-15780,2248,4196,10,161,50
8368.974,301,299,300,325,-15788,2144,4036,415,217,-45
8372.05,303,299,299,325,-15788,2144,4036,415,217,-45
8381.197,303,298,300,326,-15788,2144,4036,415,217,-45
8383.376999999999,303,298,300,326,-15788,2144,4036,415,217,-45
8393.728,303,297,299,325,-15788,2144,4036,415,217,-45
8396.1,302,295,298,325,-15788,2144,4036,415,217,-45
8405.417,303,294,298,325,-15788,2144,4036,415,217,-45
8408.313,303,293,299,326,-15848,2124,4368,323,329,-209
8416.384,303,291,296,323,-15848,2124,4368,323,329,-209
8420.735999999999,302,290,296,323,-15848,2124,4368,323,329,-209
8427.223,303,292,298,326,-15848,2124,4368,323,329,-209
8427.223,303,293,298,327,-15848,2124,4368,323,329,-209
8439.0,303,295,297,326,-15848,2124,4368,323,329,-209
8447.781,303,296,296,325,-15848,2124,4368,323,329,-209
8449.938,304,296,295,325,-15896,2248,4320,-220,385,-262
8458.822,305,297,295,326,-15896,2248,4320,-220,385,-262
8460.85,304,297,294,326,-15896,2248,4320,-220,385,-262
8471.478,304,296,294,326,-15896,2248,4320,-220,385,-262
8471.478,303,298,293,326,-15896,2248,4320,-220,385,-262
8482.932,303,298,294,326,-15896,2248,4320,-220,385,-262
8486.693000000001,303,298,294,327,-15896,2248,4320,-220,385,-262
8486.693000000001,303,298,294,327,-15716,1656,4080,-616,507,82
8494.671,303,298,293,326,-15716,1656,4080,-616,507,82
8505.621,303,299,295,327,-15716,1656,4080,-616,507,82
8514.609,303,298,293,326,-15716,1656,4080,-616,507,82
8516.932,302,299,295,326,-15716,1656,4080,-616,507,82
8525.463,302,300,295,327,-15716,1656,4080,-616,507,82
8527.825,302,301,295,327,-15716,1656,4080,-616,507,82
8532.39,301,301,296,328,-15940,1880,4032,-46,188,202
8538.015,301,302,296,327,-15940,1880,4032,-46,188,202
8544.643,300,302,294,327,-15940,1880,4032,-46,188,202
8549.695,300,303,296,328,-15940,1880,4032,-46,188,202
8556.017,299,303,294,328,-15940,1880,4032,-46,188,202
8561.0,299,305,295,329,-15940,1880,4032,-46,188,202
8569.309000000001,299,304,296,329,-15940,1880,4032,-46,188,202
8572.526999999998,297,303,295,329,-15752,2184,4112,291,301,-75
8583.443000000001,296,304,293,329,-15752,2184,4112,291,301,-75
8583.443000000001,296,304,291,327,-15752,2184,4112,291,301,-75
8589.355,296,303,293,329,-15752,2184,4112,291,301,-75
8594.32,295,303,293,329,-15752,2184,4112,291,301,-75
8601.449,294,302,292,329,-15752,2184,4112,291,301,-75
8605.528,293,303,291,329,-15896,2552,4460,499,481,-184
8616.392,292,303,290,328,-15896,2552,4460,499,481,-184
8616.392,292,304,291,328,-15896,2552,4460,499,481,-184
8627.63,291,305,291,328,-15896,2552,4460,499,481,-184
8629.724,290,306,291,328,-15896,2552,4460,499,481,-184
8640.33,290,307,291,328,-15896,2552,4460,499,481,-184
8644.581,288,309,290,327,-15896,2552,4460,499,481,-184
8653.282000000001,287,311,291,328,-15904,2196,4044,60,580,-257
8657.501999999999,286,312,292,327,-15904,2196,4044,60,580,-257
8664.927,284,312,290,327,-15904,2196,4044,60,580,-257
8669.541000000001,284,313,291,326,-15904,2196,4044,60,580,-257
8672.029999999999,284,314,292,326,-15904,2196,4044,60,580,-257
8675.696,285,314,291,327,-15904,2196,4044,60,580,-257
8684.22,285,314,291,326,-15904,2196,4044,60,580,-257
8693.885,284,313,290,325,-15976,1744,3816,-817,428,-133
8694.624,285,313,291,325,-15976,1744,3816,-817,428,-133
8705.503,286,312,292,325,-15976,1744,3816,-817,428,-133
8705.503,287,311,292,325,-15976,1744,3816,-817,428,-133
8713.894,289,310,292,326,-15976,1744,3816,-817,428,-133
8717.006,290,308,291,325,-15976,1744,3816,-817,428,-133
8724.582,290,306,292,324,-15976,1744,3816,-817,428,-133
8727.458,290,304,293,325,-15968,2296,4216,-476,87,106
8739.001,291,302,292,323,-15968,2296,4216,-476,87,106
8742.298,293,302,293,324,-15968,2296,4216,-476,87,106
8749.854,294,301,293,325,-15968,2296,4216,-476,87,106
8749.854,296,298,290,323,-15968,2296,4216,-476,87,106
8760.589,298,298,291,323,-15968,2296,4216,-476,87,106
8765.569,300,297,289,323,-15968,2296,4216,-476,87,106
8771.699999999999,301,297,289,323,-15876,2112,3840,174,271,-103
8777.678,304,296,288,323,-15876,2112,3840,174,271,-103
8782.748,304,295,286,322,-15876,2112,3840,174,271,-103
8789.381000000001,306,295,287,323,-15876,2112,3840,174,271,-103
8794.304,308,295,288,323,-15876,2112,3840,174,271,-103
8797.875,308,295,288,323,-15876,2112,3840,174,271,-103
8806.18,310,294,288,323,-15876,2112,3840,174,271,-103
8816.372,311,294,287,322,-15904,2228,4512,373,301,-216
8816.372,308,294,286,321,-15904,2228,4512,373,301,-216
8827.396999999999,308,294,286,320,-15904,2228,4512,373,301,-216
8830.762,308,294,287,320,-15904,2228,4512,373,301,-216
8839.795,307,296,288,321,-15904,2228,4512,373,301,-216
8839.795,307,296,283,319,-15904,2228,4512,373,301,-216
8849.807999999999,308,299,288,321,-15912,1684,3684,47,365,-376
8857.95,309,300,288,321,-15912,1684,3684,47,365,-376
8860.827000000001,306,300,287,320,-15912,1684,3684,47,365,-376
8869.926,307,304,290,320,-15912,1684,3684,47,365,-376
8872.045,308,307,291,320,-15912,1684,3684,47,365,-376
8876.587000000001,308,308,292,320,-15912,1684,3684,47,365,-376
8882.98,308,309,292,320,-15912,1684,3684,47,365,-376
8888.579,308,309,292,320,-16012,2112,4120,161,178,-401
8893.945,307,310,292,319,-16012,2112,4120,161,178,-401
8900.21,307,309,294,320,-16012,2112,4120,161,178,-401
8905.25,306,309,296,320,-16012,2112,4120,161,178,-401
8912.226999999999,306,309,296,320,-16012,2112,4120,161,178,-401
8916.777,305,309,297,320,-16012,2112,4120,161,178,-401
8921.300000000001,305,309,297,319,-16012,2112,4120,161,178,-401
8928.568000000001,305,310,298,319,-15972,1912,4140,112,140,-305
8938.912,304,312,299,319,-15972,1912,4140,112,140,-305
8941.314,303,315,301,319,-15972,1912,4140,112,140,-305
8951.083999999999,303,317,302,320,-15972,1912,4140,112,140,-305
8951.083999999999,302,317,301,320,-15972,1912,4140,112,140,-305
8958.178,301,320,301,319,-15972,1912,4140,112,140,-305
8968.98,300,322,302,320,-15972,1912,4140,112,140,-305
8972.322999999999,300,323,302,320,-15952,1620,3912,-194,1,-85
8980.367,298,326,301,320,-15952,1620,3912,-194,1,-85
8983.269,299,326,302,319,-15952,1620,3912,-194,1,-85
8986.865,297,327,302,320,-15952,1620,3912,-194,1,-85
8994.199999999999,296,327,302,320,-15952,1620,3912,-194,1,-85
8999.097000000002,294,328,302,320,-15952,1620,3912,-194,1,-85
9005.241,294,327,301,320,-15952,1620,3912,-194,1,-85
9010.544,294,326,301,320,-16040,1992,4324,-168,-78,-31
9016.627,292,326,300,319,-16040,1992,4324,-168,-78,-31
9019.008,292,326,301,320,-16040,1992,4324,-168,-78,-31
9028.575,293,325,301,320,-16040,1992,4324,-168,-78,-31
9036.59,293,325,300,320,-16040,1992,4324,-168,-78,-31
9038.605,293,324,299,320,-16040,1992,4324,-168,-78,-31
9049.407000000001,293,322,299,320,-16040,1992,4324,-168,-78,-31
9049.407000000001,293,320,298,320,-16000,2060,4032,-146,137,82
9056.425000000001,293,318,298,320,-16000,2060,4032,-146,137,82
9061.139000000001,294,317,299,320,-16000,2060,4032,-146,137,82
9070.125,295,315,298,319,-16000,2060,4032,-146,137,82
9072.198,296,313,297,319,-16000,2060,4032,-146,137,82
9083.103,296,310,297,320,-16000,2060,4032,-146,137,82
9091.151,298,307,298,321,-16000,2060,4032,-146,137,82
9095.609,298,303,296,320,-16088,1948,3776,-471,175,119
9099.942000000001,300,300,297,321,-16088,1948,3776,-471,175,119
9107.442000000001,300,297,297,321,-16088,1948,3776,-471,175,119
9112.092,302,293,297,320,-16088,1948,3776,-471,175,119
9118.638,302,291,296,320,-16088,1948,3776,-471,175,119
9118.638,303,288,295,321,-16088,1948,3776,-471,175,119
9127.282,304,287,296,320,-16088,1948,3776,-471,175,119
9133.871,305,286,296,320,-16004,2092,3932,-238,309,-1
9138.688,307,284,296,321,-16004,2092,3932,-238,309,-1
9141.661,307,283,296,321,-16004,2092,3932,-238,309,-1
9150.529,306,282,297,321,-16004,2092,3932,-238,309,-1
9159.048,306,281,295,321,-16004,2092,3932,-238,309,-1
9161.085,307,280,295,321,-16004,2092,3932,-238,309,-1
9166.760999999999,306,280,297,321,-16004,2092,3932,-238,309,-1
9171.701000000001,307,279,297,321,-15932,1992,3724,-87,159,-143
9180.180999999999,308,278,296,320,-15932,1992,3724,-87,159,-143
9183.294,307,279,296,320,-15932,1992,3724,-87,159,-143
9191.592999999999,307,279,295,321,-15932,1992,3724,-87,159,-143
9194.153,307,281,294,320,-15932,1992,3724,-87,159,-143
9205.291000000001,307,282,297,321,-15932,1992,3724,-87,159,-143
9205.291000000001,307,284,298,321,-15992,2000,3852,-29,19,-106
9216.787,306,286,296,321,-15992,2000,3852,-29,19,-106
9221.064,306,287,296,319,-15992,2000,3852,-29,19,-106
9227.584,306,289,296,320,-15992,2000,3852,-29,19,-106
9231.799,307,291,297,321,-15992,2000,3852,-29,19,-106
9238.389,306,292,295,319,-15992,2000,3852,-29,19,-106
9240.474,305,294,297,320,-15992,2000,3852,-29,19,-106
9250.51,305,295,296,320,-15932,1900,4152,153,-82,-113
9259.541000000001,305,296,296,320,-15932,1900,4152,153,-82,-113
9263.351,304,297,297,320,-15932,1900,4152,153,-82,-113
9270.427,304,298,297,320,-15932,1900,4152,153,-82,-113
9272.582,303,298,298,320,-15932,1900,4152,153,-82,-113
9282.751,304,298,298,320,-15932,1900,4152,153,-82,-113
9284.934,302,298,298,320,-15932,1900,4152,153,-82,-113
9284.934,301,298,299,320,-15948,2060,4008,-65,65,-50
9294.33,301,297,298,319,-15948,2060,4008,-65,65,-50
9301.57,302,297,299,320,-15948,2060,4008,-65,65,-50
9305.656,302,295,299,319,-15948,2060,4008,-65,65,-50
9316.297,302,294,300,319,-15948,2060,4008,-65,65,-50
9316.297,302,293,300,318,-15948,2060,4008,-65,65,-50
9327.491,302,292,300,318,-15948,2060,4008,-65,65,-50
9330.484999999999,301,291,299,318,-16040,2008,4068,-152,228,-99
9330.484999999999,302,290,300,319,-16040,2008,4068,-152,228,-99
9339.841,302,289,300,317,-16040,2008,4068,-152,228,-99
9349.735,302,287,297,317,-16040,2008,4068,-152,228,-99
9357.899,302,286,297,317,-16040,2008,4068,-152,228,-99
9361.694,303,287,295,318,-16040,2008,4068,-152,228,-99
9370.076,305,286,295,317,-16040,2008,4068,-152,228,-99
9372.061,304,286,294,317,-15992,1716,3692,-395,256,60
9375.854000000001,304,286,294,317,-15992,1716,3692,-395,256,60
9383.0,304,287,293,316,-15992,1716,3692,-395,256,60
9388.096000000001,305,288,294,317,-15992,1716,3692,-395,256,60
9393.939,306,288,294,316,-15992,1716,3692,-395,256,60
9399.672,306,289,293,315,-15992,1716,3692,-395,256,60
9404.977,306,288,293,316,-15992,1716,3692,-395,256,60
9412.146,307,288,292,315,-16088,2072,3976,-76,204,20
9416.442,306,288,291,314,-16088,2072,3976,-76,204,20
9420.902999999998,307,287,292,314,-16088,2072,3976,-76,204,20
9428.264000000001,307,287,290,313,-16088,2072,3976,-76,204,20
9428.264000000001,306,287,289,313,-16088,2072,3976,-76,204,20
9438.22,305,287,290,313,-16088,2072,3976,-76,204,20
9447.83,304,287,290,311,-16088,2072,3976,-76,204,20
9450.285,305,288,286,311,-15928,1628,3644,3,126,33
9458.891,306,289,287,312,-15928,1628,3644,3,126,33
9461.143,305,290,286,312,-15928,1628,3644,3,126,33
9461.143,305,292,288,312,-15928,1628,3644,3,126,33
9470.573999999999,305,294,288,313,-15928,1628,3644,3,126,33
9480.485,304,295,288,313,-15928,1628,3644,3,126,33
9481.25,304,295,288,312,-15928,1628,3644,3,126,33
9489.291,304,295,288,311,-15928,1628,3644,3,126,33
9494.308,305,295,289,312,-15960,2444,4052,498,-402,110
9504.755,305,295,289,311,-15960,2444,4052,498,-402,110
9505.140000000001,306,295,289,312,-15960,2444,4052,498,-402,110
9511.398,305,294,290,312,-15960,2444,4052,498,-402,110
9516.332999999999,305,295,290,312,-15960,2444,4052,498,-402,110
9523.508,304,295,290,312,-15960,2444,4052,498,-402,110
9527.858,304,296,290,312,-15960,2444,4052,498,-402,110
9535.321,303,296,289,312,-15964,2260,4192,244,-22,-329
9538.804,301,298,288,312,-15964,2260,4192,244,-22,-329
9550.224999999999,301,300,284,312,-15964,2260,4192,244,-22,-329
9558.223999999998,300,301,281,312,-15964,2260,4192,244,-22,-329
9560.828000000001,299,303,278,311,-15964,2260,4192,244,-22,-329
9560.828000000001,300,304,276,312,-15964,2260,4192,244,-22,-329
9572.074,300,304,274,312,-15948,1708,3856,-184,224,-226
9576.464,300,305,275,312,-15948,1708,3856,-184,224,-226
9583.273000000001,300,306,276,312,-15948,1708,3856,-184,224,-226
9589.023,300,306,276,312,-15948,1708,3856,-184,224,-226
9594.309000000001,300,305,277,312,-15948,1708,3856,-184,224,-226
9600.547,300,303,279,311,-15948,1708,3856,-184,224,-226
9605.73,299,302,278,311,-15948,1708,3856,-184,224,-226
9613.488,301,301,283,311,-15988,1448,3556,-827,308,159
9616.180999999999,301,301,286,312,-15988,1448,3556,-827,308,159
9627.470000000001,302,302,289,311,-15988,1448,3556,-827,308,159
9627.470000000001,302,303,292,313,-15988,1448,3556,-827,308,159
9638.591999999999,302,304,293,312,-15988,1448,3556,-827,308,159
9641.869,303,304,297,313,-15988,1448,3556,-827,308,159
9650.717999999999,303,304,297,313,-15988,1448,3556,-827,308,159
9650.717999999999,305,303,300,313,-16096,1920,3884,-656,248,268
9660.949,306,303,302,313,-16096,1920,3884,-656,248,268
9669.387,305,302,303,312,-16096,1920,3884,-656,248,268
9671.291,305,302,305,313,-16096,1920,3884,-656,248,268
9674.261,305,301,305,312,-16096,1920,3884,-656,248,268
9683.175000000001,304,300,303,313,-16096,1920,3884,-656,248,268
9692.416,304,300,303,314,-16096,1920,3884,-656,248,268
9695.014000000001,304,300,300,313,-16004,1940,3544,13,97,42
9699.379,305,301,301,314,-16004,1940,3544,13,97,42
9706.403999999999,305,302,301,314,-16004,1940,3544,13,97,42
9711.705,304,302,301,314,-16004,1940,3544,13,97,42
9716.624,304,304,299,313,-16004,1940,3544,13,97,42
9719.92,306,305,298,314,-16004,1940,3544,13,97,42
9728.05,306,306,299,315,-16004,1940,3544,13,97,42
9728.05,306,306,298,314,-16052,2100,3656,171,-14,43
9738.951000000001,306,307,298,314,-16052,2100,3656,171,-14,43
9747.348,306,308,299,314,-16052,2100,3656,171,-14,43
9749.224,307,310,299,315,-16052,2100,3656,171,-14,43
9756.27,307,311,299,314,-16052,2100,3656,171,-14,43
9761.627,306,312,299,313,-16052,2100,3656,171,-14,43
9771.303,307,313,302,315,-16052,2100,3656,171,-14,43
9775.087,308,312,302,314,-15984,2200,3528,-24,40,-130
9778.679,309,312,301,314,-15984,2200,3528,-24,40,-130
9783.099,309,313,303,314,-15984,2200,3528,-24,40,-130
9790.384,309,313,304,315,-15984,2200,3528,-24,40,-130
9794.530999999999,309,312,304,315,-15984,2200,3528,-24,40,-130
9801.742,308,312,304,313,-15984,2200,3528,-24,40,-130
9805.371,308,311,307,314,-15984,2200,3528,-24,40,-130
9816.447,308,310,306,315,-16060,1852,3680,-457,166,-146
9817.644,307,310,308,315,-16060,1852,3680,-457,166,-146
9828.105000000001,308,310,308,314,-16060,1852,3680,-457,166,-146
9828.105000000001,306,310,309,314,-16060,1852,3680,-457,166,-146
9838.973,306,310,307,313,-16060,1852,3680,-457,166,-146
9841.99,305,312,310,315,-16060,1852,3680,-457,166,-146
9849.205,305,312,311,315,-16060,1852,3680,-457,166,-146
9854.843,305,313,311,314,-15936,1872,3800,-289,-62,74
9860.419,305,314,310,314,-15936,1872,3800,-289,-62,74
9866.618,306,314,311,314,-15936,1872,3800,-289,-62,74
9871.777,305,313,312,314,-15936,1872,3800,-289,-62,74
9874.998,305,312,311,314,-15936,1872,3800,-289,-62,74
9883.751999999999,304,311,311,314,-15936,1872,3800,-289,-62,74
9894.042000000001,306,310,310,313,-15936,1872,3800,-289,-62,74
9894.444,306,309,312,315,-16016,1848,3764,-119,55,19
9900.575,305,307,311,314,-16016,1848,3764,-119,55,19
9905.491,306,306,311,313,-16016,1848,3764,-119,55,19
9911.702,305,305,311,314,-16016,1848,3764,-119,55,19
9916.804,305,305,312,314,-16016,1848,3764,-119,55,19
9920.974,306,306,311,314,-16016,1848,3764,-119,55,19
9928.237,304,306,310,313,-16016,1848,3764,-119,55,19
9938.947,305,307,310,314,-15964,2012,4056,182,112,88
9938.947,304,308,311,314,-15964,2012,4056,182,112,88
9945.133,304,309,312,314,-15964,2012,4056,182,112,88
9949.947999999999,305,308,309,312,-15964,2012,4056,182,112,88
9957.243999999999,305,308,310,314,-15964,2012,4056,182,112,88
9960.815,306,308,311,313,-15964,2012,4056,182,112,88
9971.207,306,307,310,313,-15964,2012,4056,182,112,88
9972.262999999999,306,304,310,313,-16012,2004,3660,61,176,-106
9983.135,306,304,310,313,-16012,2004,3660,61,176,-106
9985.628999999999,307,304,309,312,-16012,2004,3660,61,176,-106
9996.558,307,304,310,314,-16012,2004,3660,61,176,-106
10000.634,307,303,310,313,-16012,2004,3660,61,176,-106
10004.349,306,301,309,313,-16012,2004,3660,61,176,-106
10012.377,307,302,310,314,-16012,2004,3660,61,176,-106
10016.477,306,302,308,312,-16044,1728,3928,-488,307,24
10020.592,305,302,310,312,-16044,1728,3928,-488,307,24
10027.864,305,302,310,313,-16044,1728,3928,-488,307,24
10027.864,304,302,309,313,-16044,1728,3928,-488,307,24
10038.664,306,302,309,313,-16044,1728,3928,-488,307,24
10043.775,305,302,309,313,-16044,1728,3928,-488,307,24
10049.515,305,302,308,312,-16044,1728,3928,-488,307,24
10055.021,305,302,308,313,-16024,1800,3436,-581,142,177
10060.646,305,302,309,313,-16024,1800,3436,-581,142,177
10063.58,305,301,308,313,-16024,1800,3436,-581,142,177
10073.529,305,301,308,313,-16024,1800,3436,-581,142,177
10082.594000000001,306,301,309,314,-16024,1800,3436,-581,142,177
10083.333,306,301,309,314,-16024,1800,3436,-581,142,177
10094.189999999999,305,300,308,314,-16024,1800,3436,-581,142,177
10094.189999999999,304,300,307,314,-15964,1956,3864,-488,-94,281
10105.423,305,301,307,315,-15964,1956,3864,-488,-94,281
10105.423,305,300,306,314,-15964,1956,3864,-488,-94,281
10113.492,305,300,306,314,-15964,1956,3864,-488,-94,281
10116.390000000001,305,301,306,314,-15964,1956,3864,-488,-94,281
10127.383,306,300,307,314,-15964,1956,3864,-488,-94,281
10135.451,305,301,306,314,-16080,2320,3900,274,-18,61
10138.942000000001,305,300,305,313,-16080,2320,3900,274,-18,61
10141.244999999999,305,300,304,313,-16080,2320,3900,274,-18,61
10150.216,304,301,305,314,-16080,2320,3900,274,-18,61
10150.216,303,302,304,314,-16080,2320,3900,274,-18,61
10160.831999999999,303,305,304,313,-16080,2320,3900,274,-18,61
10166.479000000001,304,306,305,314,-16080,2320,3900,274,-18,61
10171.569,304,308,305,313,-16080,2320,3900,274,-18,61
10171.569,303,309,303,313,-16000,1976,3684,157,-20,-194
10183.43,302,309,304,312,-16000,1976,3684,157,-20,-194
10192.196,302,309,304,312,-16000,1976,3684,157,-20,-194
10194.628,302,309,304,312,-16000,1976,3684,157,-20,-194
10200.119,301,309,305,311,-16000,1976,3684,157,-20,-194
10205.226,301,307,303,311,-16000,1976,3684,157,-20,-194
10210.933,301,307,305,311,-16056,1960,3704,-212,-49,-59
10216.185,302,307,305,311,-16056,1960,3704,-212,-49,-59
10225.495,303,307,306,311,-16056,1960,3704,-212,-49,-59
10227.756,302,308,307,311,-16056,1960,3704,-212,-49,-59
10238.541,302,308,306,310,-16056,1960,3704,-212,-49,-59
10238.583,303,310,308,311,-16056,1960,3704,-212,-49,-59
10250.508,303,310,310,311,-16056,1960,3704,-212,-49,-59
10252.193,303,310,310,311,-16048,2104,3856,-304,110,4
10262.562000000002,303,311,311,311,-16048,2104,3856,-304,110,4
10262.562000000002,303,310,312,310,-16048,2104,3856,-304,110,4
10272.055999999999,303,310,311,310,-16048,2104,3856,-304,110,4
10272.055999999999,303,309,313,310,-16048,2104,3856,-304,110,4
10283.562,303,309,311,308,-16048,2104,3856,-304,110,4
10286.473000000002,304,309,314,310,-16048,2104,3856,-304,110,4
10294.912,305,309,315,310,-16064,2008,3752,-158,273,-76
10294.912,305,309,315,309,-16064,2008,3752,-158,273,-76
10305.594,306,309,315,310,-16064,2008,3752,-158,273,-76
10305.594,307,311,315,311,-16064,2008,3752,-158,273,-76
10316.461000000001,306,311,312,309,-16064,2008,3752,-158,273,-76
10324.87,306,311,313,310,-16064,2008,3752,-158,273,-76
10326.651,306,311,313,310,-16064,2008,3752,-158,273,-76
10333.683,307,310,311,310,-16068,2004,3704,128,233,-254
10338.577000000001,307,310,309,309,-16068,2004,3704,128,233,-254
10347.274000000001,306,310,309,310,-16068,2004,3704,128,233,-254
10349.761,306,310,307,310,-16068,2004,3704,128,233,-254
10354.838000000002,305,310,304,309,-16068,2004,3704,128,233,-254
10361.635,304,309,303,308,-16068,2004,3704,128,233,-254
10372.066,305,310,303,309,-16068,2004,3704,128,233,-254
10374.522,305,310,303,309,-16000,1772,3452,173,98,-112
10384.228000000001,305,311,302,308,-16000,1772,3452,173,98,-112
10384.228000000001,306,311,301,309,-16000,1772,3452,173,98,-112
10394.118,304,311,301,309,-16000,1772,3452,173,98,-112
10402.139,304,311,299,309,-16000,1772,3452,173,98,-112
10405.273,304,312,300,309,-16000,1772,3452,173,98,-112
10414.275,304,312,300,309,-16000,1772,3452,173,98,-112
10416.473999999998,303,312,298,309,-16060,1684,3584,-71,-85,85
10419.125,303,311,295,308,-16060,1684,3584,-71,-85,85
10427.132,303,311,296,309,-16060,1684,3584,-71,-85,85
10431.886999999999,303,311,296,309,-16060,1684,3584,-71,-85,85
10438.408000000001,302,310,293,309,-16060,1684,3584,-71,-85,85
10438.408000000001,301,311,292,309,-16060,1684,3584,-71,-85,85
10450.680999999999,300,310,291,309,-16060,1684,3584,-71,-85,85
10459.045,301,311,289,310,-16024,1892,3788,-39,-130,184
10461.321,301,312,289,310,-16024,1892,3788,-39,-130,184
10471.722,300,312,287,309,-16024,1892,3788,-39,-130,184
10471.722,301,313,286,309,-16024,1892,3788,-39,-130,184
10477.394,301,312,285,310,-16024,1892,3788,-39,-130,184
10483.2,301,312,284,310,-16024,1892,3788,-39,-130,184
10490.269,302,312,283,309,-16024,1892,3788,-39,-130,184
10494.833,302,312,283,310,-15972,2032,3856,-117,-74,227
10502.046,302,311,283,310,-15972,2032,3856,-117,-74,227
10505.126,302,310,283,309,-15972,2032,3856,-117,-74,227
10516.179,302,309,284,310,-15972,2032,3856,-117,-74,227
10524.22,303,309,284,309,-15972,2032,3856,-117,-74,227
10527.195000000002,303,310,285,309,-15972,2032,3856,-117,-74,227
10527.195000000002,303,309,284,309,-15972,2032,3856,-117,-74,227
10538.379,303,309,286,309,-15968,2340,3908,136,-36,92
10542.873,304,310,286,309,-15968,2340,3908,136,-36,92
10549.356,304,310,288,309,-15968,2340,3908,136,-36,92
10550.866,304,310,287,309,-15968,2340,3908,136,-36,92
10560.923,303,310,287,308,-15968,2340,3908,136,-36,92
10570.128,304,310,288,307,-15968,2340,3908,136,-36,92
10572.204,303,310,288,307,-15968,2340,3908,136,-36,92
10572.204,303,311,290,309,-15944,2184,3692,-43,230,-111
10583.322,303,311,292,309,-15944,2184,3692,-43,230,-111
10588.892,303,311,291,309,-15944,2184,3692,-43,230,-111
10593.883,303,311,292,309,-15944,2184,3692,-43,230,-111
10599.885,303,311,290,307,-15944,2184,3692,-43,230,-111
10606.17,304,311,292,307,-15944,2184,3692,-43,230,-111
10614.421999999999,303,312,294,308,-15944,2184,3692,-43,230,-111
10616.059,303,313,294,307,-16000,1780,3560,-284,71,73
10620.499,303,312,297,307,-16000,1780,3560,-284,71,73
10627.651,302,312,296,307,-16000,1780,3560,-284,71,73
10638.721,303,312,297,307,-16000,1780,3560,-284,71,73
10640.819000000001,302,312,299,307,-16000,1780,3560,-284,71,73
10648.819,302,310,298,305,-16000,1780,3560,-284,71,73
10650.989,302,310,298,306,-16000,1780,3560,-284,71,73
10657.512,302,309,299,306,-15976,2040,3544,-179,-15,43
10660.863000000001,302,309,300,307,-15976,2040,3544,-179,-15,43
10672.292000000001,301,309,301,307,-15976,2040,3544,-179,-15,43
10672.292000000001,301,307,301,307,-15976,2040,3544,-179,-15,43
10683.095,302,306,297,306,-15976,2040,3544,-179,-15,43
10685.586000000001,301,306,296,305,-15976,2040,3544,-179,-15,43
10694.909000000001,302,306,297,306,-15976,2040,3544,-179,-15,43
10697.846,303,305,298,307,-16100,2136,3764,57,-53,-33
10705.019,303,304,298,307,-16100,2136,3764,57,-53,-33
10705.019,303,303,296,306,-16100,2136,3764,57,-53,-33
10716.378,303,302,296,306,-16100,2136,3764,57,-53,-33
10716.378,304,301,294,305,-16100,2136,3764,57,-53,-33
10728.058,304,301,296,306,-16100,2136,3764,57,-53,-33
10728.058,305,299,297,306,-16100,2136,3764,57,-53,-33
10738.98,305,300,297,307,-15968,2024,3548,95,-25,-7
10743.454,305,300,298,306,-15968,2024,3548,95,-25,-7
10749.351,305,301,298,307,-15968,2024,3548,95,-25,-7
10749.351,306,302,299,307,-15968,2024,3548,95,-25,-7
10760.593,306,302,300,307,-15968,2024,3548,95,-25,-7
10760.593,306,303,301,307,-15968,2024,3548,95,-25,-7
10772.374,306,303,300,306,-15968,2024,3548,95,-25,-7
10772.374,305,304,302,307,-16084,2036,3780,-160,45,-21
10782.863000000001,305,304,303,307,-16084,2036,3780,-160,45,-21
10791.002,305,303,303,307,-16084,2036,3780,-160,45,-21
10794.076000000001,304,303,302,307,-16084,2036,3780,-160,45,-21
10803.269,304,303,302,306,-16084,2036,3780,-160,45,-21
10807.423999999999,304,303,303,306,-16084,2036,3780,-160,45,-21
10809.212000000001,304,304,304,307,-16084,2036,3780,-160,45,-21
10816.097,304,304,303,306,-16012,1940,3764,-255,179,-14
10821.771999999999,303,305,303,307,-16012,1940,3764,-255,179,-14
10827.079,303,307,306,307,-16012,1940,3764,-255,179,-14
10833.362,302,308,305,307,-16012,1940,3764,-255,179,-14
10838.728,303,309,306,306,-16012,1940,3764,-255,179,-14
10846.377,304,311,308,307,-16012,1940,3764,-255,179,-14
10849.52,305,311,307,307,-16012,1940,3764,-255,179,-14
10860.769,304,311,307,307,-16052,2044,3652,-219,115,-11
10860.769,304,311,306,306,-16052,2044,3652,-219,115,-11
10871.811,304,311,308,307,-16052,2044,3652,-219,115,-11
10874.788,305,311,307,307,-16052,2044,3652,-219,115,-11
10884.93,304,310,306,306,-16052,2044,3652,-219,115,-11
10884.93,304,310,306,305,-16052,2044,3652,-219,115,-11
10894.424,304,310,308,306,-16052,2044,3652,-219,115,-11
10899.060000000001,305,310,307,306,-16068,2080,3360,-101,42,-41
10905.166,304,310,307,306,-16068,2080,3360,-101,42,-41
10905.166,304,310,307,307,-16068,2080,3360,-101,42,-41
10916.743,304,309,304,306,-16068,2080,3360,-101,42,-41
10925.546,306,310,305,306,-16068,2080,3360,-101,42,-41
10927.677,305,310,304,306,-16068,2080,3360,-101,42,-41
10927.677,306,309,304,306,-16080,1952,3584,-145,122,-89
10939.137,306,307,302,305,-16080,1952,3584,-145,122,-89
10947.185,306,306,303,305,-16080,1952,3584,-145,122,-89
10949.616,306,305,302,306,-16080,1952,3584,-145,122,-89
10957.708,306,304,301,306,-16080,1952,3584,-145,122,-89
10960.778,306,303,301,306,-16080,1952,3584,-145,122,-89
10971.537,306,301,301,307,-16080,1952,3584,-145,122,-89
10971.921,306,300,298,305,-15980,2012,3688,-274,-121,-1
10983.404999999999,305,301,299,305,-15980,2012,3688,-274,-121,-1
10983.404999999999,305,300,298,305,-15980,2012,3688,-274,-121,-1
10994.632,306,300,299,306,-15980,2012,3688,-274,-121,-1
10994.632,306,301,298,306,-15980,2012,3688,-274,-121,-1
11005.07,306,302,297,306,-15980,2012,3688,-274,-121,-1
11010.101999999999,306,302,297,306,-15980,2012,3688,-274,-121,-1
11016.01,306,302,297,307,-16112,2000,3728,-589,-146,32
11022.393,307,302,296,306,-16112,2000,3728,-589,-146,32
11027.369999999999,307,303,297,307,-16112,2000,3728,-589,-146,32
11030.092,307,302,296,308,-16112,2000,3728,-589,-146,32
11038.759,306,303,294,307,-16112,2000,3728,-589,-146,32
11047.948,306,304,296,307,-16112,2000,3728,-589,-146,32
11050.128,307,305,296,308,-16112,2000,3728,-589,-146,32
11060.561,307,306,295,307,-15940,1960,4108,-392,-133,125
11060.561,306,307,295,307,-15940,1960,4108,-392,-133,125
11072.08,306,308,296,307,-15940,1960,4108,-392,-133,125
11075.336,307,310,297,307,-15940,1960,4108,-392,-133,125
11084.244999999999,306,311,297,308,-15940,1960,4108,-392,-133,125
11084.244999999999,306,312,296,307,-15940,1960,4108,-392,-133,125
11094.362000000001,307,313,297,308,-15940,1960,4108,-392,-133,125
11100.758000000002,306,313,295,307,-16076,2084,3796,-1,-63,63
11105.37,306,311,296,306,-16076,2084,3796,-1,-63,63
11115.015,307,310,293,306,-16076,2084,3796,-1,-63,63
11117.008,307,310,298,308,-16076,2084,3796,-1,-63,63
11117.008,306,309,299,308,-16076,2084,3796,-1,-63,63
11127.482,305,309,299,308,-16076,2084,3796,-1,-63,63
11133.772,304,308,300,308,-16076,2084,3796,-1,-63,63
11138.377,304,308,300,308,-16032,2044,4092,-127,-234,128
11140.874,304,307,301,308,-16032,2044,4092,-127,-234,128
11150.587,303,307,300,307,-16032,2044,4092,-127,-234,128
11159.062,303,307,300,306,-16032,2044,4092,-127,-234,128
11161.037,303,307,302,307,-16032,2044,4092,-127,-234,128
11172.089,303,307,303,308,-16032,2044,4092,-127,-234,128
11172.089,304,307,303,308,-16100,1904,3736,-116,17,99
11183.348,304,307,303,308,-16100,1904,3736,-116,17,99
11186.105,304,307,304,308,-16100,1904,3736,-116,17,99
11186.105,305,306,304,308,-16100,1904,3736,-116,17,99
11195.508,305,306,303,307,-16100,1904,3736,-116,17,99
11202.381000000001,305,306,302,307,-16100,1904,3736,-116,17,99
11205.238,305,306,304,307,-16100,1904,3736,-116,17,99
11216.572,304,305,304,307,-16100,1904,3736,-116,17,99
11216.572,303,304,303,306,-16024,2140,3564,8,-90,51
11223.224,303,305,305,308,-16024,2140,3564,8,-90,51
11227.883,303,305,303,307,-16024,2140,3564,8,-90,51
11235.566,304,304,306,308,-16024,2140,3564,8,-90,51
11238.557,303,304,308,308,-16024,2140,3564,8,-90,51
11243.69,303,304,308,308,-16024,2140,3564,8,-90,51
11250.274,302,304,307,309,-16024,2140,3564,8,-90,51
11255.67,303,304,308,309,-16052,2172,3900,-233,-182,134
11260.797,303,304,308,308,-16052,2172,3900,-233,-182,134
11267.614,302,304,307,308,-16052,2172,3900,-233,-182,134
11272.456,301,304,306,308,-16052,2172,3900,-233,-182,134
11283.059,301,304,306,307,-16052,2172,3900,-233,-182,134
11283.059,301,305,309,308,-16052,2172,3900,-233,-182,134
11294.122,301,306,310,309,-16052,2172,3900,-233,-182,134
11303.249,299,307,309,308,-16024,1944,3772,-220,-199,79
11305.335,299,307,309,308,-16024,1944,3772,-220,-199,79
11315.341999999999,298,307,308,307,-16024,1944,3772,-220,-199,79
11319.108,298,309,309,309,-16024,1944,3772,-220,-199,79
11321.692000000001,298,308,310,309,-16024,1944,3772,-220,-199,79
11327.233,299,309,310,310,-16024,1944,3772,-220,-199,79
11334.024,298,309,308,309,-16024,1944,3772,-220,-199,79
11338.815,298,308,307,309,-16044,1984,4180,-401,-75,84
11345.744,297,308,305,308,-16044,1984,4180,-401,-75,84
11350.679,298,309,304,309,-16044,1984,4180,-401,-75,84
11359.687,298,310,304,309,-16044,1984,4180,-401,-75,84
11364.869,299,310,303,309,-16044,1984,4180,-401,-75,84
11372.059,297,309,302,310,-16044,1984,4180,-401,-75,84
11376.188,298,309,301,309,-15972,2056,3808,-166,6,129
11384.443,298,310,300,309,-15972,2056,3808,-166,6,129
11386.495,298,309,299,309,-15972,2056,3808,-166,6,129
11393.714,298,308,299,309,-15972,2056,3808,-166,6,129
11394.619,299,308,299,309,-15972,2056,3808,-166,6,129
11405.509,299,307,300,309,-15972,2056,3808,-166,6,129
11405.509,300,306,300,308,-15972,2056,3808,-166,6,129
11416.271,299,305,300,308,-15972,2056,3808,-166,6,129
11419.520999999999,300,305,299,308,-16084,2028,3704,71,-50,-14
11428.835,300,305,300,308,-16084,2028,3704,71,-50,-14
11428.835,300,304,300,308,-16084,2028,3704,71,-50,-14
11438.707,300,303,300,308,-16084,2028,3704,71,-50,-14
11446.728000000001,300,303,297,306,-16084,2028,3704,71,-50,-14
11450.034,301,302,298,307,-16084,2028,3704,71,-50,-14
11450.034,301,302,298,308,-16084,2028,3704,71,-50,-14
11461.694,301,301,298,308,-16064,2064,3952,30,49,61
11461.694,301,301,296,307,-16064,2064,3952,30,49,61
11470.06,301,301,295,307,-16064,2064,3952,30,49,61
11472.405999999999,302,301,295,308,-16064,2064,3952,30,49,61
11483.218,302,301,294,307,-16064,2064,3952,30,49,61
11483.218,302,301,292,306,-16064,2064,3952,30,49,61
11494.573,303,301,291,306,-16064,2064,3952,30,49,61
11494.573,304,302,291,307,-16104,2332,3616,378,60,-53
11503.394999999999,304,303,290,306,-16104,2332,3616,378,60,-53
11507.795,304,303,291,307,-16104,2332,3616,378,60,-53
11514.431,304,302,291,306,-16104,2332,3616,378,60,-53
11516.956,305,302,291,307,-16104,2332,3616,378,60,-53
11527.626,305,302,291,306,-16104,2332,3616,378,60,-53
11527.626,305,302,291,306,-16104,2332,3616,378,60,-53
11539.218,305,301,290,306,-15896,2136,3748,-119,-74,-14
11539.218,306,302,293,306,-15896,2136,3748,-119,-74,-14
11550.104,305,301,293,306,-15896,2136,3748,-119,-74,-14
11550.104,305,301,295,306,-15896,2136,3748,-119,-74,-14
11560.697,304,302,294,306,-15896,2136,3748,-119,-74,-14
11569.127,304,302,296,305,-15896,2136,3748,-119,-74,-14
11572.054,304,302,297,306,-15896,2136,3748,-119,-74,-14
11580.636,304,301,296,305,-16076,2092,3768,-108,102,-87
11583.283,304,302,297,305,-16076,2092,3768,-108,102,-87
11587.521,305,301,298,305,-16076,2092,3768,-108,102,-87
11594.125,305,302,299,305,-16076,2092,3768,-108,102,-87
11605.326,304,303,298,305,-16076,2092,3768,-108,102,-87
11607.395999999999,304,303,298,305,-16076,2092,3768,-108,102,-87
11615.417000000001,304,303,299,305,-16076,2092,3768,-108,102,-87
11617.566,306,304,299,306,-15900,1892,3632,-206,-245,40
11624.446,305,305,301,306,-15900,1892,3632,-206,-245,40
11627.537,305,305,300,306,-15900,1892,3632,-206,-245,40
11638.354,305,306,301,307,-15900,1892,3632,-206,-245,40
11646.751,305,307,300,306,-15900,1892,3632,-206,-245,40
11649.935,306,307,301,306,-15900,1892,3632,-206,-245,40
11649.935,306,307,301,306,-15900,1892,3632,-206,-245,40
11660.639,307,307,303,307,-16000,2020,4144,-467,-100,137
11665.303,308,307,303,307,-16000,2020,4144,-467,-100,137
11672.053,308,307,304,307,-16000,2020,4144,-467,-100,137
11677.559000000001,308,307,304,307,-16000,2020,4144,-467,-100,137
11682.658,306,307,304,307,-16000,2020,4144,-467,-100,137
11689.58,306,308,302,306,-16000,2020,4144,-467,-100,137
11697.646999999999,307,307,305,307,-15996,2240,3752,25,-115,-133
11697.646999999999,306,307,305,306,-15996,2240,3752,25,-115,-133
11705.717999999999,307,306,303,306,-15996,2240,3752,25,-115,-133
11716.652,307,306,305,307,-15996,2240,3752,25,-115,-133
11716.652,308,306,304,307,-15996,2240,3752,25,-115,-133
11727.636999999999,307,306,304,307,-15996,2240,3752,25,-115,-133
11730.739,307,306,304,308,-15996,2240,3752,25,-115,-133
11739.563,308,306,303,307,-15972,1908,3676,-258,-102,-134
11739.563,308,305,303,306,-15972,1908,3676,-258,-102,-134
11750.000999999998,308,305,301,306,-15972,1908,3676,-258,-102,-134
11755.964,309,306,302,308,-15972,1908,3676,-258,-102,-134
11760.725,308,307,300,308,-15972,1908,3676,-258,-102,-134
11767.677000000001,308,308,300,308,-15972,1908,3676,-258,-102,-134
11772.389000000001,307,309,300,309,-15972,1908,3676,-258,-102,-134
11780.172,307,309,299,308,-15924,1704,3700,12,-138,-2
11783.124000000002,306,310,297,308,-15924,1704,3700,12,-138,-2
11794.632,306,310,297,309,-15924,1704,3700,12,-138,-2
11794.632,306,311,297,308,-15924,1704,3700,12,-138,-2
11805.36,305,311,295,308,-15924,1704,3700,12,-138,-2
11807.818,305,311,294,309,-15924,1704,3700,12,-138,-2
11815.818,304,310,294,309,-15924,1704,3700,12,-138,-2
11816.395,304,310,295,309,-15948,1496,3292,694,-480,104
11827.702000000001,303,311,294,309,-15948,1496,3292,694,-480,104
11831.531,302,310,293,309,-15948,1496,3292,694,-480,104
11839.125,302,310,292,309,-15948,1496,3292,694,-480,104
11847.735999999999,301,310,293,309,-15948,1496,3292,694,-480,104
11850.006000000001,300,311,293,310,-15948,1496,3292,694,-480,104
11858.867999999999,299,311,294,309,-15948,1496,3292,694,-480,104
11861.33,296,310,293,309,-15776,756,2992,494,-443,427
11865.970000000001,294,309,296,309,-15776,756,2992,494,-443,427
11872.066,291,308,296,309,-15776,756,2992,494,-443,427
11878.664,289,307,298,308,-15776,756,2992,494,-443,427
11883.08,286,306,299,308,-15776,756,2992,494,-443,427
11890.757000000001,283,304,300,308,-15776,756,2992,494,-443,427
11894.107999999998,280,304,301,307,-15740,-1228,896,-15,-1085,1776
11905.09,276,302,302,307,-15740,-1228,896,-15,-1085,1776
11913.134,273,300,304,308,-15740,-1228,896,-15,-1085,1776
11916.482,269,297,305,309,-15740,-1228,896,-15,-1085,1776
11916.482,264,294,307,310,-15740,-1228,896,-15,-1085,1776
11927.282,258,291,309,314,-15740,-1228,896,-15,-1085,1776
11931.565,250,288,311,321,-15740,-1228,896,-15,-1085,1776
11938.7,240,285,313,328,-15492,-2352,68,-560,-4804,5490
11949.562,231,282,316,337,-15492,-2352,68,-560,-4804,5490
11951.639,225,281,318,344,-15492,-2352,68,-560,-4804,5490
11951.639,221,279,318,349,-15492,-2352,68,-560,-4804,5490
11962.393,218,278,317,351,-15492,-2352,68,-560,-4804,5490
11968.526,216,276,314,354,-15492,-2352,68,-560,-4804,5490
11972.524,215,274,313,357,-15492,-2352,68,-560,-4804,5490
11983.456,214,269,312,359,-14036,-1568,-456,-66,-8867,8983
11991.529,215,265,311,361,-14036,-1568,-456,-66,-8867,8983
11994.529,218,264,309,362,-14036,-1568,-456,-66,-8867,8983
12001.446,220,264,304,360,-14036,-1568,-456,-66,-8867,8983
12005.526,225,264,298,360,-14036,-1568,-456,-66,-8867,8983
12013.532,231,267,289,361,-14036,-1568,-456,-66,-8867,8983
12016.394999999999,236,270,281,360,-12728,-400,1704,258,-14408,12447
12027.879,237,278,270,358,-12728,-400,1704,258,-14408,12447
12029.828,235,284,262,358,-12728,-400,1704,258,-14408,12447
12040.792,230,290,250,356,-12728,-400,1704,258,-14408,12447
12048.012999999999,226,295,243,356,-12728,-400,1704,258,-14408,12447
12056.433,222,299,235,358,-12728,-400,1704,258,-14408,12447
12060.696,223,303,230,362,-11732,4236,5516,2628,-19106,16116
12065.072,216,307,225,370,-11732,4236,5516,2628,-19106,16116
12072.834,215,311,223,383,-11732,4236,5516,2628,-19106,16116
12081.41,219,317,223,396,-11732,4236,5516,2628,-19106,16116
12083.919,227,320,221,404,-11732,4236,5516,2628,-19106,16116
12087.664,243,322,216,410,-11732,4236,5516,2628,-19106,16116
12094.704,262,323,211,414,-9428,6756,7328,3371,-20329,17016
12106.098,284,324,204,418,-9428,6756,7328,3371,-20329,17016
12114.769,303,326,198,423,-9428,6756,7328,3371,-20329,17016
12117.112000000001,324,326,190,429,-9428,6756,7328,3371,-20329,17016
12120.464,345,327,183,432,-9428,6756,7328,3371,-20329,17016
12128.405,363,332,177,435,-9428,6756,7328,3371,-20329,17016
12138.636999999999,379,337,175,437,-9428,6756,7328,3371,-20329,17016
12139.055,393,342,174,434,-8280,9032,8264,-5730,-16059,14882
12149.965999999999,399,346,178,431,-8280,9032,8264,-5730,-16059,14882
12158.986,400,348,183,428,-8280,9032,8264,-5730,-16059,14882
12161.267,397,349,190,424,-8280,9032,8264,-5730,-16059,14882
12165.149,384,350,196,420,-8280,9032,8264,-5730,-16059,14882
12173.349,369,352,199,416,-8280,9032,8264,-5730,-16059,14882
12183.28,344,359,198,412,-7708,11480,11224,-7885,-14400,12489
12192.219,322,368,196,407,-7708,11480,11224,-7885,-14400,12489
12194.658000000001,301,377,190,404,-7708,11480,11224,-7885,-14400,12489
12201.841,274,387,183,402,-7708,11480,11224,-7885,-14400,12489
12205.393,246,395,179,403,-7708,11480,11224,-7885,-14400,12489
12216.499,225,402,173,408,-7708,11480,11224,-7885,-14400,12489
12224.848,199,410,168,414,-6236,10900,11044,-9081,-15148,8795
12227.928,177,415,165,419,-6236,10900,11044,-9081,-15148,8795
12234.412,167,413,166,424,-6236,10900,11044,-9081,-15148,8795
12239.219000000001,157,404,168,428,-6236,10900,11044,-9081,-15148,8795
12249.529,152,393,174,432,-6236,10900,11044,-9081,-15148,8795
12255.086000000001,149,387,179,432,-6236,10900,11044,-9081,-15148,8795
12260.587,144,381,183,430,-4704,10036,14312,-10772,-16958,5701
12267.758,143,369,183,425,-4704,10036,14312,-10772,-16958,5701
12272.196,144,356,171,419,-4704,10036,14312,-10772,-16958,5701
12283.447,145,340,162,410,-4704,10036,14312,-10772,-16958,5701
12283.447,149,327,160,399,-4704,10036,14312,-10772,-16958,5701
12294.293,157,317,160,390,-4704,10036,14312,-10772,-16958,5701
12304.798,164,308,164,382,-3608,8312,14736,-9033,-15215,3676
12307.6,177,298,172,369,-3608,8312,14736,-9033,-15215,3676
12316.874,183,299,180,362,-3608,8312,14736,-9033,-15215,3676
12319.943000000001,189,309,191,350,-3608,8312,14736,-9033,-15215,3676
12327.214,195,325,202,341,-3608,8312,14736,-9033,-15215,3676
12339.457,200,349,214,329,-3608,8312,14736,-9033,-15215,3676
12340.820000000002,204,374,224,315,-2584,7072,14972,-9149,-12552,2163
12350.417,206,392,236,296,-2584,7072,14972,-9149,-12552,2163
12352.771999999999,208,396,241,284,-2584,7072,14972,-9149,-12552,2163
12361.012,213,388,248,267,-2584,7072,14972,-9149,-12552,2163
12372.086,217,375,255,253,-2584,7072,14972,-9149,-12552,2163
12372.086,221,354,268,238,-2584,7072,14972,-9149,-12552,2163
12383.038,225,324,278,224,-1712,5112,15692,-6431,-12464,1437
12386.086000000001,234,289,290,210,-1712,5112,15692,-6431,-12464,1437
12395.341999999999,239,269,299,204,-1712,5112,15692,-6431,-12464,1437
12403.353,246,241,306,195,-1712,5112,15692,-6431,-12464,1437
12405.855000000001,251,221,310,188,-1712,5112,15692,-6431,-12464,1437
12416.006,256,203,315,182,-1712,5112,15692,-6431,-12464,1437
12416.006,259,190,317,178,-744,5276,15372,-4212,-12386,1457
12428.52,261,179,315,175,-744,5276,15372,-4212,-12386,1457
12428.52,261,173,311,173,-744,5276,15372,-4212,-12386,1457
12438.736,261,170,305,170,-744,5276,15372,-4212,-12386,1457
12448.946,259,168,310,170,-744,5276,15372,-4212,-12386,1457
12450.907000000001,256,172,317,168,-744,5276,15372,-4212,-12386,1457
12461.75,253,179,330,168,-360,6980,21916,-4717,-9979,877
12461.75,250,186,344,168,-360,6980,21916,-4717,-9979,877
12472.529,247,195,363,168,-360,6980,21916,-4717,-9979,877
12472.529,244,204,387,168,-360,6980,21916,-4717,-9979,877
12483.394,242,213,414,169,-360,6980,21916,-4717,-9979,877
12488.695,240,224,444,168,-360,6980,21916,-4717,-9979,877
12493.826000000001,237,236,477,168,-360,6980,21916,-4717,-9979,877
12500.624,236,250,513,168,-2108,-3064,24676,5718,-2427,-2491
12505.761,236,262,543,167,-2108,-3064,24676,5718,-2427,-2491
12512.473999999998,235,274,573,169,-2108,-3064,24676,5718,-2427,-2491
12516.514000000001,233,282,592,169,-2108,-3064,24676,5718,-2427,-2491
12527.738,227,292,610,169,-2108,-3064,24676,5718,-2427,-2491
12533.712,224,298,619,170,-2108,-3064,24676,5718,-2427,-2491
12538.275,223,305,623,171,1220,15336,13352,-1306,3523,-1278
12546.082999999999,226,310,621,171,1220,15336,13352,-1306,3523,-1278
12549.659,230,313,617,171,1220,15336,13352,-1306,3523,-1278
12560.892000000002,242,318,607,173,1220,15336,13352,-1306,3523,-1278
12568.902,254,322,595,175,1220,15336,13352,-1306,3523,-1278
12572.007,266,323,581,177,1220,15336,13352,-1306,3523,-1278
12579.654,279,326,560,182,-1600,5056,12096,-1890,14,-954
12583.145,290,328,543,184,-1600,5056,12096,-1890,14,-954
12587.061,301,330,523,188,-1600,5056,12096,-1890,14,-954
12595.339,311,332,502,192,-1600,5056,12096,-1890,14,-954
12605.723,322,332,484,195,-1600,5056,12096,-1890,14,-954
12605.723,331,333,467,198,-1600,5056,12096,-1890,14,-954
12616.42,340,334,451,201,-1600,5056,12096,-1890,14,-954
12619.57,348,335,441,204,-2292,7408,16252,-2960,-2250,-1363
12628.854000000001,358,336,432,209,-2292,7408,16252,-2960,-2250,-1363
12636.865,365,337,429,214,-2292,7408,16252,-2960,-2250,-1363
12639.350999999999,373,337,432,217,-2292,7408,16252,-2960,-2250,-1363
12649.262999999999,382,337,443,222,-2292,7408,16252,-2960,-2250,-1363
12649.262999999999,388,336,454,227,-2292,7408,16252,-2960,-2250,-1363
12661.945,395,335,468,231,-404,496,19224,1257,-2323,552
12661.945,400,334,481,236,-404,496,19224,1257,-2323,552
12672.027999999998,405,332,493,240,-404,496,19224,1257,-2323,552
12672.027999999998,409,331,503,244,-404,496,19224,1257,-2323,552
12682.292,414,330,512,247,-404,496,19224,1257,-2323,552
12684.796,420,329,515,252,-404,496,19224,1257,-2323,552
12694.798,426,330,515,256,-404,496,19224,1257,-2323,552
12703.496,431,331,509,260,-692,3788,15632,850,-265,633
12705.636,435,333,502,263,-692,3788,15632,850,-265,633
12716.142,438,333,494,267,-692,3788,15632,850,-265,633
12716.142,441,334,483,270,-692,3788,15632,850,-265,633
12716.142,444,335,471,272,-692,3788,15632,850,-265,633
12731.786,447,335,458,275,-692,3788,15632,850,-265,633
12736.832,450,335,448,278,-692,3788,15632,850,-265,633
12744.503,454,335,434,280,-860,5076,15780,10,1050,-33
12748.664,456,333,418,282,-860,5076,15780,10,1050,-33
12752.967999999999,458,333,410,283,-860,5076,15780,10,1050,-33
12761.386,460,332,396,285,-860,5076,15780,10,1050,-33
12761.386,463,331,383,285,-860,5076,15780,10,1050,-33
12771.835,465,330,373,287,-860,5076,15780,10,1050,-33
12771.835,469,330,360,289,-860,5076,15780,10,1050,-33
12779.820000000002,471,330,347,291,-1080,4892,15036,-2,63,-226
12782.943,473,330,334,291,-1080,4892,15036,-2,63,-226
12794.2,474,329,325,293,-1080,4892,15036,-2,63,-226
12794.2,476,327,314,293,-1080,4892,15036,-2,63,-226
12805.192,478,326,302,294,-1080,4892,15036,-2,63,-226
12807.415,481,325,290,294,-1080,4892,15036,-2,63,-226
12816.481,483,323,280,295,-1080,4892,15036,-2,63,-226
12819.403,484,320,271,294,-924,4372,15008,751,-721,-149
12819.403,485,319,265,295,-924,4372,15008,751,-721,-149
12827.956,486,317,259,295,-924,4372,15008,751,-721,-149
12838.868,486,316,252,296,-924,4372,15008,751,-721,-149
12847.257000000001,485,314,246,295,-924,4372,15008,751,-721,-149
12849.793,485,313,239,295,-924,4372,15008,751,-721,-149
12859.515,484,311,232,296,-924,4372,15008,751,-721,-149
12862.18,483,308,224,297,-760,5116,15780,389,-90,65
12865.316,482,307,218,297,-760,5116,15780,389,-90,65
12871.684,481,305,212,297,-760,5116,15780,389,-90,65
12877.641000000001,478,303,206,297,-760,5116,15780,389,-90,65
12882.682,476,301,202,297,-760,5116,15780,389,-90,65
12885.514000000001,474,298,198,297,-760,5116,15780,389,-90,65
12894.944000000001,471,297,195,297,-760,5116,15780,389,-90,65
12894.944000000001,468,293,193,297,-776,4608,15284,-81,183,101
12905.428,464,290,192,297,-776,4608,15284,-81,183,101
12905.428,461,290,191,297,-776,4608,15284,-81,183,101
12916.496000000001,458,288,192,298,-776,4608,15284,-81,183,101
12924.54,452,287,192,298,-776,4608,15284,-81,183,101
12927.581,448,285,193,298,-776,4608,15284,-81,183,101
12936.542,445,283,195,298,-776,4608,15284,-81,183,101
12938.743,440,283,196,298,-880,4832,15352,281,-22,115
12943.991,436,281,199,299,-880,4832,15352,281,-22,115
12949.023000000001,432,281,200,299,-880,4832,15352,281,-22,115
12955.921999999999,427,280,203,300,-880,4832,15352,281,-22,115
12960.728,423,280,205,300,-880,4832,15352,281,-22,115
12967.747,417,280,207,301,-880,4832,15352,281,-22,115
12971.979,413,279,208,302,-880,4832,15352,281,-22,115
12976.514,409,280,210,302,-880,4832,15352,281,-22,115
12983.928,403,281,213,302,-836,4812,15228,212,-189,14
12983.928,399,282,215,302,-836,4812,15228,212,-189,14
12994.666000000001,396,282,217,303,-836,4812,15228,212,-189,14
13000.622,391,284,220,304,-836,4812,15228,212,-189,14
13005.131000000001,388,285,221,304,-836,4812,15228,212,-189,14
13013.072,384,286,222,305,-836,4812,15228,212,-189,14
13016.21,381,286,224,306,-836,4812,15228,212,-189,14
13027.279,378,287,225,305,-804,4824,15364,290,17,11
13027.279,374,288,226,305,-804,4824,15364,290,17,11
13033.809,372,289,228,306,-804,4824,15364,290,17,11
13038.591999999999,370,290,230,307,-804,4824,15364,290,17,11
13045.632,367,291,232,307,-804,4824,15364,290,17,11
13050.277,363,292,234,307,-804,4824,15364,290,17,11
13053.98,361,293,236,309,-804,4824,15364,290,17,11
13061.621000000001,358,293,237,308,-732,5064,15464,7,65,-12
13061.621000000001,356,294,240,309,-732,5064,15464,7,65,-12
13072.207,354,295,241,309,-732,5064,15464,7,65,-12
13073.951,352,294,243,310,-732,5064,15464,7,65,-12
13083.266,350,294,243,310,-732,5064,15464,7,65,-12
13083.266,349,294,243,310,-732,5064,15464,7,65,-12
13094.259,347,295,246,310,-732,5064,15464,7,65,-12
13099.216999999999,346,294,247,311,-732,5064,15464,7,65,-12
13104.712,343,293,247,310,-864,4776,15276,83,27,-48
13104.712,342,293,248,310,-864,4776,15276,83,27,-48
13116.424,340,291,248,311,-864,4776,15276,83,27,-48
13118.857,339,291,250,311,-864,4776,15276,83,27,-48
13118.857,338,291,253,311,-864,4776,15276,83,27,-48
13128.087000000001,337,290,254,311,-864,4776,15276,83,27,-48
13135.235,335,289,256,311,-864,4776,15276,83,27,-48
13138.547,333,288,257,310,-796,4924,15352,-19,22,5
13149.126,332,287,260,310,-796,4924,15352,-19,22,5
13151.284,332,287,261,311,-796,4924,15352,-19,22,5
13159.294,331,286,263,311,-796,4924,15352,-19,22,5
13161.156,330,285,264,310,-796,4924,15352,-19,22,5
13163.947,330,284,266,310,-796,4924,15352,-19,22,5
13172.064,329,284,268,310,-796,4924,15352,-19,22,5
13172.064,328,284,269,310,-796,4924,15352,-19,22,5
13183.199999999999,327,283,270,309,-772,4996,15340,2,129,-87
13191.725,325,283,272,310,-772,4996,15340,2,129,-87
13193.987,325,282,274,310,-772,4996,15340,2,129,-87
13203.483,324,283,276,310,-772,4996,15340,2,129,-87
13205.817,323,282,278,310,-772,4996,15340,2,129,-87
13208.523,323,283,279,310,-772,4996,15340,2,129,-87
13214.878,322,283,282,310,-772,4996,15340,2,129,-87
13217.053,321,283,283,310,-848,5068,15232,-153,50,-89
13226.277,320,284,286,310,-848,5068,15232,-153,50,-89
13230.331,320,285,287,310,-848,5068,15232,-153,50,-89
13238.984,319,285,289,310,-848,5068,15232,-153,50,-89
13238.984,318,285,291,310,-848,5068,15232,-153,50,-89
13249.746,317,286,293,310,-848,5068,15232,-153,50,-89
13254.42,317,286,295,310,-848,5068,15232,-153,50,-89
13260.43,315,287,296,310,-804,4984,15376,-361,0,-174
13260.43,314,287,298,311,-804,4984,15376,-361,0,-174
13272.357,314,289,299,311,-804,4984,15376,-361,0,-174
13281.117,314,289,299,311,-804,4984,15376,-361,0,-174
13283.333,312,289,299,311,-804,4984,15376,-361,0,-174
13287.054,312,290,301,311,-804,4984,15376,-361,0,-174
13293.972,313,291,303,311,-804,4984,15376,-361,0,-174
13299.046,313,290,304,311,-836,4932,15224,-438,57,-143
13304.85,311,292,304,310,-836,4932,15224,-438,57,-143
13311.978,311,293,306,310,-836,4932,15224,-438,57,-143
13316.318000000001,310,293,306,311,-836,4932,15224,-438,57,-143
13320.287,309,293,306,311,-836,4932,15224,-438,57,-143
13328.201,309,293,307,310,-836,4932,15224,-438,57,-143
13332.327,310,294,309,311,-836,4932,15224,-438,57,-143
13340.339,309,293,310,311,-836,4700,15376,-227,76,-57
13340.339,308,294,312,310,-836,4700,15376,-227,76,-57
13348.333,308,295,312,310,-836,4700,15376,-227,76,-57
13357.007,308,295,313,311,-836,4700,15376,-227,76,-57
13361.361,308,295,314,311,-836,4700,15376,-227,76,-57
13371.473999999998,308,295,314,311,-836,4700,15376,-227,76,-57
13372.773000000001,309,295,316,311,-836,4700,15376,-227,76,-57
13383.841,308,296,317,311,-860,5084,15284,89,24,-137
13383.945000000002,308,296,317,311,-860,5084,15284,89,24,-137
13392.45,307,297,318,311,-860,5084,15284,89,24,-137
13394.861,307,297,318,311,-860,5084,15284,89,24,-137
13402.1,307,297,318,311,-860,5084,15284,89,24,-137
13405.334,306,298,318,311,-860,5084,15284,89,24,-137
13410.137,307,297,319,311,-860,5084,15284,89,24,-137
13416.756,308,298,319,311,-860,5084,15284,89,24,-137
13422.471,307,298,319,311,-888,4604,15280,4,20,-9
13427.437,308,298,319,311,-888,4604,15280,4,20,-9
13434.101999999999,307,299,319,311,-888,4604,15280,4,20,-9
13438.788,307,301,319,311,-888,4604,15280,4,20,-9
13442.799,305,302,318,311,-888,4604,15280,4,20,-9
13449.8,304,304,319,311,-888,4604,15280,4,20,-9
13454.39,304,305,318,311,-888,4604,15280,4,20,-9
13460.645,303,306,317,311,-888,4604,15280,4,20,-9
13462.819,301,306,317,311,-916,4776,15372,248,60,-12
13472.579,301,306,316,311,-916,4776,15372,248,60,-12
13475.016,300,307,316,311,-916,4776,15372,248,60,-12
13475.016,300,307,314,311,-916,4776,15372,248,60,-12
13483.21,300,308,313,311,-916,4776,15372,248,60,-12
13494.666000000001,300,307,312,311,-916,4776,15372,248,60,-12
13494.666000000001,300,306,311,311,-916,4776,15372,248,60,-12
13505.578,300,305,310,311,-860,4804,15240,84,73,17
13505.578,300,305,310,311,-860,4804,15240,84,73,17
13514.493999999999,300,304,309,311,-860,4804,15240,84,73,17
13516.655999999999,299,303,309,312,-860,4804,15240,84,73,17
13525.694,299,302,309,311,-860,4804,15240,84,73,17
13530.091,299,302,308,311,-860,4804,15240,84,73,17
13535.546999999999,299,301,307,312,-860,4804,15240,84,73,17
13538.827,298,300,307,311,-880,4948,15360,136,72,-55
13545.71,298,299,307,311,-880,4948,15360,136,72,-55
13549.589,298,299,307,311,-880,4948,15360,136,72,-55
13553.551000000001,298,298,307,311,-880,4948,15360,136,72,-55
13561.400000000001,298,297,307,311,-880,4948,15360,136,72,-55
13571.911,299,297,306,311,-880,4948,15360,136,72,-55
13573.571,298,297,307,311,-880,4948,15360,136,72,-55
13573.571,298,295,306,311,-880,4948,15360,136,72,-55
13583.706,298,295,306,310,-856,4932,15236,-13,-8,-28
13590.445000000002,298,295,306,311,-856,4932,15236,-13,-8,-28
13594.756,298,294,306,311,-856,4932,15236,-13,-8,-28
13599.097,298,293,306,311,-856,4932,15236,-13,-8,-28
13606.033,298,295,306,310,-856,4932,15236,-13,-8,-28
13606.033,298,294,306,311,-856,4932,15236,-13,-8,-28
13616.588,299,294,306,312,-856,4932,15236,-13,-8,-28
13623.803,299,294,306,311,-872,4916,15304,-146,-14,-11
13627.867999999999,300,294,307,311,-872,4916,15304,-146,-14,-11
13636.561,300,295,308,312,-872,4916,15304,-146,-14,-11
13638.493,300,295,308,312,-872,4916,15304,-146,-14,-11
13649.701000000001,299,296,309,312,-872,4916,15304,-146,-14,-11
13649.701000000001,299,297,309,312,-872,4916,15304,-146,-14,-11
13656.207,300,298,311,313,-872,4916,15304,-146,-14,-11
13661.018,299,298,310,313,-896,5040,15284,27,-46,-18
13668.275,299,298,311,312,-896,5040,15284,27,-46,-18
13672.642,300,298,311,313,-896,5040,15284,27,-46,-18
13680.279,299,298,311,313,-896,5040,15284,27,-46,-18
13683.103,300,298,311,313,-896,5040,15284,27,-46,-18
13694.061,299,297,312,313,-896,5040,15284,27,-46,-18
13696.101999999999,300,296,312,313,-896,5040,15284,27,-46,-18
13704.122,300,295,311,313,-888,4892,15288,123,-6,-46
13707.207999999999,299,294,311,313,-888,4892,15288,123,-6,-46
13715.220000000001,300,293,312,313,-888,4892,15288,123,-6,-46
13717.119,300,289,312,313,-888,4892,15288,123,-6,-46
13727.684,299,285,311,313,-888,4892,15288,123,-6,-46
13727.684,299,281,310,312,-888,4892,15288,123,-6,-46
13733.839,299,278,309,312,-888,4892,15288,123,-6,-46
13738.671999999999,299,276,307,311,-868,4984,15452,178,36,-6
