Time (ms),EMG1,EMG2,EMG3,EMG4,AccX,AccY,AccZ,GyroX,GyroY,GyroZ
1544.403,0,0,0,0,0,0,0,0,0,0
1544.403,0,0,0,0,0,0,0,0,0,0
1544.403,305,295,303,304,0,0,0,0,0,0
1544.403,305,295,304,304,0,0,0,0,0,0
1558.038,305,296,304,304,0,0,0,0,0,0
1558.522,305,295,304,304,0,0,0,0,0,0
1564.469,305,296,303,303,0,0,0,0,0,0
1569.4650000000001,305,295,304,303,0,0,0,0,0,0
1569.4650000000001,305,295,304,303,0,0,0,0,0,0
1572.381,305,296,304,304,0,0,0,0,0,0
1576.176,305,296,304,304,0,0,0,0,0,0
1582.897,306,295,305,304,0,0,0,0,0,0
1583.1580000000001,305,295,305,304,0,0,0,0,0,0
1590.927,305,296,305,304,0,0,0,0,0,0
1593.019,305,296,305,304,396,5708,15020,-207,86,-86
1603.1100000000001,305,296,306,304,396,5708,15020,-207,86,-86
1604.3,306,296,306,305,396,5708,15020,-207,86,-86
1609.513,306,296,306,304,396,5708,15020,-207,86,-86
1614.3909999999998,307,296,306,304,396,5708,15020,-207,86,-86
1624.978,306,296,307,305,396,5708,15020,-207,86,-86
1626.246,306,296,306,304,396,5708,15020,-207,86,-86
1636.8990000000001,306,296,306,304,396,5708,15020,-207,86,-86
1640.0049999999999,305,296,307,305,348,5704,15092,-166,160,-50
1644.2540000000001,305,297,307,305,348,5704,15092,-166,160,-50
1653.411,306,297,307,304,348,5704,15092,-166,160,-50
1656.753,307,297,307,305,348,5704,15092,-166,160,-50
1663.462,306,297,307,305,348,5704,15092,-166,160,-50
1668.4289999999999,307,297,307,304,348,5704,15092,-166,160,-50
1670.67,306,296,307,304,348,5704,15092,-166,160,-50
1680.8829999999998,306,297,307,306,436,5764,14996,-80,24,-29
1681.372,307,297,307,305,436,5764,14996,-80,24,-29
1687.811,307,297,306,305,436,5764,14996,-80,24,-29
1691.853,307,297,307,305,436,5764,14996,-80,24,-29
1701.503,307,296,307,306,436,5764,14996,-80,24,-29
1704.134,308,296,307,305,436,5764,14996,-80,24,-29
1707.643,308,296,306,305,436,5764,14996,-80,24,-29
1714.289,308,296,307,305,380,5652,15056,-38,-81,-3
1719.749,307,296,307,306,380,5652,15056,-38,-81,-3
1725.319,307,296,307,305,380,5652,15056,-38,-81,-3
1734.589,307,296,307,305,380,5652,15056,-38,-81,-3
1737.5400000000002,307,297,307,306,380,5652,15056,-38,-81,-3
1737.5400000000002,307,296,307,306,380,5652,15056,-38,-81,-3
1747.7279999999998,307,296,307,305,380,5652,15056,-38,-81,-3
1752.847,307,296,307,304,380,5652,15056,-38,-81,-3
1758.161,307,295,307,306,364,5652,15160,-104,44,18
1760.252,307,296,307,305,364,5652,15160,-104,44,18
1769.4589999999998,307,296,307,304,364,5652,15160,-104,44,18
1769.4589999999998,307,296,307,304,364,5652,15160,-104,44,18
1781.134,307,296,308,305,364,5652,15160,-104,44,18
1785.118,307,296,308,304,364,5652,15160,-104,44,18
1791.847,308,296,307,304,364,5652,15160,-104,44,18
1793.1889999999999,307,296,308,304,412,5720,15000,-33,0,30
1803.796,307,296,308,305,412,5720,15000,-33,0,30
1808.2160000000001,307,296,308,304,412,5720,15000,-33,0,30
1812.613,307,296,308,304,412,5720,15000,-33,0,30
1814.491,307,296,308,304,412,5720,15000,-33,0,30
1824.346,307,297,308,304,412,5720,15000,-33,0,30
1825.752,308,296,308,304,412,5720,15000,-33,0,30
1829.5269999999998,307,296,308,304,412,5720,15000,-33,0,30
1835.871,307,297,309,304,400,5652,15084,-4,-73,22
1841.721,307,297,308,304,400,5652,15084,-4,-73,22
1847.176,307,297,308,304,400,5652,15084,-4,-73,22
1847.176,307,297,308,304,400,5652,15084,-4,-73,22
1858.979,307,297,309,304,400,5652,15084,-4,-73,22
1863.607,307,297,308,304,400,5652,15084,-4,-73,22
1869.269,307,297,308,303,400,5652,15084,-4,-73,22
1869.269,308,297,307,303,400,5652,15084,-4,-73,22
1880.319,307,297,308,304,432,5736,15144,54,-64,-14
1882.652,308,298,307,303,432,5736,15144,54,-64,-14
1891.7,307,298,307,303,432,5736,15144,54,-64,-14
1893.36,307,298,308,303,432,5736,15144,54,-64,-14
1902.24,307,298,308,304,432,5736,15144,54,-64,-14
1908.409,307,298,307,303,432,5736,15144,54,-64,-14
1914.1390000000001,307,298,307,303,432,5736,15144,54,-64,-14
1915.775,308,299,307,303,420,5708,15048,-34,-29,6
1915.775,307,299,307,303,420,5708,15048,-34,-29,6
1924.913,308,299,307,303,420,5708,15048,-34,-29,6
1935.005,307,300,307,303,420,5708,15048,-34,-29,6
1936.425,307,300,307,304,420,5708,15048,-34,-29,6
1940.875,307,300,307,303,420,5708,15048,-34,-29,6
1946.9240000000002,307,300,307,303,420,5708,15048,-34,-29,6
1952.963,307,300,307,304,420,5708,15048,-34,-29,6
1958.043,308,300,307,304,416,5660,15076,-74,-4,-13
1960.807,308,300,307,303,416,5660,15076,-74,-4,-13
1970.8380000000002,308,300,306,303,416,5660,15076,-74,-4,-13
1970.8380000000002,307,300,307,304,416,5660,15076,-74,-4,-13
1981.4080000000001,307,300,306,304,416,5660,15076,-74,-4,-13
1987.174,307,300,306,304,416,5660,15076,-74,-4,-13
1991.527,307,300,306,304,416,5660,15076,-74,-4,-13
1993.701,307,300,306,304,424,5712,15028,-24,-12,-35
2003.563,307,300,306,304,424,5712,15028,-24,-12,-35
2003.563,308,301,305,303,424,5712,15028,-24,-12,-35
2014.4890000000003,308,300,305,304,424,5712,15028,-24,-12,-35
2018.93,307,300,306,304,424,5712,15028,-24,-12,-35
2025.112,307,301,305,304,424,5712,15028,-24,-12,-35
2027.078,307,301,305,304,424,5712,15028,-24,-12,-35
2037.6270000000002,307,301,305,304,368,5720,15028,-7,-28,26
2037.6509999999998,308,301,306,304,368,5720,15028,-7,-28,26
2047.778,308,301,305,304,368,5720,15028,-7,-28,26
2047.778,307,301,305,304,368,5720,15028,-7,-28,26
2057.775,308,302,306,304,368,5720,15028,-7,-28,26
2058.463,307,302,306,304,368,5720,15028,-7,-28,26
2069.575,308,302,305,304,368,5720,15028,-7,-28,26
2069.575,307,302,306,304,368,5720,15028,-7,-28,26
2075.495,307,302,305,304,472,5764,15108,-21,-31,0
2080.5660000000003,307,302,305,304,472,5764,15108,-21,-31,0
2090.713,308,302,305,304,472,5764,15108,-21,-31,0
2092.707,307,302,305,304,472,5764,15108,-21,-31,0
2096.615,308,302,305,305,472,5764,15108,-21,-31,0
2103.0190000000002,307,302,305,304,472,5764,15108,-21,-31,0
2109.0480000000002,308,302,305,304,472,5764,15108,-21,-31,0
2114.1890000000003,307,302,304,304,472,5764,15108,-21,-31,0
2116.418,307,302,305,304,424,5692,15020,-27,-72,-2
2126.409,308,302,304,304,424,5692,15020,-27,-72,-2
2128.456,308,301,304,304,424,5692,15020,-27,-72,-2
2136.056,308,301,304,304,424,5692,15020,-27,-72,-2
2136.2980000000002,307,301,304,305,424,5692,15020,-27,-72,-2
2147.3849999999998,307,301,304,304,424,5692,15020,-27,-72,-2
2147.3849999999998,307,301,304,303,424,5692,15020,-27,-72,-2
2158.9339999999997,307,301,304,304,436,5744,15104,28,-34,5
2158.9339999999997,307,301,304,304,436,5744,15104,28,-34,5
2168.725,307,301,303,303,436,5744,15104,28,-34,5
2169.7000000000003,307,301,303,304,436,5744,15104,28,-34,5
2181.003,307,301,304,304,436,5744,15104,28,-34,5
2181.003,307,301,304,304,436,5744,15104,28,-34,5
2186.578,306,302,304,304,436,5744,15104,28,-34,5
2191.792,306,301,304,304,436,5744,15104,28,-34,5
2201.9289999999996,306,301,304,304,432,5756,15036,-55,-27,-7
2204.174,307,302,303,304,432,5756,15036,-55,-27,-7
2204.174,306,302,303,304,432,5756,15036,-55,-27,-7
2214.412,307,302,303,304,432,5756,15036,-55,-27,-7
2219.792,308,302,303,304,432,5756,15036,-55,-27,-7
2224.725,307,302,303,304,432,5756,15036,-55,-27,-7
2224.725,307,302,303,304,432,5756,15036,-55,-27,-7
2236.198,307,303,303,304,452,5740,15080,-38,-32,5
2236.198,306,302,303,305,452,5740,15080,-38,-32,5
2247.8199999999997,306,302,303,304,452,5740,15080,-38,-32,5
2247.8199999999997,307,302,302,304,452,5740,15080,-38,-32,5
2258.8149999999996,307,302,303,305,452,5740,15080,-38,-32,5
2258.8149999999996,306,302,303,305,452,5740,15080,-38,-32,5
2269.8900000000003,307,302,303,304,452,5740,15080,-38,-32,5
2271.811,307,302,303,304,452,5740,15080,-38,-32,5
2280.3469999999998,307,302,303,305,464,5724,15080,-87,1,-18
2281.891,307,302,302,305,464,5724,15080,-87,1,-18
2291.394,306,302,302,305,464,5724,15080,-87,1,-18
2291.65,307,303,302,304,464,5724,15080,-87,1,-18
2297.3940000000002,307,302,303,306,464,5724,15080,-87,1,-18
2302.6209999999996,307,303,303,305,464,5724,15080,-87,1,-18
2312.16,307,303,303,304,464,5724,15080,-87,1,-18
2315.793,307,303,302,305,464,5724,15080,-87,1,-18
2323.9610000000002,306,303,303,305,424,5740,15092,-57,0,-25
2325.5750000000003,306,303,302,305,424,5740,15092,-57,0,-25
2329.599,306,303,303,305,424,5740,15092,-57,0,-25
2335.995,306,303,303,305,424,5740,15092,-57,0,-25
2335.995,306,303,303,305,424,5740,15092,-57,0,-25
2347.1730000000002,307,303,303,305,424,5740,15092,-57,0,-25
2347.1730000000002,307,303,302,305,424,5740,15092,-57,0,-25
2359.09,307,303,303,305,400,5700,15152,-156,136,-11
2361.8199999999997,306,304,303,305,400,5700,15152,-156,136,-11
2369.923,306,304,302,305,400,5700,15152,-156,136,-11
2370.352,306,304,303,305,400,5700,15152,-156,136,-11
2381.102,306,304,303,305,400,5700,15152,-156,136,-11
2381.102,307,303,302,305,400,5700,15152,-156,136,-11
2391.701,308,304,302,305,400,5700,15152,-156,136,-11
2396.055,307,304,303,305,380,5712,14964,-122,72,-17
2403.264,307,304,303,305,380,5712,14964,-122,72,-17
2406.905,307,304,302,304,380,5712,14964,-122,72,-17
2413.801,307,304,302,305,380,5712,14964,-122,72,-17
2415.504,306,304,303,305,380,5712,14964,-122,72,-17
2424.517,307,304,303,305,380,5712,14964,-122,72,-17
2424.517,307,303,302,305,380,5712,14964,-122,72,-17
2436.842,307,303,302,305,380,5712,14964,-122,72,-17
2436.842,307,303,302,305,388,5668,14984,-80,-56,-35
2446.9159999999997,307,303,301,304,388,5668,14984,-80,-56,-35
2447.5679999999998,306,303,301,304,388,5668,14984,-80,-56,-35
2458.671,307,303,301,305,388,5668,14984,-80,-56,-35
2458.671,306,304,302,305,388,5668,14984,-80,-56,-35
2470.225,307,303,301,304,388,5668,14984,-80,-56,-35
2472.607,307,303,301,304,388,5668,14984,-80,-56,-35
2480.69,306,304,302,305,388,5836,15152,-47,5,10
2482.444,307,303,302,304,388,5836,15152,-47,5,10
2491.486,306,303,302,304,388,5836,15152,-47,5,10
2491.486,306,303,302,304,388,5836,15152,-47,5,10
2497.916,306,303,302,304,388,5836,15152,-47,5,10
2503.025,306,303,302,304,388,5836,15152,-47,5,10
2512.669,306,303,302,303,388,5836,15152,-47,5,10
2514.3469999999998,307,303,302,304,388,5836,15152,-47,5,10
2519.323,307,303,303,304,400,5808,15108,-130,-14,-6
2524.8599999999997,307,303,302,304,400,5808,15108,-130,-14,-6
2530.337,307,304,302,304,400,5808,15108,-130,-14,-6
2535.779,307,304,303,305,400,5808,15108,-130,-14,-6
2538.306,306,304,303,304,400,5808,15108,-130,-14,-6
2547.632,307,304,303,304,400,5808,15108,-130,-14,-6
2547.632,307,304,303,304,400,5808,15108,-130,-14,-6
2558.509,307,304,303,305,392,5724,15032,-10,-59,-3
2563.66,308,304,303,304,392,5724,15032,-10,-59,-3
2569.667,308,304,302,303,392,5724,15032,-10,-59,-3
2569.667,306,304,303,304,392,5724,15032,-10,-59,-3
2581.483,307,304,303,304,392,5724,15032,-10,-59,-3
2581.483,307,304,302,304,392,5724,15032,-10,-59,-3
2592.447,308,303,302,303,392,5724,15032,-10,-59,-3
2592.447,308,303,302,304,436,5700,15028,12,-89,-6
2602.4500000000003,308,303,302,304,436,5700,15028,12,-89,-6
2603.13,308,303,302,303,436,5700,15028,12,-89,-6
2614.221,308,303,302,303,436,5700,15028,12,-89,-6
2614.221,307,304,302,304,436,5700,15028,12,-89,-6
2621.899,306,304,303,304,436,5700,15028,12,-89,-6
2625.475,307,304,302,303,436,5700,15028,12,-89,-6
2635.518,307,304,301,304,436,5700,15028,12,-89,-6
2636.2960000000003,306,304,302,304,404,5772,15056,36,-5,-35
2647.3650000000002,307,304,302,304,404,5772,15056,36,-5,-35
2648.877,307,304,301,304,404,5772,15056,36,-5,-35
2648.877,307,304,301,304,404,5772,15056,36,-5,-35
2659.805,306,304,301,304,404,5772,15056,36,-5,-35
2668.175,306,304,301,304,404,5772,15056,36,-5,-35
2670.124,306,305,301,304,404,5772,15056,36,-5,-35
2674.027,306,304,301,304,404,5772,15056,36,-5,-35
2683.994,306,304,301,305,452,5804,15060,-41,-4,-29
2688.677,307,304,301,304,452,5804,15060,-41,-4,-29
2692.454,308,304,301,304,452,5804,15060,-41,-4,-29
2701.3729999999996,307,304,301,304,452,5804,15060,-41,-4,-29
2705.0860000000002,306,304,301,304,452,5804,15060,-41,-4,-29
2706.097,307,305,300,304,452,5804,15060,-41,-4,-29
2714.806,306,305,301,304,452,5804,15060,-41,-4,-29
2719.4790000000003,306,305,301,304,488,5720,15040,-91,-10,6
2724.466,307,305,301,304,488,5720,15040,-91,-10,6
2724.466,307,304,301,304,488,5720,15040,-91,-10,6
2736.3970000000004,306,305,301,304,488,5720,15040,-91,-10,6
2738.7980000000002,307,306,301,304,488,5720,15040,-91,-10,6
2746.5679999999998,306,305,302,305,488,5720,15040,-91,-10,6
2748.663,307,306,301,304,488,5720,15040,-91,-10,6
2758.293,307,305,301,304,488,5720,15040,-91,-10,6
2758.921,307,306,302,305,428,5732,15120,-20,-2,-10
2765.1020000000003,307,306,301,304,428,5732,15120,-20,-2,-10
2769.7129999999997,307,305,301,304,428,5732,15120,-20,-2,-10
2776.357,307,305,301,304,428,5732,15120,-20,-2,-10
2781.252,308,306,302,305,428,5732,15120,-20,-2,-10
2790.6780000000003,306,306,302,304,428,5732,15120,-20,-2,-10
2792.136,307,306,302,304,428,5732,15120,-20,-2,-10
2796.221,306,306,302,305,444,5820,15068,-33,-32,-4
2802.6349999999998,306,306,302,304,444,5820,15068,-33,-32,-4
2809.44,306,306,302,304,444,5820,15068,-33,-32,-4
2814.556,307,306,302,304,444,5820,15068,-33,-32,-4
2823.7329999999997,307,306,302,305,444,5820,15068,-33,-32,-4
2827.787,308,306,303,305,444,5820,15068,-33,-32,-4
2830.227,306,306,302,304,444,5820,15068,-33,-32,-4
2836.083,306,306,302,304,444,5820,15068,-33,-32,-4
2844.503,306,306,302,305,428,5704,15020,-45,-28,-21
2847.8430000000003,307,306,302,304,428,5704,15020,-45,-28,-21
2849.814,306,306,302,304,428,5704,15020,-45,-28,-21
2859.907,307,305,302,305,428,5704,15020,-45,-28,-21
2859.907,307,306,302,304,428,5704,15020,-45,-28,-21
2870.221,307,306,302,304,428,5704,15020,-45,-28,-21
2875.109,306,306,302,304,428,5704,15020,-45,-28,-21
2879.951,306,306,303,305,444,5792,15056,-28,6,-13
2879.951,307,306,303,304,444,5792,15056,-28,6,-13
2892.004,307,306,303,304,444,5792,15056,-28,6,-13
2894.92,308,306,302,304,444,5792,15056,-28,6,-13
2902.292,307,306,303,305,444,5792,15056,-28,6,-13
2903.326,307,306,303,304,444,5792,15056,-28,6,-13
2913.468,307,306,302,304,444,5792,15056,-28,6,-13
2914.196,307,306,303,305,452,5672,15020,-82,-18,-30
2925.153,307,306,303,305,452,5672,15020,-82,-18,-30
2925.153,307,306,303,304,452,5672,15020,-82,-18,-30
2935.2,307,306,303,304,452,5672,15020,-82,-18,-30
2936.773,307,306,303,305,452,5672,15020,-82,-18,-30
2946.699,308,306,303,305,452,5672,15020,-82,-18,-30
2947.349,307,306,302,304,452,5672,15020,-82,-18,-30
2958.676,307,306,302,305,452,5672,15020,-82,-18,-30
2960.301,306,306,303,305,456,5764,15040,0,15,-16
2960.301,307,306,302,304,456,5764,15040,0,15,-16
2969.9990000000003,307,306,302,304,456,5764,15040,0,15,-16
2979.428,307,307,302,305,456,5764,15040,0,15,-16
2981.163,307,306,302,305,456,5764,15040,0,15,-16
2985.886,307,306,302,305,456,5764,15040,0,15,-16
2991.603,307,306,302,304,456,5764,15040,0,15,-16
2991.603,308,306,302,305,404,5740,15044,-61,-7,-26
3003.324,307,306,302,305,404,5740,15044,-61,-7,-26
3008.46,307,306,302,304,404,5740,15044,-61,-7,-26
3016.01,307,306,302,304,404,5740,15044,-61,-7,-26
3020.352,306,306,302,305,404,5740,15044,-61,-7,-26
3024.77,307,306,302,305,404,5740,15044,-61,-7,-26
3028.374,308,306,302,304,404,5740,15044,-61,-7,-26
3036.665,307,306,303,304,404,5740,15044,-61,-7,-26
3036.665,307,306,302,305,452,5800,15060,-45,-10,-28
3047.431,307,307,303,305,452,5800,15060,-45,-10,-28
3047.431,307,307,302,304,452,5800,15060,-45,-10,-28
3057.2889999999998,307,307,302,304,452,5800,15060,-45,-10,-28
3058.861,307,307,303,305,452,5800,15060,-45,-10,-28
3069.835,307,306,302,304,452,5800,15060,-45,-10,-28
3069.909,308,306,303,305,452,5800,15060,-45,-10,-28
3080.94,308,307,303,305,424,5752,15060,-70,-9,-15
3082.838,308,307,303,305,424,5752,15060,-70,-9,-15
3090.941,307,307,302,304,424,5752,15060,-70,-9,-15
3093.015,307,307,302,305,424,5752,15060,-70,-9,-15
3102.2470000000003,307,307,303,305,424,5752,15060,-70,-9,-15
3102.913,307,307,302,305,424,5752,15060,-70,-9,-15
3113.6499999999996,308,307,302,304,424,5752,15060,-70,-9,-15
3113.6499999999996,307,307,302,305,424,5752,15060,-70,-9,-15
3113.6499999999996,308,307,302,305,464,5776,15072,-56,-3,-36
3125.1600000000003,308,307,302,304,464,5776,15072,-56,-3,-36
3135.0600000000004,307,308,302,304,464,5776,15072,-56,-3,-36
3136.3650000000002,307,307,302,305,464,5776,15072,-56,-3,-36
3147.387,307,307,303,305,464,5776,15072,-56,-3,-36
3147.387,307,307,302,304,464,5776,15072,-56,-3,-36
3147.387,307,307,302,304,464,5776,15072,-56,-3,-36
3158.204,307,307,302,305,432,5732,15008,-66,-30,-27
3167.989,308,307,302,304,432,5732,15008,-66,-30,-27
3171.69,307,307,302,304,432,5732,15008,-66,-30,-27
3180.049,307,307,302,305,432,5732,15008,-66,-30,-27
3181.46,307,307,302,305,432,5732,15008,-66,-30,-27
3181.46,307,307,302,304,432,5732,15008,-66,-30,-27
3192.274,307,307,302,304,432,5732,15008,-66,-30,-27
3192.274,308,307,302,304,400,5852,15048,19,-30,20
3201.721,308,307,302,304,400,5852,15048,19,-30,20
3201.721,308,307,302,304,400,5852,15048,19,-30,20
3216.609,307,307,302,304,400,5852,15048,19,-30,20
3219.582,307,308,303,304,400,5852,15048,19,-30,20
3225.0350000000003,307,308,303,304,400,5852,15048,19,-30,20
3226.705,308,307,302,304,400,5852,15048,19,-30,20
3236.633,307,307,302,304,400,5852,15048,19,-30,20
3236.633,308,307,303,304,472,5680,15088,-88,-34,-23
3247.885,309,308,302,304,472,5680,15088,-88,-34,-23
3247.885,309,307,302,303,472,5680,15088,-88,-34,-23
3258.2599999999998,308,307,302,304,472,5680,15088,-88,-34,-23
3258.2599999999998,308,308,302,304,472,5680,15088,-88,-34,-23
3269.661,308,308,302,303,472,5680,15088,-88,-34,-23
3269.661,308,307,302,303,472,5680,15088,-88,-34,-23
3281.045,308,307,302,304,412,5784,15048,4,-12,-23
3283.462,309,307,302,304,412,5784,15048,4,-12,-23
3291.7019999999998,309,307,301,303,412,5784,15048,4,-12,-23
3293.145,309,308,301,303,412,5784,15048,4,-12,-23
3302.8900000000003,308,307,301,304,412,5784,15048,4,-12,-23
3303.393,308,308,301,303,412,5784,15048,4,-12,-23
3309.029,308,308,300,303,412,5784,15048,4,-12,-23
3313.496,308,307,301,303,412,5784,15048,4,-12,-23
3324.245,308,307,301,304,464,5708,15044,-26,-33,-13
3325.873,309,307,300,303,464,5708,15044,-26,-33,-13
3335.426,309,307,300,303,464,5708,15044,-26,-33,-13
3339.955,309,307,300,304,464,5708,15044,-26,-33,-13
3341.5170000000003,308,307,300,304,464,5708,15044,-26,-33,-13
3347.013,308,307,300,303,464,5708,15044,-26,-33,-13
3353.454,308,307,299,303,464,5708,15044,-26,-33,-13
3358.716,307,307,300,304,472,5864,15068,18,-7,-12
3368.2470000000003,308,307,299,304,472,5864,15068,18,-7,-12
3369.7560000000003,309,307,299,303,472,5864,15068,18,-7,-12
3373.941,308,307,299,303,472,5864,15068,18,-7,-12
3380.6479999999997,308,307,300,304,472,5864,15068,18,-7,-12
3380.6479999999997,308,307,299,304,472,5864,15068,18,-7,-12
3391.332,308,307,299,303,472,5864,15068,18,-7,-12
3391.332,308,307,299,303,472,5864,15068,18,-7,-12
3403.3129999999996,308,307,300,304,404,5732,15032,-92,-25,-24
3407.269,308,307,299,303,404,5732,15032,-92,-25,-24
3413.4570000000003,308,307,299,303,404,5732,15032,-92,-25,-24
3415.2239999999997,308,307,300,304,404,5732,15032,-92,-25,-24
3425.3360000000002,308,307,300,304,404,5732,15032,-92,-25,-24
3425.3360000000002,308,307,300,303,404,5732,15032,-92,-25,-24
3436.7960000000003,308,307,300,303,404,5732,15032,-92,-25,-24
3436.7960000000003,308,307,300,304,392,5764,15088,-15,-20,-10
3446.814,308,308,300,304,392,5764,15088,-15,-20,-10
3447.646,308,307,300,304,392,5764,15088,-15,-20,-10
3458.815,308,307,300,304,392,5764,15088,-15,-20,-10
3458.815,308,307,301,305,392,5764,15088,-15,-20,-10
3470.155,308,307,300,304,392,5764,15088,-15,-20,-10
3472.449,308,307,300,304,392,5764,15088,-15,-20,-10
3479.689,308,307,301,304,432,5764,15024,25,-16,-1
3481.7599999999998,308,307,301,304,432,5764,15024,25,-16,-1
3491.189,308,307,301,304,432,5764,15024,25,-16,-1
3492.082,309,307,301,304,432,5764,15024,25,-16,-1
3497.9010000000003,309,307,302,305,432,5764,15024,25,-16,-1
3503.15,308,307,302,305,432,5764,15024,25,-16,-1
3509.147,309,307,301,304,432,5764,15024,25,-16,-1
3514.472,308,307,302,304,432,5764,15024,25,-16,-1
3524.368,308,307,302,305,460,5816,15040,30,-13,-12
3525.804,308,307,302,305,460,5816,15040,30,-13,-12
3529.3770000000004,308,307,302,304,460,5816,15040,30,-13,-12
3535.79,307,307,302,305,460,5816,15040,30,-13,-12
3542.4190000000003,308,307,303,305,460,5816,15040,30,-13,-12
3547.796,309,307,302,304,460,5816,15040,30,-13,-12
3547.796,309,307,302,304,460,5816,15040,30,-13,-12
3558.6929999999998,308,307,303,305,484,5856,15028,-35,-6,-14
3562.643,308,307,302,305,484,5856,15028,-35,-6,-14
3569.225,308,307,302,304,484,5856,15028,-35,-6,-14
3574.436,308,307,302,305,484,5856,15028,-35,-6,-14
3580.323,309,307,302,305,484,5856,15028,-35,-6,-14
3580.323,308,306,303,305,484,5856,15028,-35,-6,-14
3592.368,309,307,302,304,484,5856,15028,-35,-6,-14
3594.89,309,306,302,305,484,5856,15028,-35,-6,-14
3603.1949999999997,307,306,303,305,452,5820,15052,-28,-33,-8
3604.849,308,306,303,304,452,5820,15052,-28,-33,-8
3613.795,308,306,302,304,452,5820,15052,-28,-33,-8
3615.4950000000003,307,307,303,305,452,5820,15052,-28,-33,-8
3624.9889999999996,308,306,303,305,452,5820,15052,-28,-33,-8
3627.552,308,306,303,304,452,5820,15052,-28,-33,-8
3634.835,309,306,302,305,452,5820,15052,-28,-33,-8
3636.044,307,306,303,305,432,5736,14968,-22,-17,-22
3647.191,307,306,303,305,432,5736,14968,-22,-17,-22
3647.191,307,306,302,305,432,5736,14968,-22,-17,-22
3658.346,307,306,302,305,432,5736,14968,-22,-17,-22
3658.346,307,306,303,305,432,5736,14968,-22,-17,-22
3667.871,308,306,302,305,432,5736,14968,-22,-17,-22
3669.681,308,306,302,305,432,5736,14968,-22,-17,-22
3680.145,307,306,302,305,432,5736,14968,-22,-17,-22
3680.953,307,306,303,305,452,5828,15000,-5,-11,-25
3691.708,308,306,302,304,452,5828,15000,-5,-11,-25
3691.708,307,306,302,304,452,5828,15000,-5,-11,-25
3698.52,307,306,302,306,452,5828,15000,-5,-11,-25
3703.25,307,307,302,305,452,5828,15000,-5,-11,-25
3712.552,308,306,302,304,452,5828,15000,-5,-11,-25
3714.2659999999996,307,306,302,305,452,5828,15000,-5,-11,-25
3724.492,308,306,302,306,492,5772,15068,-80,-27,-1
3726.403,308,306,302,305,492,5772,15068,-80,-27,-1
3726.403,308,306,302,304,492,5772,15068,-80,-27,-1
3738.129,307,306,302,305,492,5772,15068,-80,-27,-1
3742.623,307,306,302,306,492,5772,15068,-80,-27,-1
3747.9,308,306,302,305,492,5772,15068,-80,-27,-1
3757.6360000000004,308,306,301,305,492,5772,15068,-80,-27,-1
3759.137,307,306,302,305,520,5804,15040,-13,14,-5
3762.759,307,306,301,305,520,5804,15040,-13,14,-5
3769.2619999999997,308,306,301,305,520,5804,15040,-13,14,-5
3769.2619999999997,307,306,301,305,520,5804,15040,-13,14,-5
3780.988,307,306,301,306,520,5804,15040,-13,14,-5
3780.988,306,306,301,305,520,5804,15040,-13,14,-5
3790.808,307,306,301,305,520,5804,15040,-13,14,-5
3792.543,307,306,301,305,520,5804,15040,-13,14,-5
3802.3729999999996,307,306,301,306,472,5772,15020,-57,-22,-23
3803.201,308,306,301,305,472,5772,15020,-57,-22,-23
3814.082,307,305,301,305,472,5772,15020,-57,-22,-23
3814.082,307,305,301,305,472,5772,15020,-57,-22,-23
3825.425,307,306,301,305,472,5772,15020,-57,-22,-23
3828.822,307,306,301,305,472,5772,15020,-57,-22,-23
3835.705,307,306,301,305,472,5772,15020,-57,-22,-23
3837.259,307,306,301,305,428,5836,15080,-23,-15,-35
3846.8740000000003,307,306,301,306,428,5836,15080,-23,-15,-35
3851.721,307,306,300,304,428,5836,15080,-23,-15,-35
3858.299,307,306,301,305,428,5836,15080,-23,-15,-35
3858.299,306,306,300,305,428,5836,15080,-23,-15,-35
3868.2349999999997,307,306,300,305,428,5836,15080,-23,-15,-35
3869.982,307,306,300,304,428,5836,15080,-23,-15,-35
3880.5499999999997,307,306,301,305,428,5836,15080,-23,-15,-35
3880.5499999999997,307,305,301,305,436,5852,15016,-103,-22,12
3892.009,308,305,300,304,436,5852,15016,-103,-22,12
3893.6989999999996,307,305,300,304,436,5852,15016,-103,-22,12
3902.107,306,305,301,305,436,5852,15016,-103,-22,12
3904.375,306,305,300,305,436,5852,15016,-103,-22,12
3913.382,307,305,300,305,436,5852,15016,-103,-22,12
3914.848,307,305,301,305,436,5852,15016,-103,-22,12
3924.945,307,305,301,305,520,5752,14948,-67,-39,-15
3926.71,307,305,300,305,520,5752,14948,-67,-39,-15
3926.71,307,305,301,305,520,5752,14948,-67,-39,-15
3936.816,307,304,301,305,520,5752,14948,-67,-39,-15
3946.375,306,305,301,306,520,5752,14948,-67,-39,-15
3946.6800000000003,306,305,300,305,520,5752,14948,-67,-39,-15
3957.836,306,304,300,305,520,5752,14948,-67,-39,-15
3958.627,306,305,300,305,456,5828,15092,-71,9,-44
3965.996,307,304,300,305,456,5828,15092,-71,9,-44
3969.713,307,304,299,304,456,5828,15092,-71,9,-44
3976.6620000000003,306,304,300,305,456,5828,15092,-71,9,-44
3981.8889999999997,306,304,300,305,456,5828,15092,-71,9,-44
3990.8830000000003,306,305,299,305,456,5828,15092,-71,9,-44
3992.6560000000004,306,305,299,304,456,5828,15092,-71,9,-44
3992.6560000000004,306,305,299,305,456,5828,15092,-71,9,-44
4002.9919999999997,306,304,300,305,480,5896,15048,-63,-19,-27
4011.07,306,305,299,304,480,5896,15048,-63,-19,-27
4014.3779999999997,306,304,299,304,480,5896,15048,-63,-19,-27
4016.9059999999995,305,304,299,305,480,5896,15048,-63,-19,-27
4025.238,305,304,299,304,480,5896,15048,-63,-19,-27
4029.0660000000003,306,305,299,304,480,5896,15048,-63,-19,-27
4036.028,306,305,299,304,480,5896,15048,-63,-19,-27
4041.693,306,305,299,305,480,5736,15008,-118,-59,-13
4047.187,306,305,300,304,480,5736,15008,-118,-59,-13
4047.187,307,305,300,304,480,5736,15008,-118,-59,-13
4058.8189999999995,306,306,300,304,480,5736,15008,-118,-59,-13
4058.8189999999995,306,306,301,305,480,5736,15008,-118,-59,-13
4069.526,306,307,301,304,480,5736,15008,-118,-59,-13
4077.6589999999997,307,306,302,305,480,5736,15008,-118,-59,-13
4079.715,307,307,302,306,456,5728,15068,-80,-78,-39
4082.534,307,308,302,305,456,5728,15068,-80,-78,-39
4091.5499999999997,307,308,302,305,456,5728,15068,-80,-78,-39
4101.592000000001,308,308,303,306,456,5728,15068,-80,-78,-39
4103.157999999999,308,308,304,306,456,5728,15068,-80,-78,-39
4106.889,308,308,304,305,456,5728,15068,-80,-78,-39
4113.811,308,309,304,305,456,5728,15068,-80,-78,-39
4120.063,308,309,304,305,364,5756,15096,111,-27,9
4125.546,308,309,305,305,364,5756,15096,111,-27,9
4125.546,308,309,304,305,364,5756,15096,111,-27,9
4136.869,309,309,305,304,364,5756,15096,111,-27,9
4136.869,309,310,305,305,364,5756,15096,111,-27,9
4147.483,310,309,305,305,364,5756,15096,111,-27,9
4147.655000000001,310,310,305,304,364,5756,15096,111,-27,9
4158.472,309,310,305,304,364,5756,15096,111,-27,9
4158.472,310,310,305,305,480,5920,15004,202,3,21
4165.38,311,310,305,305,480,5920,15004,202,3,21
4169.983,311,310,305,304,480,5920,15004,202,3,21
4179.729,312,310,306,305,480,5920,15004,202,3,21
4181.257,313,310,305,305,480,5920,15004,202,3,21
4185.531,314,309,305,305,480,5920,15004,202,3,21
4192.2480000000005,316,309,304,304,480,5920,15004,202,3,21
4197.860000000001,317,309,304,305,480,5920,15004,202,3,21
4203.027,318,309,304,306,584,5820,14980,-167,-10,-60
4212.973,320,308,303,305,584,5820,14980,-167,-10,-60
4214.757,321,308,302,305,584,5820,14980,-167,-10,-60
4214.757,322,307,302,305,584,5820,14980,-167,-10,-60
4225.622,323,306,301,305,584,5820,14980,-167,-10,-60
4230.7,323,306,300,304,584,5820,14980,-167,-10,-60
4235.965,323,306,299,305,584,5820,14980,-167,-10,-60
4242.232,322,306,299,305,412,5752,14948,-176,-19,-77
4247.482,321,305,298,304,412,5752,14948,-176,-19,-77
4257.302000000001,320,305,297,304,412,5752,14948,-176,-19,-77
4259.577,319,305,297,305,412,5752,14948,-176,-19,-77
4259.577,318,305,297,304,412,5752,14948,-176,-19,-77
4269.4349999999995,316,304,296,303,412,5752,14948,-176,-19,-77
4277.51,315,304,296,303,412,5752,14948,-176,-19,-77
4280.182,312,304,296,304,396,5824,15060,15,36,-33
4290.186000000001,309,304,296,303,396,5824,15060,15,36,-33
4291.991999999999,307,304,295,303,396,5824,15060,15,36,-33
4291.991999999999,304,304,296,303,396,5824,15060,15,36,-33
4303.009999999999,302,304,296,303,396,5824,15060,15,36,-33
4308.303000000001,301,304,296,302,396,5824,15060,15,36,-33
4313.476,300,304,296,302,396,5824,15060,15,36,-33
4315.818,298,304,296,303,396,5824,15060,15,36,-33
4325.674,298,304,296,302,528,5852,15036,81,1,-4
4325.674,296,304,296,301,528,5852,15036,81,1,-4
4335.531,295,304,297,301,528,5852,15036,81,1,-4
4336.549,295,304,297,302,528,5852,15036,81,1,-4
4346.782,294,303,297,302,528,5852,15036,81,1,-4
4347.651,294,303,297,301,528,5852,15036,81,1,-4
4353.196,294,303,297,301,528,5852,15036,81,1,-4
4357.986000000001,294,302,297,302,528,5852,15036,81,1,-4
4357.986000000001,294,303,297,302,492,5756,15120,-240,12,-80
4371.678,292,303,297,301,492,5756,15120,-240,12,-80
4375.9259999999995,293,302,297,301,492,5756,15120,-240,12,-80
4384.36,293,302,297,302,492,5756,15120,-240,12,-80
4388.455000000001,293,301,297,301,492,5756,15120,-240,12,-80
4392.615,293,301,297,301,492,5756,15120,-240,12,-80
4396.701,294,301,297,301,492,5756,15120,-240,12,-80
4403.23,293,301,297,301,392,5892,14992,-91,65,-41
4403.23,294,301,296,301,392,5892,14992,-91,65,-41
4414.039,294,302,296,301,392,5892,14992,-91,65,-41
4419.025000000001,294,302,298,301,392,5892,14992,-91,65,-41
4424.518,294,302,298,301,392,5892,14992,-91,65,-41
4424.518,294,303,297,300,392,5892,14992,-91,65,-41
4436.153,294,304,298,301,392,5892,14992,-91,65,-41
4436.153,295,303,298,301,392,5892,14992,-91,65,-41
4447.991,296,304,298,301,492,5764,15056,-124,-50,-5
4447.991,296,305,299,301,492,5764,15056,-124,-50,-5
4457.762,296,306,299,302,492,5764,15056,-124,-50,-5
4458.564,296,306,299,302,492,5764,15056,-124,-50,-5
4469.7,297,307,300,301,492,5764,15056,-124,-50,-5
4469.7,298,307,300,301,492,5764,15056,-124,-50,-5
4480.805,299,307,301,302,492,5764,15056,-124,-50,-5
4484.262000000001,300,308,301,302,500,5840,15028,39,-42,-33
4491.454,301,308,301,302,500,5840,15028,39,-42,-33
4493.045,300,308,301,302,500,5840,15028,39,-42,-33
4502.599,300,309,302,303,500,5840,15028,39,-42,-33
4502.599,301,309,302,303,500,5840,15028,39,-42,-33
4509.094,301,309,302,302,500,5840,15028,39,-42,-33
4514.439,301,309,302,302,500,5840,15028,39,-42,-33
4524.591,302,309,302,303,468,5772,15052,-215,7,-25
4526.409000000001,303,309,302,303,468,5772,15052,-215,7,-25
4535.877,303,309,301,302,468,5772,15052,-215,7,-25
4536.269,303,309,302,303,468,5772,15052,-215,7,-25
4536.269,303,309,302,303,468,5772,15052,-215,7,-25
4549.87,304,309,302,303,468,5772,15052,-215,7,-25
4553.429999999999,303,309,301,303,468,5772,15052,-215,7,-25
4558.4259999999995,304,309,302,304,468,5772,15052,-215,7,-25
4568.866,305,308,302,304,440,5908,15012,-63,-8,8
4570.775000000001,305,308,302,304,440,5908,15012,-63,-8,8
4570.775000000001,304,308,302,303,440,5908,15012,-63,-8,8
4580.802000000001,305,309,302,304,440,5908,15012,-63,-8,8
4588.877,305,309,303,304,440,5908,15012,-63,-8,8
4591.496,305,309,302,304,440,5908,15012,-63,-8,8
4591.496,305,309,302,305,440,5908,15012,-63,-8,8
4602.099,305,309,303,305,432,5828,15068,-89,-35,-12
4603.39,306,309,303,305,432,5828,15068,-89,-35,-12
4613.908,307,309,302,305,432,5828,15068,-89,-35,-12
4615.321,307,309,303,305,432,5828,15068,-89,-35,-12
4625.432,307,309,303,306,432,5828,15068,-89,-35,-12
4625.432,306,309,303,306,432,5828,15068,-89,-35,-12
4636.226,307,310,303,306,432,5828,15068,-89,-35,-12
4639.9400000000005,307,311,303,307,432,5828,15068,-89,-35,-12
4647.147999999999,307,311,303,307,472,5808,15012,-24,-20,1
4648.0689999999995,307,311,303,306,472,5808,15012,-24,-20,1
4658.4310000000005,307,310,303,307,472,5808,15012,-24,-20,1
4658.4310000000005,308,311,304,307,472,5808,15012,-24,-20,1
4665.259,308,310,304,307,472,5808,15012,-24,-20,1
4669.849,308,311,303,306,472,5808,15012,-24,-20,1
4679.739,308,310,303,307,472,5808,15012,-24,-20,1
4680.6539999999995,308,310,303,307,428,5800,15024,-69,12,7
4684.929,308,310,303,307,428,5800,15024,-69,12,7
4692.175,309,310,303,306,428,5800,15024,-69,12,7
4696.665,309,310,303,307,428,5800,15024,-69,12,7
4702.66,309,310,304,308,428,5800,15024,-69,12,7
4704.909,308,309,304,308,428,5800,15024,-69,12,7
4714.119000000001,308,310,303,307,428,5800,15024,-69,12,7
4717.031999999999,308,309,303,307,428,5800,15024,-69,12,7
4724.145,308,310,304,308,412,5828,15028,-48,-9,11
4725.731,308,310,303,307,412,5828,15028,-48,-9,11
4735.629,308,310,303,307,412,5828,15028,-48,-9,11
4735.629,307,309,304,308,412,5828,15028,-48,-9,11
4741.809,308,310,304,308,412,5828,15028,-48,-9,11
4747.07,309,310,303,307,412,5828,15028,-48,-9,11
4757.092000000001,308,310,303,307,412,5828,15028,-48,-9,11
4759.441,308,311,304,308,412,5828,15028,-48,-9,11
4768.835,308,311,304,308,432,5752,14964,9,-13,-8
4769.670999999999,308,310,304,308,432,5752,14964,9,-13,-8
4775.16,308,311,304,307,432,5752,14964,9,-13,-8
4780.412,309,310,304,308,432,5752,14964,9,-13,-8
4782.989,309,310,305,308,432,5752,14964,9,-13,-8
4793.361,309,311,304,308,432,5752,14964,9,-13,-8
4793.361,309,311,304,308,432,5752,14964,9,-13,-8
4802.084,308,310,304,308,432,5752,14964,9,-13,-8
4803.496,308,310,305,308,452,5824,15048,-42,10,-10
4813.58,309,310,304,308,452,5824,15048,-42,10,-10
4815.479,309,310,304,308,452,5824,15048,-42,10,-10
4824.824,309,310,305,308,452,5824,15048,-42,10,-10
4827.463,310,310,305,308,452,5824,15048,-42,10,-10
4835.218,309,309,304,307,452,5824,15048,-42,10,-10
4836.638,310,310,305,308,452,5824,15048,-42,10,-10
4846.768,309,309,305,309,416,5852,15064,-38,5,1
4847.532,310,309,304,308,416,5852,15064,-38,5,1
4853.111,310,309,304,307,416,5852,15064,-38,5,1
4858.554,309,309,304,308,416,5852,15064,-38,5,1
4858.554,310,308,305,308,416,5852,15064,-38,5,1
4869.710999999999,310,308,304,307,416,5852,15064,-38,5,1
4869.710999999999,310,308,304,307,416,5852,15064,-38,5,1
4880.1050000000005,310,308,304,308,416,5852,15064,-38,5,1
4884.126,309,308,304,308,464,5864,15092,-48,8,-5
4892.203,309,308,303,307,464,5864,15092,-48,8,-5
4892.203,309,309,303,307,464,5864,15092,-48,8,-5
4898.551,309,309,304,307,464,5864,15092,-48,8,-5
4903.11,308,308,304,307,464,5864,15092,-48,8,-5
4912.811,309,308,304,306,464,5864,15092,-48,8,-5
4914.249,309,307,304,306,464,5864,15092,-48,8,-5
4919.066,309,308,304,306,464,5864,15092,-48,8,-5
4924.719,308,307,304,307,476,5772,15004,-56,35,-37
4930.295,308,307,303,306,476,5772,15004,-56,35,-37
4935.736999999999,308,307,303,306,476,5772,15004,-56,35,-37
4938.8550000000005,308,308,303,306,476,5772,15004,-56,35,-37
4947.697,308,307,304,307,476,5772,15004,-56,35,-37
4947.697,309,307,303,305,476,5772,15004,-56,35,-37
4958.6269999999995,309,307,303,306,476,5772,15004,-56,35,-37
4963.599,309,307,303,307,460,5776,14992,-50,11,-15
4969.889,308,307,303,305,460,5776,14992,-50,11,-15
4970.716,308,307,302,305,460,5776,14992,-50,11,-15
4980.778,308,307,303,306,460,5776,14992,-50,11,-15
4984.956,309,307,303,306,460,5776,14992,-50,11,-15
4990.827,308,307,303,305,460,5776,14992,-50,11,-15
4992.884,309,307,303,305,460,5776,14992,-50,11,-15
5002.41,309,307,303,306,460,5776,14992,-50,11,-15
5002.41,308,306,303,306,456,5832,15048,-20,2,-13
5013.6320000000005,308,307,303,305,456,5832,15048,-20,2,-13
5013.6320000000005,308,307,303,305,456,5832,15048,-20,2,-13
5020.206,308,307,303,306,456,5832,15048,-20,2,-13
5025.726,308,307,303,305,456,5832,15048,-20,2,-13
5035.554,308,308,303,305,456,5832,15048,-20,2,-13
5037.036999999999,309,307,303,305,456,5832,15048,-20,2,-13
5040.687,308,308,304,305,480,5776,15036,-30,-44,-15
5047.003,308,307,303,305,480,5776,15036,-30,-44,-15
5054.572,308,308,303,305,480,5776,15036,-30,-44,-15
5059.01,307,308,303,305,480,5776,15036,-30,-44,-15
5068.584000000001,307,308,303,305,480,5776,15036,-30,-44,-15
5070.095,307,308,303,305,480,5776,15036,-30,-44,-15
5073.540999999999,307,308,303,305,480,5776,15036,-30,-44,-15
5080.402,307,308,303,305,480,5776,15036,-30,-44,-15
5086.836,308,307,303,305,436,5812,15028,-40,-27,-23
5091.871,308,307,303,305,436,5812,15028,-40,-27,-23
5101.988,307,307,303,305,436,5812,15028,-40,-27,-23
5103.411,307,307,303,306,436,5812,15028,-40,-27,-23
5113.3730000000005,307,307,303,305,436,5812,15028,-40,-27,-23
5114.2519999999995,308,307,302,305,436,5812,15028,-40,-27,-23
5119.098,308,306,303,306,436,5812,15028,-40,-27,-23
5125.454000000001,308,306,303,305,424,5808,15028,-29,-3,-33
5125.454000000001,308,306,302,304,424,5808,15028,-29,-3,-33
5136.299,308,306,302,304,424,5808,15028,-29,-3,-33
5136.299,307,306,303,305,424,5808,15028,-29,-3,-33
5147.653,307,306,302,305,424,5808,15028,-29,-3,-33
5147.653,307,307,302,304,424,5808,15028,-29,-3,-33
5157.232,307,306,302,305,424,5808,15028,-29,-3,-33
5162.451,307,306,303,305,472,5788,15040,-38,-48,-1
5170.816000000001,308,306,302,304,472,5788,15040,-38,-48,-1
5170.816000000001,308,306,302,304,472,5788,15040,-38,-48,-1
5181.438,307,306,302,305,472,5788,15040,-38,-48,-1
5181.438,307,307,302,304,472,5788,15040,-38,-48,-1
5190.9929999999995,307,306,301,304,472,5788,15040,-38,-48,-1
5191.744,307,307,301,304,472,5788,15040,-38,-48,-1
5202.958,307,306,302,304,472,5788,15040,-38,-48,-1
5202.958,306,306,302,305,476,5852,15056,-22,-53,-17
5214.262,306,306,301,304,476,5852,15056,-22,-53,-17
5217.384,306,306,301,304,476,5852,15056,-22,-53,-17
5223.963000000001,307,306,301,304,476,5852,15056,-22,-53,-17
5226.375,306,306,301,304,476,5852,15056,-22,-53,-17
5235.868,306,306,301,304,476,5852,15056,-22,-53,-17
5237.798,306,305,301,304,476,5852,15056,-22,-53,-17
5247.593,306,305,301,304,504,5776,15016,-56,-45,-8
5247.593,306,305,301,303,504,5776,15016,-56,-45,-8
5257.079,307,305,301,303,504,5776,15016,-56,-45,-8
5258.6050000000005,306,305,302,304,504,5776,15016,-56,-45,-8
5268.751,306,305,301,303,504,5776,15016,-56,-45,-8
5269.445,306,305,301,303,504,5776,15016,-56,-45,-8
5280.231,306,305,301,304,504,5776,15016,-56,-45,-8
5280.231,306,305,302,304,420,5864,15000,8,-21,5
5287.469,307,305,302,303,420,5864,15000,8,-21,5
5292.002,307,304,302,303,420,5864,15000,8,-21,5
5295.46,307,304,302,304,420,5864,15000,8,-21,5
5303.906,307,304,302,304,420,5864,15000,8,-21,5
5303.906,307,305,302,304,420,5864,15000,8,-21,5
5314.4130000000005,307,305,302,303,420,5864,15000,8,-21,5
5314.4130000000005,306,305,302,304,420,5864,15000,8,-21,5
5325.325999999999,306,305,302,304,488,5836,15024,-80,-28,-12
5327.911,306,306,302,304,488,5836,15024,-80,-28,-12
5335.098999999999,308,305,302,303,488,5836,15024,-80,-28,-12
5336.277,307,305,302,304,488,5836,15024,-80,-28,-12
5346.733,308,305,302,305,488,5836,15024,-80,-28,-12
5347.425,308,305,301,304,488,5836,15024,-80,-28,-12
5358.07,307,306,301,304,488,5836,15024,-80,-28,-12
5360.187,306,305,301,304,488,5836,15024,-80,-28,-12
5368.4310000000005,307,305,301,304,456,5844,14988,-27,0,-29
5370.985,307,305,301,303,456,5844,14988,-27,0,-29
5379.807,307,304,301,304,456,5844,14988,-27,0,-29
5380.711,307,305,301,304,456,5844,14988,-27,0,-29
5391.841,307,305,301,304,456,5844,14988,-27,0,-29
5393.416,307,305,300,304,456,5844,14988,-27,0,-29
5393.416,306,305,301,304,456,5844,14988,-27,0,-29
5404.4439999999995,306,304,301,304,484,5820,14980,-49,10,-19
5404.4439999999995,306,304,300,304,484,5820,14980,-49,10,-19
5414.495,306,305,300,304,484,5820,14980,-49,10,-19
5414.495,306,304,300,304,484,5820,14980,-49,10,-19
5425.285,307,304,300,304,484,5820,14980,-49,10,-19
5430.528,307,304,300,304,484,5820,14980,-49,10,-19
5435.702,307,305,300,304,484,5820,14980,-49,10,-19
5435.702,305,305,300,304,484,5820,14980,-49,10,-19
5448.01,306,305,300,304,492,5812,14972,-51,2,-30
5448.01,306,305,300,304,492,5812,14972,-51,2,-30
5457.867,306,305,300,304,492,5812,14972,-51,2,-30
5458.599,306,304,300,305,492,5812,14972,-51,2,-30
5469.228,306,305,299,304,492,5812,14972,-51,2,-30
5470.134,305,305,299,304,492,5812,14972,-51,2,-30
5480.881,305,305,299,304,492,5812,14972,-51,2,-30
5483.041,305,305,300,305,468,5820,14988,-79,11,-29
5491.138,305,305,299,304,468,5820,14988,-79,11,-29
5493.12,306,305,299,303,468,5820,14988,-79,11,-29
5502.2570000000005,305,305,299,304,468,5820,14988,-79,11,-29
5503.0599999999995,305,305,300,305,468,5820,14988,-79,11,-29
5514.467,305,304,299,304,468,5820,14988,-79,11,-29
5514.467,306,304,299,304,468,5820,14988,-79,11,-29
5514.467,306,304,299,304,468,5820,14988,-79,11,-29
5525.711,305,305,299,304,472,5796,15008,-27,-16,9
5535.38,305,305,299,304,472,5796,15008,-27,-16,9
5537.036999999999,305,305,299,304,472,5796,15008,-27,-16,9
5541.1669999999995,305,305,300,305,472,5796,15008,-27,-16,9
5546.936,306,304,300,305,472,5796,15008,-27,-16,9
5552.884,305,304,300,304,472,5796,15008,-27,-16,9
5558.1269999999995,306,304,300,304,472,5796,15008,-27,-16,9
5558.1269999999995,306,305,301,305,424,5828,14996,-26,16,0
5569.633,305,305,301,304,424,5828,14996,-26,16,0
5573.833,305,305,300,304,424,5828,14996,-26,16,0
5580.979,305,305,301,305,424,5828,14996,-26,16,0
5581.769,305,305,301,305,424,5828,14996,-26,16,0
5591.721,305,305,301,304,424,5828,14996,-26,16,0
5591.721,307,305,300,304,424,5828,14996,-26,16,0
5598.935,306,305,301,305,424,5828,14996,-26,16,0
5603.2609999999995,306,305,301,305,432,5836,15036,-33,6,-21
5612.860000000001,306,305,301,305,432,5836,15036,-33,6,-21
5614.186,306,305,301,304,432,5836,15036,-33,6,-21
5619.474,305,305,302,305,432,5836,15036,-33,6,-21
5624.723,305,305,302,305,432,5836,15036,-33,6,-21
5630.536,306,305,301,304,432,5836,15036,-33,6,-21
5635.86,306,305,302,305,432,5836,15036,-33,6,-21
5639.373,307,304,302,305,432,5836,15036,-33,6,-21
5647.727,307,304,302,306,428,5864,15000,-65,-4,-35
5647.727,306,305,302,304,428,5864,15000,-65,-4,-35
5658.604,306,305,302,305,428,5864,15000,-65,-4,-35
5658.604,306,305,303,305,428,5864,15000,-65,-4,-35
5669.932,306,305,302,305,428,5864,15000,-65,-4,-35
5669.932,306,305,302,305,428,5864,15000,-65,-4,-35
5681.332,307,305,303,305,428,5864,15000,-65,-4,-35
5683.776,306,305,302,306,484,5840,15004,-65,-4,-26
5691.484,307,305,302,305,484,5840,15004,-65,-4,-26
5693.295,306,305,302,305,484,5840,15004,-65,-4,-26
5702.585,306,305,302,305,484,5840,15004,-65,-4,-26
5704.363,305,306,302,306,484,5840,15004,-65,-4,-26
5714.389,306,306,302,305,484,5840,15004,-65,-4,-26
5716.4349999999995,307,305,302,304,484,5840,15004,-65,-4,-26
5724.016,307,306,302,305,484,5840,15004,-65,-4,-26
5731.748,306,305,302,305,500,5860,15020,-73,-5,-47
5736.143,306,305,301,304,500,5860,15020,-73,-5,-47
5739.772,306,306,301,305,500,5860,15020,-73,-5,-47
5744.135,306,305,301,305,500,5860,15020,-73,-5,-47
5751.625,306,306,301,305,500,5860,15020,-73,-5,-47
5753.29,306,306,301,304,500,5860,15020,-73,-5,-47
5758.4710000000005,306,305,301,305,500,5860,15020,-73,-5,-47
5768.703,307,306,301,305,436,5888,15008,-81,7,-9
5770.052,307,305,301,304,436,5888,15008,-81,7,-9
5770.052,307,305,300,305,436,5888,15008,-81,7,-9
5780.852000000001,306,305,301,305,436,5888,15008,-81,7,-9
5789.195000000001,306,305,301,305,436,5888,15008,-81,7,-9
5792.275,306,305,301,304,436,5888,15008,-81,7,-9
5794.603999999999,306,305,301,304,436,5888,15008,-81,7,-9
5801.512,306,305,301,305,436,5888,15008,-81,7,-9
5802.837,306,304,301,305,412,5824,14972,-81,17,-52
5813.999,307,304,301,304,412,5824,14972,-81,17,-52
5813.999,307,304,300,305,412,5824,14972,-81,17,-52
5825.076,307,304,301,305,412,5824,14972,-81,17,-52
5827.03,306,304,301,305,412,5824,14972,-81,17,-52
5834.984,305,304,300,304,412,5824,14972,-81,17,-52
5836.188,306,305,300,305,412,5824,14972,-81,17,-52
5846.346,306,305,300,305,460,5824,15024,-28,1,0
5847.5960000000005,306,305,300,304,460,5824,15024,-28,1,0
5853.875,306,305,300,304,460,5824,15024,-28,1,0
5858.094,306,305,301,305,460,5824,15024,-28,1,0
5864.1050000000005,306,305,301,305,460,5824,15024,-28,1,0
5869.322,306,305,300,304,460,5824,15024,-28,1,0
5872.244000000001,306,305,300,304,460,5824,15024,-28,1,0
5880.02,306,305,300,304,460,5824,15024,-28,1,0
5880.87,306,304,300,305,480,5784,15016,-102,-13,-31
5891.51,306,304,300,304,480,5784,15016,-102,-13,-31
5892.273,306,304,300,304,480,5784,15016,-102,-13,-31
5904.028,306,304,301,304,480,5784,15016,-102,-13,-31
5907.860000000001,306,304,300,304,480,5784,15016,-102,-13,-31
5914.228999999999,306,304,299,304,480,5784,15016,-102,-13,-31
5917.316,306,304,300,304,480,5784,15016,-102,-13,-31
5924.767,306,304,301,304,480,5784,15016,-102,-13,-31
5924.981,306,305,300,304,472,5844,14988,-17,-15,-26
5936.428,306,304,300,304,472,5844,14988,-17,-15,-26
5936.428,306,304,300,304,472,5844,14988,-17,-15,-26
5947.587,306,304,301,304,472,5844,14988,-17,-15,-26
5950.0070000000005,306,304,300,303,472,5844,14988,-17,-15,-26
5959.939,306,304,300,303,472,5844,14988,-17,-15,-26
5959.939,305,304,301,304,472,5844,14988,-17,-15,-26
5968.999,305,304,301,304,448,5816,15004,-90,2,-7
5969.79,306,304,301,304,448,5816,15004,-90,2,-7
5981.002,307,304,301,304,448,5816,15004,-90,2,-7
5983.13,306,304,301,304,448,5816,15004,-90,2,-7
5990.554999999999,307,304,301,304,448,5816,15004,-90,2,-7
5993.052,306,305,301,304,448,5816,15004,-90,2,-7
6002.01,306,305,302,304,448,5816,15004,-90,2,-7
6003.401,306,305,302,305,448,5816,15004,-90,2,-7
6008.759,306,305,301,304,496,5776,14980,-24,18,-16
6013.745,306,304,301,304,496,5776,14980,-24,18,-16
6019.797,306,304,301,304,496,5776,14980,-24,18,-16
6025.325,307,304,301,304,496,5776,14980,-24,18,-16
6025.325,306,304,301,304,496,5776,14980,-24,18,-16
6036.098,307,304,301,304,496,5776,14980,-24,18,-16
6040.882,306,304,301,304,496,5776,14980,-24,18,-16
6046.933,306,304,301,304,456,5852,15060,-68,3,-34
6048.485000000001,306,304,300,303,456,5852,15060,-68,3,-34
6059.066,306,304,301,304,456,5852,15060,-68,3,-34
6059.066,307,303,301,304,456,5852,15060,-68,3,-34
6069.67,307,304,301,304,456,5852,15060,-68,3,-34
6073.527,307,304,300,303,456,5852,15060,-68,3,-34
6080.852,306,304,300,303,456,5852,15060,-68,3,-34
6082.481,305,304,301,304,456,5852,15060,-68,3,-34
6092.3150000000005,305,304,300,304,436,5796,15012,-77,42,-20
6092.3150000000005,305,304,300,303,436,5796,15012,-77,42,-20
6101.518999999999,305,304,300,304,436,5796,15012,-77,42,-20
6103.318,305,304,301,304,436,5796,15012,-77,42,-20
6112.744000000001,306,304,300,304,436,5796,15012,-77,42,-20
6114.0509999999995,306,304,300,303,436,5796,15012,-77,42,-20
6125.105,306,304,301,304,436,5796,15012,-77,42,-20
6125.384999999999,304,304,300,303,456,5860,14980,-46,11,-32
6130.893999999999,305,304,300,303,456,5860,14980,-46,11,-32
6136.473,305,304,301,303,456,5860,14980,-46,11,-32
6146.576999999999,305,304,301,304,456,5860,14980,-46,11,-32
6148.488,305,304,301,304,456,5860,14980,-46,11,-32
6157.391,306,304,300,303,456,5860,14980,-46,11,-32
6159.406,305,304,301,304,456,5860,14980,-46,11,-32
6163.045999999999,305,305,301,304,456,5860,14980,-46,11,-32
6169.392,304,305,301,304,444,5832,15020,-78,3,-25
6171.454,304,305,301,303,444,5832,15020,-78,3,-25
6181.253,305,305,301,304,444,5832,15020,-78,3,-25
6181.253,305,305,301,304,444,5832,15020,-78,3,-25
6192.3640000000005,306,305,302,304,444,5832,15020,-78,3,-25
6196.5070000000005,305,305,301,304,444,5832,15020,-78,3,-25
6202.316,305,305,302,304,444,5832,15020,-78,3,-25
6202.316,305,305,302,304,432,5800,14976,-45,12,-20
6214.059,305,305,302,304,432,5800,14976,-45,12,-20
6216.863,305,305,302,304,432,5800,14976,-45,12,-20
6224.308,305,305,302,305,432,5800,14976,-45,12,-20
6226.473,305,305,302,305,432,5800,14976,-45,12,-20
6235.525,306,305,302,304,432,5800,14976,-45,12,-20
6236.2609999999995,305,305,303,305,432,5800,14976,-45,12,-20
6248.01,306,306,303,305,432,5800,14976,-45,12,-20
6248.01,305,306,303,305,436,5820,15000,-184,286,-90
6257.495,305,306,303,305,436,5820,15000,-184,286,-90
6259.2699999999995,305,306,303,305,436,5820,15000,-184,286,-90
6268.442,305,307,303,305,436,5820,15000,-184,286,-90
6269.775000000001,305,307,303,305,436,5820,15000,-184,286,-90
6280.4619999999995,305,307,303,305,436,5820,15000,-184,286,-90
6281.311,305,306,303,305,436,5820,15000,-184,286,-90
6292.022,306,306,303,305,384,5824,15008,-310,231,-93
6293.882,305,306,303,304,384,5824,15008,-310,231,-93
6302.27,306,307,303,305,384,5824,15008,-310,231,-93
6303.7919999999995,306,306,304,305,384,5824,15008,-310,231,-93
6313.631,306,306,303,305,384,5824,15008,-310,231,-93
6314.143999999999,305,306,303,305,384,5824,15008,-310,231,-93
6325.764,306,306,304,306,384,5824,15008,-310,231,-93
6325.764,305,305,304,306,392,5760,14988,-96,64,-43
6336.425,306,306,303,305,392,5760,14988,-96,64,-43
6336.425,306,305,304,306,392,5760,14988,-96,64,-43
6346.631,306,305,304,306,392,5760,14988,-96,64,-43
6347.32,306,305,303,305,392,5760,14988,-96,64,-43
6358.572,306,306,303,305,392,5760,14988,-96,64,-43
6358.572,306,305,304,306,392,5760,14988,-96,64,-43
6364.7970000000005,306,305,304,306,412,5816,15076,-89,28,-29
6369.8949999999995,306,305,303,305,412,5816,15076,-89,28,-29
6379.531,306,305,303,305,412,5816,15076,-89,28,-29
6381.353,305,305,303,306,412,5816,15076,-89,28,-29
6391.153,305,305,303,306,412,5816,15076,-89,28,-29
6392.956,306,305,302,305,412,5816,15076,-89,28,-29
6392.956,305,306,303,305,412,5816,15076,-89,28,-29
6403.133000000001,306,305,303,306,412,5816,15076,-89,28,-29
6412.0419999999995,306,305,302,305,368,5760,15048,-36,-16,-10
6415.323,306,306,302,305,368,5760,15048,-36,-16,-10
6424.354,306,306,303,306,368,5760,15048,-36,-16,-10
6425.6,305,306,302,306,368,5760,15048,-36,-16,-10
6425.6,306,306,302,305,368,5760,15048,-36,-16,-10
6436.320000000001,306,306,302,305,368,5760,15048,-36,-16,-10
6445.853999999999,305,306,302,306,368,5760,15048,-36,-16,-10
6447.4580000000005,306,306,302,305,416,5788,15012,-102,-36,-14
6456.0380000000005,305,305,301,305,416,5788,15012,-102,-36,-14
6460.18,305,306,302,305,416,5788,15012,-102,-36,-14
6468.7609999999995,304,306,302,306,416,5788,15012,-102,-36,-14
6470.43,306,306,301,305,416,5788,15012,-102,-36,-14
6470.43,306,306,302,305,416,5788,15012,-102,-36,-14
6481.0470000000005,305,306,302,305,416,5788,15012,-102,-36,-14
6488.263,305,306,302,305,420,5796,15004,-32,-47,-4
6492.806,307,306,301,304,420,5796,15004,-32,-47,-4
6501.749,306,306,301,305,420,5796,15004,-32,-47,-4
6503.499,306,306,301,305,420,5796,15004,-32,-47,-4
6507.086,305,306,301,305,420,5796,15004,-32,-47,-4
6514.294,305,306,301,305,420,5796,15004,-32,-47,-4
6520.253000000001,305,306,301,305,420,5796,15004,-32,-47,-4
6525.695,305,306,301,305,420,5796,15004,-32,-47,-4
6534.795,305,306,301,304,380,5816,15004,-56,-39,-43
6536.2119999999995,306,306,301,304,380,5816,15004,-56,-39,-43
6536.2119999999995,305,306,302,305,380,5816,15004,-56,-39,-43
6547.506,305,306,301,305,380,5816,15004,-56,-39,-43
6552.598,306,306,301,304,380,5816,15004,-56,-39,-43
6558.169999999999,306,306,301,304,380,5816,15004,-56,-39,-43
6560.441,305,306,301,305,380,5816,15004,-56,-39,-43
6570.5869999999995,305,306,301,304,456,5812,15032,-24,6,-8
6570.5869999999995,306,306,300,304,456,5812,15032,-24,6,-8
6579.8589999999995,305,306,300,304,456,5812,15032,-24,6,-8
6581.213,306,306,300,305,456,5812,15032,-24,6,-8
6592.222,305,306,300,304,456,5812,15032,-24,6,-8
6592.222,305,306,300,304,456,5812,15032,-24,6,-8
6597.938,305,306,300,305,456,5812,15032,-24,6,-8
6603.068,305,306,300,305,456,5812,15032,-24,6,-8
6612.856,305,305,300,304,404,5780,15068,-105,-44,-43
6614.652999999999,306,306,300,304,404,5780,15068,-105,-44,-43
6624.809,306,306,300,304,404,5780,15068,-105,-44,-43
6626.205,306,305,300,304,404,5780,15068,-105,-44,-43
6635.521,306,305,299,304,404,5780,15068,-105,-44,-43
6637.9400000000005,305,306,299,304,404,5780,15068,-105,-44,-43
6645.763,305,306,300,304,404,5780,15068,-105,-44,-43
6648.428,305,306,299,303,400,5732,15008,-100,-19,-51
6657.864,305,306,299,303,400,5732,15008,-100,-19,-51
6658.67,305,306,299,303,400,5732,15008,-100,-19,-51
6669.925,305,306,300,304,400,5732,15008,-100,-19,-51
6671.1410000000005,305,305,299,303,400,5732,15008,-100,-19,-51
6680.4529999999995,305,306,300,303,400,5732,15008,-100,-19,-51
6683.044,305,306,300,304,400,5732,15008,-100,-19,-51
6690.487,305,306,300,303,356,5848,15012,-294,249,-122
6691.917,305,306,299,303,356,5848,15012,-294,249,-122
6702.746999999999,305,305,299,303,356,5848,15012,-294,249,-122
6702.746999999999,305,305,300,303,356,5848,15012,-294,249,-122
6714.658,305,305,300,303,356,5848,15012,-294,249,-122
6714.658,306,305,300,303,356,5848,15012,-294,249,-122
6725.2210000000005,305,306,301,304,356,5848,15012,-294,249,-122
6729.019,305,306,300,304,368,5696,15132,-436,262,-139
6736.664,306,305,300,303,368,5696,15132,-436,262,-139
6740.47,306,306,300,304,368,5696,15132,-436,262,-139
6747.27,306,305,301,304,368,5696,15132,-436,262,-139
6747.27,307,305,300,304,368,5696,15132,-436,262,-139
6758.486000000001,307,305,300,303,368,5696,15132,-436,262,-139
6768.197,306,306,301,304,368,5696,15132,-436,262,-139
6769.777,306,306,301,304,344,5680,15052,-255,89,-77
6774.492,306,306,301,303,344,5680,15052,-255,89,-77
6780.527,306,306,301,304,344,5680,15052,-255,89,-77
6785.59,305,306,301,304,344,5680,15052,-255,89,-77
6791.651,306,306,301,303,344,5680,15052,-255,89,-77
6794.152999999999,306,306,301,303,344,5680,15052,-255,89,-77
6803.6089999999995,306,306,301,304,344,5680,15052,-255,89,-77
6803.6089999999995,306,307,302,303,352,5712,15100,-107,-15,-75
6814.563,306,307,302,303,352,5712,15100,-107,-15,-75
6819.62,305,306,302,303,352,5712,15100,-107,-15,-75
6824.752,305,307,303,303,352,5712,15100,-107,-15,-75
6830.796,306,306,303,303,352,5712,15100,-107,-15,-75
6835.927,306,305,303,302,352,5712,15100,-107,-15,-75
6846.008000000001,305,306,303,303,352,5712,15100,-107,-15,-75
6847.826,305,305,303,303,328,5732,15012,-125,62,-80
6851.789,305,306,302,302,328,5732,15012,-125,62,-80
6857.956999999999,304,306,303,302,328,5732,15012,-125,62,-80
6863.619,305,306,303,303,328,5732,15012,-125,62,-80
6869.170999999999,305,306,303,303,328,5732,15012,-125,62,-80
6876.356000000001,306,306,303,302,328,5732,15012,-125,62,-80
6881.039000000001,305,305,304,303,328,5732,15012,-125,62,-80
6890.686,306,305,303,303,316,5652,15092,-200,46,-86
6892.477000000001,305,305,303,302,316,5652,15092,-200,46,-86
6892.477000000001,304,306,304,302,316,5652,15092,-200,46,-86
6903.252,304,305,304,303,316,5652,15092,-200,46,-86
6909.8189999999995,304,305,304,303,316,5652,15092,-200,46,-86
6914.624,305,305,304,302,316,5652,15092,-200,46,-86
6923.994000000001,305,304,304,302,316,5652,15092,-200,46,-86
6925.979,305,304,305,304,316,5652,15092,-200,46,-86
6931.548000000001,306,304,304,302,328,5692,15108,-156,-9,-47
6936.798,304,304,305,302,328,5692,15108,-156,-9,-47
6942.8369999999995,305,304,305,303,328,5692,15108,-156,-9,-47
6947.324,305,304,305,303,328,5692,15108,-156,-9,-47
6947.324,305,304,305,302,328,5692,15108,-156,-9,-47
6958.826,305,303,304,303,328,5692,15108,-156,-9,-47
6958.826,306,303,305,303,328,5692,15108,-156,-9,-47
6969.594,305,303,305,303,300,5496,15216,1,29,-32
6974.904,306,303,305,303,300,5496,15216,1,29,-32
6980.023,305,303,306,303,300,5496,15216,1,29,-32
6980.023,305,303,307,304,300,5496,15216,1,29,-32
6993.008,305,303,308,303,300,5496,15216,1,29,-32
6993.008,306,304,309,302,300,5496,15216,1,29,-32
7001.692,307,304,310,303,300,5496,15216,1,29,-32
7003.554,308,304,311,302,300,5496,15216,1,29,-32
7013.358,309,304,311,300,296,5208,15796,34,198,-47
7014.737,310,305,312,297,296,5208,15796,34,198,-47
7014.737,309,305,313,298,296,5208,15796,34,198,-47
7023.9349999999995,308,306,312,299,296,5208,15796,34,198,-47
7033.133000000001,308,306,313,298,296,5208,15796,34,198,-47
7038.951,308,306,314,299,296,5208,15796,34,198,-47
7046.496,310,308,316,299,296,5208,15796,34,198,-47
7048.286,310,308,318,298,332,4620,16776,1831,736,233
7048.286,312,309,317,295,332,4620,16776,1831,736,233
7058.896,313,310,318,292,332,4620,16776,1831,736,233
7064.8730000000005,315,311,320,291,332,4620,16776,1831,736,233
7069.826,315,309,320,290,332,4620,16776,1831,736,233
7079.557000000001,313,305,318,289,332,4620,16776,1831,736,233
7081.1669999999995,311,303,317,292,332,4620,16776,1831,736,233
7091.503000000001,311,299,316,296,1072,6460,19312,5989,2240,-2058
7096.297,310,292,314,304,1072,6460,19312,5989,2240,-2058
7103.864,308,285,312,314,1072,6460,19312,5989,2240,-2058
7108.289,304,278,310,324,1072,6460,19312,5989,2240,-2058
7114.639999999999,303,273,306,332,1072,6460,19312,5989,2240,-2058
7117.245,301,269,304,337,1072,6460,19312,5989,2240,-2058
7126.253000000001,303,272,305,341,1072,6460,19312,5989,2240,-2058
7126.253000000001,310,276,308,342,1988,11684,18676,16379,2873,-4511
7136.919,325,280,312,340,1988,11684,18676,16379,2873,-4511
7142.45,341,284,310,338,1988,11684,18676,16379,2873,-4511
7147.614,358,286,305,332,1988,11684,18676,16379,2873,-4511
7158.4890000000005,379,287,298,325,1988,11684,18676,16379,2873,-4511
7162.985,398,295,286,318,1988,11684,18676,16379,2873,-4511
7169.821,420,305,279,310,840,11648,16940,23481,4712,-7662
7174.8279999999995,457,319,269,299,840,11648,16940,23481,4712,-7662
7180.348999999999,482,322,259,295,840,11648,16940,23481,4712,-7662
7190.692999999999,512,321,243,293,840,11648,16940,23481,4712,-7662
7192.402999999999,541,321,228,293,840,11648,16940,23481,4712,-7662
7202.244000000001,572,322,232,299,840,11648,16940,23481,4712,-7662
7202.996,593,325,244,309,840,11648,16940,23481,4712,-7662
7214.858,608,316,226,318,-420,12944,13416,32511,2491,-11287
7222.9710000000005,617,276,184,331,-420,12944,13416,32511,2491,-11287
7225.0019999999995,622,245,140,341,-420,12944,13416,32511,2491,-11287
7235.018,613,220,98,348,-420,12944,13416,32511,2491,-11287
7236.397,597,205,83,354,-420,12944,13416,32511,2491,-11287
7247.650000000001,578,198,78,361,-420,12944,13416,32511,2491,-11287
7255.8189999999995,554,206,71,364,-592,14684,9376,32511,494,-16018
7258.396000000001,533,240,63,366,-592,14684,9376,32511,494,-16018
7267.168,510,265,55,369,-592,14684,9376,32511,494,-16018
7269.848,487,286,49,372,-592,14684,9376,32511,494,-16018
7279.999,465,301,45,377,-592,14684,9376,32511,494,-16018
7280.844,443,313,40,381,-592,14684,9376,32511,494,-16018
7292.177,419,320,27,384,-1568,14380,6828,32511,931,-20792
7293.812,405,326,19,382,-1568,14380,6828,32511,931,-20792
7302.838000000001,394,332,15,378,-1568,14380,6828,32511,931,-20792
7306.102,383,339,22,373,-1568,14380,6828,32511,931,-20792
7314.999,373,347,31,362,-1568,14380,6828,32511,931,-20792
7318.878,361,356,37,352,-1568,14380,6828,32511,931,-20792
7324.7119999999995,349,371,42,341,-1568,14380,6828,32511,931,-20792
7336.198,333,389,47,324,-3728,12168,2328,28226,-2551,-19737
7336.198,312,415,53,303,-3728,12168,2328,28226,-2551,-19737
7347.9890000000005,298,433,58,285,-3728,12168,2328,28226,-2551,-19737
7351.381,280,445,63,263,-3728,12168,2328,28226,-2551,-19737
7359.619000000001,264,449,65,244,-3728,12168,2328,28226,-2551,-19737
7369.954,246,451,70,223,-3728,12168,2328,28226,-2551,-19737
7369.954,232,450,75,203,-5852,12288,1732,21211,-3473,-16919
7380.951,212,442,81,179,-5852,12288,1732,21211,-3473,-16919
7384.0380000000005,201,440,87,165,-5852,12288,1732,21211,-3473,-16919
7392.45,189,439,96,152,-5852,12288,1732,21211,-3473,-16919
7402.806,176,435,103,154,-5852,12288,1732,21211,-3473,-16919
7403.196999999999,160,428,115,170,-5852,12288,1732,21211,-3473,-16919
7415.243,150,424,132,196,-7620,12232,1760,17929,-5931,-14364
7415.243,137,415,153,233,-7620,12232,1760,17929,-5931,-14364
7426.0380000000005,126,405,171,271,-7620,12232,1760,17929,-5931,-14364
7435.648999999999,114,397,188,311,-7620,12232,1760,17929,-5931,-14364
7438.3679999999995,103,386,208,366,-7620,12232,1760,17929,-5931,-14364
7447.053000000001,92,371,227,419,-7620,12232,1760,17929,-5931,-14364
7447.053000000001,88,361,243,464,-8228,9984,508,16699,-8336,-10933
7458.688,85,344,261,515,-8228,9984,508,16699,-8336,-10933
7458.688,73,326,272,555,-8228,9984,508,16699,-8336,-10933
7469.753,70,309,283,591,-8228,9984,508,16699,-8336,-10933
7474.307,72,295,290,621,-8228,9984,508,16699,-8336,-10933
7480.531,74,281,298,645,-8228,9984,508,16699,-8336,-10933
7491.477,75,270,306,669,-9624,10164,480,17022,-8158,-7246
7491.477,75,258,311,682,-9624,10164,480,17022,-8158,-7246
7503.122,75,249,317,691,-9624,10164,480,17022,-8158,-7246
7507.101,73,240,323,695,-9624,10164,480,17022,-8158,-7246
7515.167,80,232,331,694,-9624,10164,480,17022,-8158,-7246
7518.862,93,229,336,691,-9624,10164,480,17022,-8158,-7246
7524.8949999999995,112,227,339,685,-9624,10164,480,17022,-8158,-7246
7534.7429999999995,144,232,343,671,-10396,11600,-1744,14636,-7907,-4245
7536.485,172,239,347,655,-10396,11600,-1744,14636,-7907,-4245
7548.1720000000005,193,242,349,641,-10396,11600,-1744,14636,-7907,-4245
7552.286999999999,218,252,352,620,-10396,11600,-1744,14636,-7907,-4245
7558.594,242,259,359,599,-10396,11600,-1744,14636,-7907,-4245
7569.712,259,264,364,579,-10396,11600,-1744,14636,-7907,-4245
7572.468,275,269,373,558,-10752,10908,-132,10495,-4770,-2509
7581.889,287,273,383,536,-10752,10908,-132,10495,-4770,-2509
7591.126,297,277,392,517,-10752,10908,-132,10495,-4770,-2509
7592.478,308,283,404,492,-10752,10908,-132,10495,-4770,-2509
7603.289,315,287,415,469,-10752,10908,-132,10495,-4770,-2509
7603.289,322,290,425,449,-10752,10908,-132,10495,-4770,-2509
7615.297,330,297,434,425,-10460,12468,-1224,8504,-2733,-861
7623.911,334,304,441,402,-10460,12468,-1224,8504,-2733,-861
7625.725,332,306,445,382,-10460,12468,-1224,8504,-2733,-861
7636.49,332,311,448,362,-10460,12468,-1224,8504,-2733,-861
7636.49,331,316,447,339,-10460,12468,-1224,8504,-2733,-861
7647.32,332,318,448,321,-10460,12468,-1224,8504,-2733,-861
7647.32,334,322,449,301,-10792,12880,-2080,3221,-1846,308
7658.351,336,325,448,281,-10792,12880,-2080,3221,-1846,308
7669.139,339,328,450,267,-10792,12880,-2080,3221,-1846,308
7669.941,340,329,451,253,-10792,12880,-2080,3221,-1846,308
7680.939,342,331,451,240,-10792,12880,-2080,3221,-1846,308
7680.939,342,332,452,228,-10792,12880,-2080,3221,-1846,308
7692.062,345,331,451,218,-10840,12664,-1976,1459,-2384,901
7692.062,349,332,451,206,-10840,12664,-1976,1459,-2384,901
7702.918000000001,344,327,448,198,-10840,12664,-1976,1459,-2384,901
7714.071,348,330,446,190,-10840,12664,-1976,1459,-2384,901
7718.38,352,331,444,182,-10840,12664,-1976,1459,-2384,901
7726.022000000001,353,328,442,176,-10840,12664,-1976,1459,-2384,901
7731.277,352,326,438,170,-10840,12664,-1976,1459,-2384,901
7738.193,351,322,435,164,-10524,12348,-1732,946,-1420,818
7742.419,349,320,432,159,-10524,12348,-1732,946,-1420,818
7746.384,347,319,430,158,-10524,12348,-1732,946,-1420,818
7752.922,344,317,428,154,-10524,12348,-1732,946,-1420,818
7758.178,338,314,424,151,-10524,12348,-1732,946,-1420,818
7768.519,334,313,422,152,-10524,12348,-1732,946,-1420,818
7769.8679999999995,331,312,419,150,-11080,15920,1380,-613,672,23
7780.161,328,313,416,149,-11080,15920,1380,-613,672,23
7780.88,325,313,414,150,-11080,15920,1380,-613,672,23
7792.474999999999,322,316,412,147,-11080,15920,1380,-613,672,23
7793.268,320,314,409,144,-11080,15920,1380,-613,672,23
7803.13,316,313,407,143,-11080,15920,1380,-613,672,23
7803.13,314,312,406,141,-11080,15920,1380,-613,672,23
7815.351,313,315,404,137,-10612,13612,-2584,-3927,-347,939
7824.76,310,316,401,135,-10612,13612,-2584,-3927,-347,939
7826.128,310,316,400,135,-10612,13612,-2584,-3927,-347,939
7836.121999999999,308,319,398,132,-10612,13612,-2584,-3927,-347,939
7838.188,308,320,395,130,-10612,13612,-2584,-3927,-347,939
7847.753,308,322,392,129,-10612,13612,-2584,-3927,-347,939
7850.652,309,325,393,129,-10048,12988,-2168,-2993,-674,1591
7858.990000000001,310,327,393,130,-10048,12988,-2168,-2993,-674,1591
7869.732,310,330,391,130,-10048,12988,-2168,-2993,-674,1591
7869.732,310,332,389,130,-10048,12988,-2168,-2993,-674,1591
7881.1179999999995,308,333,388,130,-10048,12988,-2168,-2993,-674,1591
7881.1179999999995,306,335,387,132,-10048,12988,-2168,-2993,-674,1591
7892.018,305,336,386,132,-10368,11736,-1564,-1447,-924,1357
7902.427000000001,303,337,383,132,-10368,11736,-1564,-1447,-924,1357
7904.076,303,337,380,133,-10368,11736,-1564,-1447,-924,1357
7914.364,300,339,377,135,-10368,11736,-1564,-1447,-924,1357
7915.375,296,338,373,137,-10368,11736,-1564,-1447,-924,1357
7925.65,294,340,371,142,-10368,11736,-1564,-1447,-924,1357
7928.376,293,339,367,144,-10144,13032,-1596,-360,-19,1306
7937.223,291,339,364,146,-10144,13032,-1596,-360,-19,1306
7940.637,290,336,361,148,-10144,13032,-1596,-360,-19,1306
7951.774,288,336,359,151,-10144,13032,-1596,-360,-19,1306
7958.197,288,336,356,153,-10144,13032,-1596,-360,-19,1306
7958.197,287,336,353,155,-10144,13032,-1596,-360,-19,1306
7970.204,288,336,353,159,-10144,13032,-1596,-360,-19,1306
7974.329,287,336,352,160,-9968,14124,-2108,594,-473,773
7980.576,286,335,351,164,-9968,14124,-2108,594,-473,773
7985.795999999999,288,334,350,167,-9968,14124,-2108,594,-473,773
7991.199,288,331,349,169,-9968,14124,-2108,594,-473,773
7994.04,287,331,348,171,-9968,14124,-2108,594,-473,773
8003.875000000001,286,329,348,175,-9968,14124,-2108,594,-473,773
8013.372,286,328,348,177,-9792,13868,-2012,366,-719,339
8015.39,287,326,347,178,-9792,13868,-2012,366,-719,339
8025.332,287,327,347,181,-9792,13868,-2012,366,-719,339
8025.332,287,327,346,185,-9792,13868,-2012,366,-719,339
8036.566000000001,289,328,346,186,-9792,13868,-2012,366,-719,339
8036.566000000001,289,328,346,188,-9792,13868,-2012,366,-719,339
8047.871000000001,290,329,345,191,-9792,13868,-2012,366,-719,339
8052.460999999999,291,329,345,194,-9656,14052,-1756,-174,-88,32
8058.724,289,329,344,195,-9656,14052,-1756,-174,-88,32
8063.6849999999995,290,329,344,198,-9656,14052,-1756,-174,-88,32
8069.825,291,329,345,202,-9656,14052,-1756,-174,-88,32
8079.025,291,328,345,204,-9656,14052,-1756,-174,-88,32
8080.626,290,329,345,208,-9656,14052,-1756,-174,-88,32
8090.8460000000005,290,329,345,211,-9656,14052,-1756,-174,-88,32
8091.753000000001,291,329,345,213,-9876,12772,-1872,-933,-27,-58
8102.902,290,330,345,217,-9876,12772,-1872,-933,-27,-58
8102.902,289,329,345,220,-9876,12772,-1872,-933,-27,-58
8115.4259999999995,291,330,345,224,-9876,12772,-1872,-933,-27,-58
8117.208,293,330,345,226,-9876,12772,-1872,-933,-27,-58
8125.645,294,328,345,229,-9876,12772,-1872,-933,-27,-58
8128.824,295,330,345,230,-9876,12772,-1872,-933,-27,-58
8136.063999999999,295,331,344,232,-10068,13616,-2064,-176,-239,-127
8142.068,295,329,343,235,-10068,13616,-2064,-176,-239,-127
8147.276,295,327,343,238,-10068,13616,-2064,-176,-239,-127
8156.966,295,328,341,240,-10068,13616,-2064,-176,-239,-127
8158.911,297,327,341,242,-10068,13616,-2064,-176,-239,-127
8168.948,298,327,341,244,-10068,13616,-2064,-176,-239,-127
8169.6089999999995,297,327,339,246,-10064,13164,-2080,343,-198,-198
8180.802999999999,297,325,338,249,-10064,13164,-2080,343,-198,-198
8188.883000000001,297,327,338,252,-10064,13164,-2080,343,-198,-198
8191.623,298,326,337,253,-10064,13164,-2080,343,-198,-198
8201.772,300,326,336,255,-10064,13164,-2080,343,-198,-198
8203.080999999998,299,326,335,258,-10064,13164,-2080,343,-198,-198
8213.871,299,326,334,259,-9936,13440,-1584,589,517,-268
8215.384,299,327,333,260,-9936,13440,-1584,589,517,-268
8225.371000000001,299,328,332,262,-9936,13440,-1584,589,517,-268
8225.371000000001,300,328,333,264,-9936,13440,-1584,589,517,-268
8237.075,300,327,331,265,-9936,13440,-1584,589,517,-268
8239.547,301,327,330,268,-9936,13440,-1584,589,517,-268
8246.822,301,326,328,270,-9936,13440,-1584,589,517,-268
8252.129,303,324,328,271,-9952,13064,-1676,-694,387,1
8258.202000000001,303,325,326,272,-9952,13064,-1676,-694,387,1
8265.483,303,325,325,274,-9952,13064,-1676,-694,387,1
8269.865,304,327,325,275,-9952,13064,-1676,-694,387,1
8280.315,304,325,323,275,-9952,13064,-1676,-694,387,1
8282.426,303,324,323,278,-9952,13064,-1676,-694,387,1
8291.813,303,323,322,278,-9952,13064,-1676,-694,387,1
8292.109,305,322,321,279,-10072,13496,-1744,-1155,244,-48
8303.74,305,321,320,280,-10072,13496,-1744,-1155,244,-48
8303.74,305,321,319,282,-10072,13496,-1744,-1155,244,-48
8315.664,304,319,318,282,-10072,13496,-1744,-1155,244,-48
8315.664,305,320,317,283,-10072,13496,-1744,-1155,244,-48
8325.723999999998,304,320,318,286,-10072,13496,-1744,-1155,244,-48
8330.59,306,320,317,287,-9524,13016,-2064,-805,70,42
8335.905999999999,305,319,316,287,-9524,13016,-2064,-805,70,42
8342.801,306,319,315,288,-9524,13016,-2064,-805,70,42
8347.715,305,319,315,290,-9524,13016,-2064,-805,70,42
8357.502999999999,306,317,314,291,-9524,13016,-2064,-805,70,42
8359.366,306,317,313,292,-9524,13016,-2064,-805,70,42
8369.279,306,316,313,293,-9524,13016,-2064,-805,70,42
8371.016,308,316,312,294,-10092,12964,-2140,-562,183,-126
8381.100999999999,311,317,311,295,-10092,12964,-2140,-562,183,-126
8381.100999999999,310,315,310,296,-10092,12964,-2140,-562,183,-126
8392.194,310,316,311,298,-10092,12964,-2140,-562,183,-126
8396.483999999999,312,314,311,298,-10092,12964,-2140,-562,183,-126
8404.531,313,315,310,300,-10092,12964,-2140,-562,183,-126
8404.531,312,313,309,300,-10092,12964,-2140,-562,183,-126
8415.708999999999,314,314,309,300,-9980,13352,-1804,-351,180,-142
8420.733,313,314,308,302,-9980,13352,-1804,-351,180,-142
8425.849,314,314,308,303,-9980,13352,-1804,-351,180,-142
8435.377,314,313,307,302,-9980,13352,-1804,-351,180,-142
8436.831,314,312,306,302,-9980,13352,-1804,-351,180,-142
8447.485999999999,313,310,305,304,-9980,13352,-1804,-351,180,-142
8456.506,314,311,304,304,-9768,13120,-1920,-202,191,115
8459.761999999999,315,312,304,304,-9768,13120,-1920,-202,191,115
8467.954000000002,315,309,304,306,-9768,13120,-1920,-202,191,115
8471.396,315,311,304,306,-9768,13120,-1920,-202,191,115
8480.305,315,311,303,306,-9768,13120,-1920,-202,191,115
8482.830999999998,314,311,303,307,-9768,13120,-1920,-202,191,115
8492.586,313,309,303,308,-9768,13120,-1920,-202,191,115
8492.586,314,310,302,307,-9956,12732,-1704,-728,256,55
8503.061000000002,314,309,302,308,-9956,12732,-1704,-728,256,55
8505.719,314,308,304,309,-9956,12732,-1704,-728,256,55
8513.505000000001,315,309,304,310,-9956,12732,-1704,-728,256,55
8515.82,314,308,304,310,-9956,12732,-1704,-728,256,55
8525.187,314,309,304,311,-9956,12732,-1704,-728,256,55
8533.284,314,309,304,311,-9956,12732,-1704,-728,256,55
8536.439,314,309,304,310,-9964,13776,-1768,364,133,-156
8545.72,314,308,304,311,-9964,13776,-1768,364,133,-156
8547.162999999999,312,308,304,312,-9964,13776,-1768,364,133,-156
8557.867,312,307,304,311,-9964,13776,-1768,364,133,-156
8559.246,312,307,304,312,-9964,13776,-1768,364,133,-156
8569.3,310,306,304,314,-9964,13776,-1768,364,133,-156
8571.602,311,306,304,314,-10024,13040,-1792,-448,276,-151
8580.564,311,306,305,314,-10024,13040,-1792,-448,276,-151
8583.531,311,305,305,315,-10024,13040,-1792,-448,276,-151
8592.468,311,306,304,315,-10024,13040,-1792,-448,276,-151
8595.996,311,306,304,315,-10024,13040,-1792,-448,276,-151
8602.964,311,307,305,316,-10024,13040,-1792,-448,276,-151
8608.876,311,307,304,317,-10024,13040,-1792,-448,276,-151
8616.026,310,306,304,315,-9948,13148,-1452,-864,738,-145
8624.025,309,306,305,317,-9948,13148,-1452,-864,738,-145
8625.845,310,305,305,318,-9948,13148,-1452,-864,738,-145
8635.738,310,306,306,318,-9948,13148,-1452,-864,738,-145
8636.561,310,306,305,319,-9948,13148,-1452,-864,738,-145
8647.643,308,307,306,319,-9948,13148,-1452,-864,738,-145
8655.738,307,306,306,319,-10072,13268,-1708,-1201,306,32
8658.647,308,307,306,319,-10072,13268,-1708,-1201,306,32
8668.575,308,307,306,320,-10072,13268,-1708,-1201,306,32
8669.397,308,306,306,321,-10072,13268,-1708,-1201,306,32
8680.533000000001,308,305,305,320,-10072,13268,-1708,-1201,306,32
8680.533000000001,307,306,306,321,-10072,13268,-1708,-1201,306,32
8691.796,307,306,306,322,-10072,13268,-1708,-1201,306,32
8691.796,308,307,305,320,-10012,13216,-2048,-1086,357,80
8703.192,307,305,305,321,-10012,13216,-2048,-1086,357,80
8703.192,307,305,305,322,-10012,13216,-2048,-1086,357,80
8716.044,309,305,305,321,-10012,13216,-2048,-1086,357,80
8719.555,308,304,305,321,-10012,13216,-2048,-1086,357,80
8724.712,308,305,304,322,-10012,13216,-2048,-1086,357,80
8732.149,308,304,303,321,-10172,13428,-1992,-279,230,-140
8736.525,309,304,303,320,-10172,13428,-1992,-279,230,-140
8747.211,309,304,304,321,-10172,13428,-1992,-279,230,-140
8748.104,308,304,304,321,-10172,13428,-1992,-279,230,-140
8758.641000000001,310,304,304,320,-10172,13428,-1992,-279,230,-140
8766.672,310,303,303,321,-10172,13428,-1992,-279,230,-140
8769.357,309,302,303,321,-10172,13428,-1992,-279,230,-140
8779.375,310,301,302,319,-10020,12912,-1712,-442,267,-109
8780.384,310,302,303,320,-10020,12912,-1712,-442,267,-109
8791.351999999999,310,300,302,320,-10020,12912,-1712,-442,267,-109
8792.075,310,301,302,319,-10020,12912,-1712,-442,267,-109
8803.404,310,300,303,319,-10020,12912,-1712,-442,267,-109
8811.768,311,300,303,320,-10020,12912,-1712,-442,267,-109
8816.089,311,300,301,318,-9944,13284,-1564,196,-93,-84
8823.982,312,299,301,318,-9944,13284,-1564,196,-93,-84
8825.440999999999,311,299,301,318,-9944,13284,-1564,196,-93,-84
8829.423,311,298,301,318,-9944,13284,-1564,196,-93,-84
8836.003,311,298,302,317,-9944,13284,-1564,196,-93,-84
8842.325,312,297,302,318,-9944,13284,-1564,196,-93,-84
8847.604000000001,312,295,301,317,-9944,13284,-1564,196,-93,-84
8858.407,313,295,301,317,-10040,13256,-1668,-113,242,-21
8859.940999999999,312,296,301,316,-10040,13256,-1668,-113,242,-21
8869.56,311,296,301,317,-10040,13256,-1668,-113,242,-21
8870.2,312,295,301,316,-10040,13256,-1668,-113,242,-21
8880.908,312,295,300,316,-10040,13256,-1668,-113,242,-21
8888.987000000001,311,293,301,317,-10040,13256,-1668,-113,242,-21
8892.159,312,293,301,316,-9988,13212,-1800,-79,-128,-40
8901.664999999999,314,294,301,316,-9988,13212,-1800,-79,-128,-40
8902.992,312,293,301,316,-9988,13212,-1800,-79,-128,-40
8913.968,312,294,301,316,-9988,13212,-1800,-79,-128,-40
8915.981,312,294,301,316,-9988,13212,-1800,-79,-128,-40
8925.086000000001,312,294,301,315,-9988,13212,-1800,-79,-128,-40
8925.086000000001,311,293,300,315,-9988,13212,-1800,-79,-128,-40
8936.628,312,292,300,315,-10008,13048,-1676,-83,-289,-89
8940.645,311,293,301,315,-10008,13048,-1676,-83,-289,-89
8948.850999999999,311,293,301,316,-10008,13048,-1676,-83,-289,-89
8948.850999999999,310,293,301,315,-10008,13048,-1676,-83,-289,-89
8958.816,310,293,301,315,-10008,13048,-1676,-83,-289,-89
8966.134,310,294,301,316,-10008,13048,-1676,-83,-289,-89
8970.206,311,293,300,316,-10008,13048,-1676,-83,-289,-89
8980.097000000002,312,294,301,315,-10424,12912,-1524,-146,308,-24
8983.612000000001,310,293,300,315,-10424,12912,-1524,-146,308,-24
8992.338,310,294,300,315,-10424,12912,-1524,-146,308,-24
8993.394,310,295,300,314,-10424,12912,-1524,-146,308,-24
9003.385,311,295,300,315,-10424,12912,-1524,-146,308,-24
9012.537,309,294,300,315,-10424,12912,-1524,-146,308,-24
9016.097,311,293,300,314,-10072,13284,-1748,-20,-148,33
9016.097,311,293,300,313,-10072,13284,-1748,-20,-148,33
9028.707,310,293,300,314,-10072,13284,-1748,-20,-148,33
9032.788999999999,310,292,299,313,-10072,13284,-1748,-20,-148,33
9041.478,310,292,299,312,-10072,13284,-1748,-20,-148,33
9046.2,309,292,299,313,-10072,13284,-1748,-20,-148,33
9050.408,310,293,299,313,-10072,13284,-1748,-20,-148,33
9058.132000000001,311,293,299,313,-10088,13280,-1840,-199,-139,-82
9059.082,310,291,300,313,-10088,13280,-1840,-199,-139,-82
9070.0,310,292,299,313,-10088,13280,-1840,-199,-139,-82
9079.21,309,293,299,313,-10088,13280,-1840,-199,-139,-82
9080.692000000001,309,293,299,313,-10088,13280,-1840,-199,-139,-82
9090.922,309,293,298,313,-10088,13280,-1840,-199,-139,-82
9092.758,308,293,299,313,-9972,13244,-1604,12,-139,-135
9102.701,309,292,299,313,-9972,13244,-1604,12,-139,-135
9103.338000000002,309,292,299,314,-9972,13244,-1604,12,-139,-135
9114.042,309,293,300,314,-9972,13244,-1604,12,-139,-135
9116.058,308,293,298,313,-9972,13244,-1604,12,-139,-135
9125.907,308,293,298,314,-9972,13244,-1604,12,-139,-135
9125.907,307,293,298,315,-9972,13244,-1604,12,-139,-135
9136.265,307,293,298,313,-9608,13648,-1484,42,-20,-110
9141.295,307,293,297,314,-9608,13648,-1484,42,-20,-110
9146.989,307,293,297,314,-9608,13648,-1484,42,-20,-110
9153.773,306,293,297,315,-9608,13648,-1484,42,-20,-110
9158.602,306,293,297,315,-9608,13648,-1484,42,-20,-110
9168.43,306,293,297,315,-9608,13648,-1484,42,-20,-110
9170.652,305,293,297,316,-9608,13648,-1484,42,-20,-110
9180.534,306,293,297,315,-10052,13056,-1552,-734,241,-41
9181.524,305,291,296,315,-10052,13056,-1552,-734,241,-41
9191.758,305,292,295,316,-10052,13056,-1552,-734,241,-41
9191.758,305,293,295,316,-10052,13056,-1552,-734,241,-41
9203.185,304,294,294,315,-10052,13056,-1552,-734,241,-41
9203.185,303,294,294,316,-10052,13056,-1552,-734,241,-41
9216.303999999998,302,294,293,315,-10056,13292,-1536,-444,-100,-39
9219.425,303,295,293,315,-10056,13292,-1536,-444,-100,-39
9224.816,302,295,293,316,-10056,13292,-1536,-444,-100,-39
9234.861,303,294,293,315,-10056,13292,-1536,-444,-100,-39
9236.222,303,293,292,315,-10056,13292,-1536,-444,-100,-39
9246.62,302,294,292,316,-10056,13292,-1536,-444,-100,-39
9247.296,301,295,292,315,-10056,13292,-1536,-444,-100,-39
9258.705000000002,301,295,292,315,-10088,13388,-1616,-288,2,-131
9264.487000000001,301,295,291,315,-10088,13388,-1616,-288,2,-131
9269.781,301,294,291,315,-10088,13388,-1616,-288,2,-131
9280.051,303,296,290,315,-10088,13388,-1616,-288,2,-131
9281.503,302,295,291,315,-10088,13388,-1616,-288,2,-131
9291.282000000001,302,296,291,315,-10088,13388,-1616,-288,2,-131
9291.956,302,295,291,314,-10020,13064,-1756,-99,-65,-116
9302.270999999999,302,294,289,313,-10020,13064,-1756,-99,-65,-116
9302.270999999999,303,295,290,315,-10020,13064,-1756,-99,-65,-116
9314.447,304,297,290,314,-10020,13064,-1756,-99,-65,-116
9316.461000000001,305,296,290,313,-10020,13064,-1756,-99,-65,-116
9325.056,305,297,290,314,-10020,13064,-1756,-99,-65,-116
9329.847,304,295,290,313,-10020,13064,-1756,-99,-65,-116
9335.832999999999,305,297,291,313,-10044,13076,-1372,-101,-60,-197
9342.355,305,298,291,313,-10044,13076,-1372,-101,-60,-197
9347.455,304,297,291,313,-10044,13076,-1372,-101,-60,-197
9358.280999999999,305,297,291,312,-10044,13076,-1372,-101,-60,-197
9360.131000000001,305,297,291,312,-10044,13076,-1372,-101,-60,-197
9370.804,305,296,292,314,-10044,13076,-1372,-101,-60,-197
9374.044,305,297,291,313,-10052,12964,-1256,-155,15,-137
9380.536,305,298,291,313,-10052,12964,-1256,-155,15,-137
9380.536,305,297,291,314,-10052,12964,-1256,-155,15,-137
9391.795,306,297,291,312,-10052,12964,-1256,-155,15,-137
9402.059,307,297,291,312,-10052,12964,-1256,-155,15,-137
9403.776,307,297,291,313,-10052,12964,-1256,-155,15,-137
9413.911,306,296,291,313,-10052,12964,-1256,-155,15,-137
9416.423999999999,307,296,291,312,-10052,13108,-1508,7,87,-131
9425.404999999999,308,295,290,311,-10052,13108,-1508,7,87,-131
9425.404999999999,308,295,289,312,-10052,13108,-1508,7,87,-131
9436.202,309,294,290,311,-10052,13108,-1508,7,87,-131
9440.354,310,294,290,311,-10052,13108,-1508,7,87,-131
9447.251,311,294,290,311,-10052,13108,-1508,7,87,-131
9447.581,311,294,289,311,-10052,13108,-1508,7,87,-131
9458.627999999999,312,295,289,310,-10096,12972,-1500,-406,107,-120
9466.720000000001,312,294,289,311,-10096,12972,-1500,-406,107,-120
9469.602,312,294,289,311,-10096,12972,-1500,-406,107,-120
9479.492,312,294,288,310,-10096,12972,-1500,-406,107,-120
9481.028999999999,313,295,289,310,-10096,12972,-1500,-406,107,-120
9491.868,313,295,289,310,-10096,12972,-1500,-406,107,-120
9496.82,315,294,288,309,-10052,13212,-1636,-82,-98,-130
9503.353000000001,315,295,288,309,-10052,13212,-1636,-82,-98,-130
9511.485999999999,315,294,287,310,-10052,13212,-1636,-82,-98,-130
9516.303,316,295,288,309,-10052,13212,-1636,-82,-98,-130
9524.515,316,294,287,308,-10052,13212,-1636,-82,-98,-130
9526.69,316,294,287,309,-10052,13212,-1636,-82,-98,-130
9536.186000000002,316,295,287,309,-10052,13212,-1636,-82,-98,-130
9538.052,316,295,287,308,-10108,13124,-1632,-77,-61,-132
9548.501,315,295,288,308,-10108,13124,-1632,-77,-61,-132
9548.501,314,294,288,309,-10108,13124,-1632,-77,-61,-132
9558.968,314,295,289,308,-10108,13124,-1632,-77,-61,-132
9558.968,314,295,289,308,-10108,13124,-1632,-77,-61,-132
9569.554999999998,314,295,290,309,-10108,13124,-1632,-77,-61,-132
9575.482,313,295,290,308,-10092,13088,-1448,-79,-7,-41
9580.383,312,295,291,309,-10092,13088,-1448,-79,-7,-41
9590.785,311,296,291,309,-10092,13088,-1448,-79,-7,-41
9592.802000000001,311,296,292,310,-10092,13088,-1448,-79,-7,-41
9602.512,310,295,292,308,-10092,13088,-1448,-79,-7,-41
9603.165,309,295,292,310,-10092,13088,-1448,-79,-7,-41
9614.162,308,295,293,310,-10092,13088,-1448,-79,-7,-41
9616.176,309,295,293,309,-10116,13108,-1428,-249,-11,-58
9625.496,308,295,294,310,-10116,13108,-1428,-249,-11,-58
9625.496,307,295,294,310,-10116,13108,-1428,-249,-11,-58
9636.381,307,297,295,310,-10116,13108,-1428,-249,-11,-58
9641.161,307,297,295,310,-10116,13108,-1428,-249,-11,-58
9647.544,307,296,296,310,-10116,13108,-1428,-249,-11,-58
9653.598,307,297,296,311,-10116,13108,-1428,-249,-11,-58
9658.502,308,297,296,310,-9932,13068,-1360,100,121,371
9668.656,307,296,296,311,-9932,13068,-1360,100,121,371
9670.265000000001,307,296,296,311,-9932,13068,-1360,100,121,371
9680.251999999999,307,296,296,310,-9932,13068,-1360,100,121,371
9680.963,307,297,297,310,-9932,13068,-1360,100,121,371
9692.735,307,296,297,311,-9932,13068,-1360,100,121,371
9692.735,307,296,297,310,-10024,12992,-1332,-191,199,130
9703.545,307,297,297,310,-10024,12992,-1332,-191,199,130
9706.457999999999,306,297,298,311,-10024,12992,-1332,-191,199,130
9716.155999999999,306,296,297,311,-10024,12992,-1332,-191,199,130
9718.111,306,296,298,310,-10024,12992,-1332,-191,199,130
9725.009999999998,306,295,298,311,-10024,12992,-1332,-191,199,130
9731.555,305,296,298,311,-10024,12992,-1332,-191,199,130
9736.454,305,297,298,310,-10008,13172,-1520,-154,121,89
9746.413999999999,305,297,298,311,-10008,13172,-1520,-154,121,89
9747.722,304,297,298,311,-10008,13172,-1520,-154,121,89
9758.078,304,297,298,310,-10008,13172,-1520,-154,121,89
9759.802,304,297,299,310,-10008,13172,-1520,-154,121,89
9769.81,304,298,299,311,-10008,13172,-1520,-154,121,89
9769.81,304,297,298,311,-10140,13176,-1544,-342,53,99
9781.303,304,297,298,310,-10140,13176,-1544,-342,53,99
9783.906,304,296,299,311,-10140,13176,-1544,-342,53,99
9791.989,303,296,299,311,-10140,13176,-1544,-342,53,99
9796.493999999999,304,297,299,311,-10140,13176,-1544,-342,53,99
9802.521999999999,303,298,299,312,-10140,13176,-1544,-342,53,99
9809.139,302,297,299,312,-10140,13176,-1544,-342,53,99
9819.476999999999,302,297,299,312,-10096,13032,-1516,-515,132,134
9823.766000000001,302,296,299,312,-10096,13032,-1516,-515,132,134
9832.114000000001,301,296,299,313,-10096,13032,-1516,-515,132,134
9836.173999999999,301,297,299,312,-10096,13032,-1516,-515,132,134
9839.800000000001,302,296,299,311,-10096,13032,-1516,-515,132,134
9847.666000000001,302,297,299,313,-10096,13032,-1516,-515,132,134
9855.753999999999,301,297,299,313,-10096,13032,-1516,-515,132,134
9859.309,302,298,298,311,-10044,13276,-1536,1,2,117
9861.5,302,298,298,312,-10044,13276,-1536,1,2,117
9869.529,302,298,298,312,-10044,13276,-1536,1,2,117
9874.537999999999,302,298,297,312,-10044,13276,-1536,1,2,117
9880.127,302,298,298,311,-10044,13276,-1536,1,2,117
9880.127,302,298,298,311,-10044,13276,-1536,1,2,117
9891.599,302,298,299,312,-10044,13276,-1536,1,2,117
9891.599,303,298,298,311,-10032,13300,-1612,110,-3,43
9903.332,303,298,298,311,-10032,13300,-1612,110,-3,43
9907.45,303,297,298,312,-10032,13300,-1612,110,-3,43
9916.278999999999,304,297,298,312,-10032,13300,-1612,110,-3,43
9916.278999999999,304,298,298,311,-10032,13300,-1612,110,-3,43
9925.501,304,297,298,312,-10032,13300,-1612,110,-3,43
9934.791000000001,303,298,297,311,-10032,13300,-1612,110,-3,43
9936.456,303,298,297,311,-10032,13180,-1392,-42,118,-72
9946.704,303,298,297,311,-10032,13180,-1392,-42,118,-72
9947.609,303,298,297,312,-10032,13180,-1392,-42,118,-72
9958.631000000001,304,298,297,311,-10032,13180,-1392,-42,118,-72
9958.631000000001,304,298,297,311,-10032,13180,-1392,-42,118,-72
9969.961,304,297,297,311,-10032,13180,-1392,-42,118,-72
9969.961,304,298,297,311,-10032,13180,-1392,-42,118,-72
9981.208999999999,306,299,297,311,-10012,13180,-1564,-101,-100,-10
9986.319,306,298,298,311,-10012,13180,-1564,-101,-100,-10
9991.935,306,297,298,312,-10012,13180,-1564,-101,-100,-10
10000.025000000001,307,297,297,310,-10012,13180,-1564,-101,-100,-10
10003.824,307,297,297,311,-10012,13180,-1564,-101,-100,-10
10009.49,306,298,297,312,-10012,13180,-1564,-101,-100,-10
10016.425,306,298,297,311,-10076,13264,-1504,-362,119,-62
10025.362,306,298,298,311,-10076,13264,-1504,-362,119,-62
10026.177,306,298,298,312,-10076,13264,-1504,-362,119,-62
10035.792000000001,306,298,298,312,-10076,13264,-1504,-362,119,-62
10035.792000000001,307,298,298,312,-10076,13264,-1504,-362,119,-62
10047.406,307,298,298,313,-10076,13264,-1504,-362,119,-62
10057.241,307,298,298,313,-10076,13264,-1504,-362,119,-62
10059.262,307,298,298,312,-9976,13044,-1432,54,93,-77
10069.307,306,297,299,313,-9976,13044,-1432,54,93,-77
10069.57,306,298,298,313,-9976,13044,-1432,54,93,-77
10075.729000000001,306,298,298,312,-9976,13044,-1432,54,93,-77
10080.812,307,298,299,313,-9976,13044,-1432,54,93,-77
10087.011999999999,306,297,299,313,-9976,13044,-1432,54,93,-77
10092.356,306,297,299,313,-9976,13044,-1432,54,93,-77
10102.596,307,298,299,313,-10040,13116,-1436,41,-1,-55
10103.529999999999,307,299,299,313,-10040,13116,-1436,41,-1,-55
10113.93,306,298,299,313,-10040,13116,-1436,41,-1,-55
10116.657,307,298,299,313,-10040,13116,-1436,41,-1,-55
10126.360999999999,306,298,298,313,-10040,13116,-1436,41,-1,-55
10128.132000000001,306,297,299,314,-10040,13116,-1436,41,-1,-55
10135.259,307,296,298,313,-10040,13116,-1436,41,-1,-55
10136.150000000001,307,297,298,312,-10040,13192,-1552,-33,145,-46
10147.349999999999,306,297,298,312,-10040,13192,-1552,-33,145,-46
10155.664,306,297,299,313,-10040,13192,-1552,-33,145,-46
10159.019,306,298,299,311,-10040,13192,-1552,-33,145,-46
10167.375,305,298,298,312,-10040,13192,-1552,-33,145,-46
10169.752,305,297,299,313,-10040,13192,-1552,-33,145,-46
10180.078,306,298,298,312,-10028,13024,-1616,-361,34,-81
10181.541,306,297,298,312,-10028,13024,-1616,-361,34,-81
10191.961,305,298,298,312,-10028,13024,-1616,-361,34,-81
10191.961,305,299,299,312,-10028,13024,-1616,-361,34,-81
10199.525,306,299,299,311,-10028,13024,-1616,-361,34,-81
10202.998,305,299,299,313,-10028,13024,-1616,-361,34,-81
10213.761,306,299,299,313,-10028,13024,-1616,-361,34,-81
10216.898000000001,306,299,298,312,-10056,13144,-1620,-85,-70,-71
10225.165,305,298,299,312,-10056,13144,-1620,-85,-70,-71
10225.165,304,298,299,312,-10056,13144,-1620,-85,-70,-71
10236.367,305,299,299,312,-10056,13144,-1620,-85,-70,-71
10238.545,306,299,299,312,-10056,13144,-1620,-85,-70,-71
10247.853,305,300,299,313,-10056,13144,-1620,-85,-70,-71
10257.503,306,300,299,312,-10056,13144,-1620,-85,-70,-71
10258.884,306,299,298,312,-9992,13028,-1432,135,43,-50
10269.021,304,299,299,313,-9992,13028,-1432,135,43,-50
10269.021,304,299,298,312,-9992,13028,-1432,135,43,-50
10275.462,304,300,298,312,-9992,13028,-1432,135,43,-50
10280.936,304,300,298,312,-9992,13028,-1432,135,43,-50
10290.877999999999,302,299,299,313,-9992,13028,-1432,135,43,-50
10292.866,303,300,299,312,-9992,13028,-1432,135,43,-50
10303.216,303,300,299,312,-10048,13076,-1424,-2,32,-16
10303.216,303,300,299,312,-10048,13076,-1424,-2,32,-16
10313.948,303,300,300,313,-10048,13076,-1424,-2,32,-16
10317.465,303,301,300,312,-10048,13076,-1424,-2,32,-16
10325.293,303,301,300,311,-10048,13076,-1424,-2,32,-16
10329.181999999999,302,300,300,312,-10048,13076,-1424,-2,32,-16
10336.207,302,300,299,311,-10048,13076,-1424,-2,32,-16
10336.506,302,299,300,311,-10032,13200,-1480,-81,-80,60
10347.619,301,299,300,312,-10032,13200,-1480,-81,-80,60
10355.66,300,299,301,312,-10032,13200,-1480,-81,-80,60
10358.309000000001,301,299,300,311,-10032,13200,-1480,-81,-80,60
10368.387999999999,301,299,300,311,-10032,13200,-1480,-81,-80,60
10369.806999999999,300,298,300,312,-10032,13200,-1480,-81,-80,60
10373.588,301,299,301,312,-9972,12956,-1400,-555,212,82
10380.464,301,299,301,312,-9972,12956,-1400,-555,212,82
10387.04,301,300,301,311,-9972,12956,-1400,-555,212,82
10392.137999999999,301,299,302,312,-9972,12956,-1400,-555,212,82
10401.986,301,300,301,312,-9972,12956,-1400,-555,212,82
10404.375999999998,300,300,301,312,-9972,12956,-1400,-555,212,82
10414.051000000001,299,300,301,312,-9972,12956,-1400,-555,212,82
10417.418,300,300,301,312,-9972,13396,-1440,-161,58,89
10425.104,300,300,301,311,-9972,13396,-1440,-161,58,89
10425.104,299,299,301,312,-9972,13396,-1440,-161,58,89
10436.232,300,299,302,312,-9972,13396,-1440,-161,58,89
10439.754,299,299,301,311,-9972,13396,-1440,-161,58,89
10447.300000000001,299,299,302,311,-9972,13396,-1440,-161,58,89
10452.982,300,300,301,311,-9972,13396,-1440,-161,58,89
10458.443000000001,300,299,301,311,-10148,13036,-1480,-278,134,21
10460.262,300,299,301,310,-10148,13036,-1480,-278,134,21
10469.363,300,298,302,311,-10148,13036,-1480,-278,134,21
10479.255000000001,300,298,302,311,-10148,13036,-1480,-278,134,21
10481.002,302,299,302,310,-10148,13036,-1480,-278,134,21
10491.019,300,299,303,311,-10148,13036,-1480,-278,134,21
10492.472,299,299,302,311,-10148,13036,-1480,-278,134,21
10503.379,300,299,302,310,-9984,13456,-1488,48,-58,-92
10503.379,300,299,302,311,-9984,13456,-1488,48,-58,-92
10512.801,301,299,302,311,-9984,13456,-1488,48,-58,-92
10519.248,302,299,302,310,-9984,13456,-1488,48,-58,-92
10524.165,301,299,301,310,-9984,13456,-1488,48,-58,-92
10525.888,300,299,301,310,-9984,13456,-1488,48,-58,-92
10536.225999999999,301,299,301,310,-9984,13456,-1488,48,-58,-92
10544.713,302,300,301,309,-9996,13176,-1424,-100,-4,-106
10547.496000000001,302,300,302,309,-9996,13176,-1424,-100,-4,-106
10547.496000000001,303,299,301,310,-9996,13176,-1424,-100,-4,-106
10559.133,304,299,301,309,-9996,13176,-1424,-100,-4,-106
10562.375,304,299,301,309,-9996,13176,-1424,-100,-4,-106
10570.762999999999,303,299,301,310,-9996,13176,-1424,-100,-4,-106
10570.762999999999,304,300,301,308,-10024,13228,-1464,111,64,-152
10581.039999999999,304,300,300,308,-10024,13228,-1464,111,64,-152
10589.094,304,300,300,309,-10024,13228,-1464,111,64,-152
10591.656,305,300,300,309,-10024,13228,-1464,111,64,-152
10602.155,306,300,299,308,-10024,13228,-1464,111,64,-152
10603.767,306,300,299,309,-10024,13228,-1464,111,64,-152
10614.243,305,300,299,308,-10024,13228,-1464,111,64,-152
10622.004,306,300,299,308,-9996,13328,-1456,51,88,-176
10625.807,306,299,299,307,-9996,13328,-1456,51,88,-176
10630.01,305,299,299,308,-9996,13328,-1456,51,88,-176
10638.635,306,299,299,307,-9996,13328,-1456,51,88,-176
10639.65,307,299,299,307,-9996,13328,-1456,51,88,-176
10647.548999999999,306,299,299,308,-9996,13328,-1456,51,88,-176
10652.442000000001,306,298,298,308,-9996,13328,-1456,51,88,-176
10658.272,307,297,298,307,-10060,13036,-1460,-68,92,-163
10658.272,307,294,298,308,-10060,13036,-1460,-68,92,-163
10670.172,307,289,298,307,-10060,13036,-1460,-68,92,-163
10679.548999999999,308,286,298,307,-10060,13036,-1460,-68,92,-163
10680.833,307,282,298,307,-10060,13036,-1460,-68,92,-163
10691.952000000001,308,280,298,307,-10060,13036,-1460,-68,92,-163
10691.952000000001,306,279,298,307,-10060,13036,-1460,-68,92,-163
10702.608,306,279,297,305,-10008,13216,-1424,-14,173,-185
10702.608,306,280,297,306,-10008,13216,-1424,-14,173,-185
10714.2,306,281,297,306,-10008,13216,-1424,-14,173,-185
10718.908000000001,306,283,296,305,-10008,13216,-1424,-14,173,-185
10725.661,306,284,296,306,-10008,13216,-1424,-14,173,-185
10730.187000000002,307,285,297,307,-10008,13216,-1424,-14,173,-185
10736.177,308,287,297,306,-10060,13196,-1608,-93,-39,-112
10745.628999999999,308,288,297,307,-10060,13196,-1608,-93,-39,-112
10747.642000000002,307,288,297,306,-10060,13196,-1608,-93,-39,-112
10757.877,307,287,296,306,-10060,13196,-1608,-93,-39,-112
10758.551000000001,309,289,295,305,-10060,13196,-1608,-93,-39,-112
10769.692,310,290,296,306,-10060,13196,-1608,-93,-39,-112
10777.77,310,292,297,306,-10060,13196,-1608,-93,-39,-112
10780.868,311,293,296,306,-10072,13124,-1584,-274,76,-81
10790.136,311,295,296,307,-10072,13124,-1584,-274,76,-81
10792.108,311,296,297,307,-10072,13124,-1584,-274,76,-81
10802.775,311,297,296,305,-10072,13124,-1584,-274,76,-81
10803.562,311,298,296,305,-10072,13124,-1584,-274,76,-81
10814.069,312,299,297,306,-10072,13124,-1584,-274,76,-81
10817.778,313,299,296,306,-9856,12636,-1468,-212,17,70
10823.858,313,300,296,305,-9856,12636,-1468,-212,17,70
10826.183,311,301,296,306,-9856,12636,-1468,-212,17,70
10835.316,312,301,295,306,-9856,12636,-1468,-212,17,70
10836.057999999999,312,302,296,305,-9856,12636,-1468,-212,17,70
10847.23,312,303,296,305,-9856,12636,-1468,-212,17,70
10847.23,311,304,297,306,-9856,12636,-1468,-212,17,70
10858.834,312,304,296,306,-10128,13080,-1384,-90,-48,18
10860.903,312,305,296,305,-10128,13080,-1384,-90,-48,18
10869.799,311,305,297,306,-10128,13080,-1384,-90,-48,18
10873.259,311,305,297,305,-10128,13080,-1384,-90,-48,18
10880.966,310,305,296,305,-10128,13080,-1384,-90,-48,18
10886.068,310,306,296,305,-10128,13080,-1384,-90,-48,18
10891.287999999999,310,305,297,306,-10128,13080,-1384,-90,-48,18
10897.898,310,305,297,305,-10092,13140,-1416,18,117,47
10903.408000000001,310,306,297,305,-10092,13140,-1416,18,117,47
10912.835,309,306,298,306,-10092,13140,-1416,18,117,47
10914.221,308,306,297,305,-10092,13140,-1416,18,117,47
10925.228000000001,309,307,297,305,-10092,13140,-1416,18,117,47
10925.228000000001,308,307,297,306,-10092,13140,-1416,18,117,47
10931.131000000001,308,307,298,306,-10092,13140,-1416,18,117,47
10936.379,308,307,298,305,-10040,13140,-1492,25,-11,-17
10946.221,308,307,299,306,-10040,13140,-1492,25,-11,-17
10947.931,307,307,299,306,-10040,13140,-1492,25,-11,-17
10958.366,307,307,299,306,-10040,13140,-1492,25,-11,-17
10958.366,306,306,299,305,-10040,13140,-1492,25,-11,-17
10969.272,305,306,300,306,-10040,13140,-1492,25,-11,-17
10969.272,305,307,299,306,-10040,13140,-1492,25,-11,-17
10980.719000000001,305,306,299,306,-10064,13156,-1376,-86,77,-27
10980.719000000001,305,307,299,307,-10064,13156,-1376,-86,77,-27
10991.894,304,307,299,307,-10064,13156,-1376,-86,77,-27
10997.683,304,306,300,307,-10064,13156,-1376,-86,77,-27
11002.478,304,307,300,306,-10064,13156,-1376,-86,77,-27
11008.573,303,306,301,307,-10064,13156,-1376,-86,77,-27
11013.902,302,306,301,307,-10064,13156,-1376,-86,77,-27
11023.913,303,306,301,307,-10160,13116,-1532,-123,-29,-8
11027.981,303,305,302,307,-10160,13116,-1532,-123,-29,-8
11036.360999999999,302,305,302,308,-10160,13116,-1532,-123,-29,-8
11036.360999999999,303,305,302,308,-10160,13116,-1532,-123,-29,-8
11046.141,302,304,302,307,-10160,13116,-1532,-123,-29,-8
11046.141,302,304,301,308,-10160,13116,-1532,-123,-29,-8
11060.406,302,304,302,308,-10160,13116,-1532,-123,-29,-8
11061.664999999999,302,304,302,308,-10052,12964,-1392,-243,76,0
11069.65,301,304,303,309,-10052,12964,-1392,-243,76,0
11073.875,301,303,302,308,-10052,12964,-1392,-243,76,0
11080.463,302,303,302,307,-10052,12964,-1392,-243,76,0
11082.385,302,304,303,309,-10052,12964,-1392,-243,76,0
11091.974,301,304,303,310,-10052,12964,-1392,-243,76,0
11091.974,302,304,303,309,-10112,13208,-1480,60,18,47
11103.019,303,303,303,309,-10112,13208,-1480,60,18,47
11103.019,302,303,303,309,-10112,13208,-1480,60,18,47
11113.92,301,303,303,309,-10112,13208,-1480,60,18,47
11119.765,302,303,303,308,-10112,13208,-1480,60,18,47
11124.708999999999,302,302,303,308,-10112,13208,-1480,60,18,47
11127.402,301,302,303,309,-10112,13208,-1480,60,18,47
11136.869,301,302,303,309,-10112,13208,-1480,60,18,47
11146.21,302,302,303,308,-10024,13276,-1508,-177,189,125
11147.777,301,302,303,308,-10024,13276,-1508,-177,189,125
11157.887999999999,303,302,303,308,-10024,13276,-1508,-177,189,125
11157.887999999999,303,301,304,307,-10024,13276,-1508,-177,189,125
11170.146,303,301,303,308,-10024,13276,-1508,-177,189,125
11170.146,301,301,303,309,-10024,13276,-1508,-177,189,125
11182.595,302,301,303,308,-10068,13024,-1260,44,176,97
11187.167000000001,301,301,303,309,-10068,13024,-1260,44,176,97
11191.919,300,301,304,309,-10068,13024,-1260,44,176,97
11199.358,301,300,303,308,-10068,13024,-1260,44,176,97
11204.048,302,301,304,308,-10068,13024,-1260,44,176,97
11204.048,301,300,304,309,-10068,13024,-1260,44,176,97
11214.162999999999,301,301,303,310,-10068,13024,-1260,44,176,97
11224.36,301,302,304,309,-9956,13244,-1560,-150,-10,58
11226.243,301,302,304,309,-9956,13244,-1560,-150,-10,58
11229.65,301,301,304,310,-9956,13244,-1560,-150,-10,58
11236.089,301,301,303,308,-9956,13244,-1560,-150,-10,58
11242.896,302,301,303,308,-9956,13244,-1560,-150,-10,58
11247.501,302,301,303,310,-9956,13244,-1560,-150,-10,58
11258.247000000001,301,301,303,309,-9956,13244,-1560,-150,-10,58
11259.788,300,301,303,309,-10092,13076,-1488,-259,46,27
11269.579,301,301,303,309,-10092,13076,-1488,-259,46,27
11269.579,302,301,303,309,-10092,13076,-1488,-259,46,27
11280.616,303,301,302,308,-10092,13076,-1488,-259,46,27
11280.616,302,301,302,308,-10092,13076,-1488,-259,46,27
11291.765,302,301,301,308,-10092,13076,-1488,-259,46,27
11295.768,302,301,302,308,-10092,13076,-1488,-259,46,27
11303.271999999999,302,302,301,307,-9992,13204,-1476,3,20,-55
11307.216,302,301,301,308,-9992,13204,-1476,3,20,-55
11313.74,303,301,301,308,-9992,13204,-1476,3,20,-55
11318.747,303,302,301,307,-9992,13204,-1476,3,20,-55
11325.015000000001,303,301,301,306,-9992,13204,-1476,3,20,-55
11325.015000000001,303,301,301,307,-9992,13204,-1476,3,20,-55
11336.449999999999,304,301,301,307,-9992,13204,-1476,3,20,-55
11342.184,304,302,300,306,-10004,13280,-1588,126,-31,-105
11347.096000000001,303,301,300,307,-10004,13280,-1588,126,-31,-105
11352.587,303,301,300,307,-10004,13280,-1588,126,-31,-105
11358.016,303,301,300,306,-10004,13280,-1588,126,-31,-105
11367.911,304,301,300,306,-10004,13280,-1588,126,-31,-105
11369.919,303,300,300,307,-10004,13280,-1588,126,-31,-105
11380.036,304,300,300,306,-10004,13280,-1588,126,-31,-105
11380.713,304,301,300,306,-10080,13076,-1464,-88,67,-166
11391.78,304,301,300,308,-10080,13076,-1464,-88,67,-166
11391.78,305,301,300,307,-10080,13076,-1464,-88,67,-166
11403.061,305,302,300,307,-10080,13076,-1464,-88,67,-166
11406.64,305,302,300,307,-10080,13076,-1464,-88,67,-166
11415.497,305,302,300,307,-10080,13076,-1464,-88,67,-166
11419.015,305,302,299,306,-10000,13188,-1516,1,-8,-142
11425.027,305,301,300,307,-10000,13188,-1516,1,-8,-142
11431.201,305,301,300,307,-10000,13188,-1516,1,-8,-142
11435.955,305,301,300,306,-10000,13188,-1516,1,-8,-142
11445.995,305,301,300,306,-10000,13188,-1516,1,-8,-142
11448.002,305,301,300,307,-10000,13188,-1516,1,-8,-142
11457.691,306,302,300,307,-10000,13188,-1516,1,-8,-142
11459.4,307,302,300,306,-10104,12908,-1536,-261,121,-89
11469.03,306,301,300,307,-10104,12908,-1536,-261,121,-89
11471.259999999998,305,301,300,307,-10104,12908,-1536,-261,121,-89
11480.962,306,302,300,306,-10104,12908,-1536,-261,121,-89
11483.51,306,301,300,306,-10104,12908,-1536,-261,121,-89
11492.243,305,301,300,308,-10104,12908,-1536,-261,121,-89
11495.731,306,302,300,307,-10104,12908,-1536,-261,121,-89
11503.3,307,302,299,307,-10176,13304,-1700,110,7,-168
11509.288,307,302,300,307,-10176,13304,-1700,110,7,-168
11519.604,307,302,300,307,-10176,13304,-1700,110,7,-168
11523.840999999999,307,302,300,306,-10176,13304,-1700,110,7,-168
11525.734999999999,307,302,299,307,-10176,13304,-1700,110,7,-168
11536.033,305,302,300,307,-10176,13304,-1700,110,7,-168
11539.929,307,301,299,307,-10052,13328,-1708,164,-20,-155
11547.926,308,301,299,306,-10052,13328,-1708,164,-20,-155
11547.926,307,301,299,308,-10052,13328,-1708,164,-20,-155
11558.842999999999,307,301,298,306,-10052,13328,-1708,164,-20,-155
11558.842999999999,308,302,298,306,-10052,13328,-1708,164,-20,-155
11569.729000000001,308,301,299,307,-10052,13328,-1708,164,-20,-155
11574.535,308,302,299,307,-10052,13328,-1708,164,-20,-155
11580.373,308,302,299,306,-10028,12980,-1496,174,-14,-128
11586.565999999999,307,301,298,307,-10028,12980,-1496,174,-14,-128
11592.003999999999,306,301,299,307,-10028,12980,-1496,174,-14,-128
11602.458999999999,307,302,299,307,-10028,12980,-1496,174,-14,-128
11604.052,308,301,298,307,-10028,12980,-1496,174,-14,-128
11613.536,307,301,299,308,-10028,12980,-1496,174,-14,-128
11620.635999999999,308,302,299,307,-10068,13172,-1524,-123,42,-26
11625.677,308,300,299,306,-10068,13172,-1524,-123,42,-26
11627.319,307,301,299,307,-10068,13172,-1524,-123,42,-26
11636.273,308,301,299,306,-10068,13172,-1524,-123,42,-26
11646.201,307,301,299,306,-10068,13172,-1524,-123,42,-26
11647.817,306,301,299,307,-10068,13172,-1524,-123,42,-26
11657.899000000001,306,301,299,307,-10068,13172,-1524,-123,42,-26
11657.899000000001,306,302,299,307,-10112,12936,-1476,-401,126,65
11669.306,306,301,299,307,-10112,12936,-1476,-401,126,65
11669.306,306,301,299,307,-10112,12936,-1476,-401,126,65
11679.561,306,302,299,306,-10112,12936,-1476,-401,126,65
11681.252,306,302,299,306,-10112,12936,-1476,-401,126,65
11691.209,306,301,299,307,-10112,12936,-1476,-401,126,65
11691.978000000001,306,301,299,306,-10112,12936,-1476,-401,126,65
11702.979,306,302,300,306,-10172,13060,-1692,-221,-38,23
11711.074,307,301,300,307,-10172,13060,-1692,-221,-38,23
11714.417,306,301,300,307,-10172,13060,-1692,-221,-38,23
11724.197,307,301,300,306,-10172,13060,-1692,-221,-38,23
11725.447,306,301,300,307,-10172,13060,-1692,-221,-38,23
11736.395,306,302,300,308,-10172,13060,-1692,-221,-38,23
11737.576000000001,306,301,299,306,-9996,13192,-1452,-57,99,53
11748.198,305,301,299,306,-9996,13192,-1452,-57,99,53
11748.198,306,301,300,307,-9996,13192,-1452,-57,99,53
11757.066,305,300,301,307,-9996,13192,-1452,-57,99,53
11758.856,306,301,300,306,-9996,13192,-1452,-57,99,53
11768.991,306,301,300,306,-9996,13192,-1452,-57,99,53
11768.991,305,301,300,307,-9996,13192,-1452,-57,99,53
11780.355,305,300,300,306,-9996,13192,-1452,-57,99,53
11780.355,306,300,300,306,-10104,13024,-1508,-90,38,87
11792.33,305,301,301,307,-10104,13024,-1508,-90,38,87
11792.33,306,301,300,306,-10104,13024,-1508,-90,38,87
11802.144999999999,306,301,300,306,-10104,13024,-1508,-90,38,87
11803.569,307,301,300,307,-10104,13024,-1508,-90,38,87
11813.872,306,301,300,308,-10104,13024,-1508,-90,38,87
11820.736,306,301,300,307,-10104,13024,-1508,-90,38,87
11825.207,306,301,300,306,-10012,13276,-1548,-59,-7,46
11825.207,306,301,300,307,-10012,13276,-1548,-59,-7,46
11836.644,306,300,300,306,-10012,13276,-1548,-59,-7,46
11840.634,306,300,301,307,-10012,13276,-1548,-59,-7,46
11847.478000000001,307,301,301,307,-10012,13276,-1548,-59,-7,46
11852.275000000001,307,300,301,308,-10012,13276,-1548,-59,-7,46
11858.22,307,301,301,307,-10012,13276,-1548,-59,-7,46
11858.22,307,301,302,307,-10072,13396,-1524,-42,108,-56
11870.315,306,301,301,307,-10072,13396,-1524,-42,108,-56
11879.592,306,300,301,307,-10072,13396,-1524,-42,108,-56
11880.912,306,300,301,306,-10072,13396,-1524,-42,108,-56
11891.726999999999,306,300,301,307,-10072,13396,-1524,-42,108,-56
11891.726999999999,305,300,302,308,-10072,13396,-1524,-42,108,-56
11903.33,306,300,301,306,-10024,12900,-1420,-329,256,-39
11905.485,305,300,302,308,-10024,12900,-1420,-329,256,-39
11914.434,304,300,302,308,-10024,12900,-1420,-329,256,-39
11920.977,305,301,302,306,-10024,12900,-1420,-329,256,-39
11925.212,305,301,302,307,-10024,12900,-1420,-329,256,-39
11931.014,306,301,303,308,-10024,12900,-1420,-329,256,-39
11936.310000000001,305,300,302,307,-10024,12900,-1420,-329,256,-39
11946.068000000001,306,301,301,307,-10092,13292,-1672,26,-104,-31
11948.121000000001,304,301,302,308,-10092,13292,-1672,26,-104,-31
11957.813,305,301,301,307,-10092,13292,-1672,26,-104,-31
11958.509,306,301,301,307,-10092,13292,-1672,26,-104,-31
11969.761999999999,306,301,301,308,-10092,13292,-1672,26,-104,-31
11977.800000000001,305,300,302,307,-10092,13292,-1672,26,-104,-31
11980.883,306,301,301,306,-10048,13036,-1548,-307,59,-54
11990.189,305,301,302,306,-10048,13036,-1548,-307,59,-54
11991.99,305,301,302,307,-10048,13036,-1548,-307,59,-54
11996.696,305,301,301,307,-10048,13036,-1548,-307,59,-54
12003.709,305,301,301,307,-10048,13036,-1548,-307,59,-54
12008.434,306,301,301,307,-10048,13036,-1548,-307,59,-54
12013.621000000001,306,301,302,307,-10048,13036,-1548,-307,59,-54
12024.243999999999,305,301,301,305,-10192,13348,-1600,159,247,-180
12025.973,304,300,300,306,-10192,13348,-1600,159,247,-180
12035.426,304,300,300,306,-10192,13348,-1600,159,247,-180
12036.117,304,301,300,305,-10192,13348,-1600,159,247,-180
12047.416,304,301,300,306,-10192,13348,-1600,159,247,-180
12056.382,304,300,300,306,-10192,13348,-1600,159,247,-180
12060.083,305,301,300,305,-10192,13348,-1600,159,247,-180
12068.177,305,300,300,305,-10128,13096,-1636,7,-32,-70
12069.719,304,301,300,306,-10128,13096,-1636,7,-32,-70
12080.65,304,301,300,306,-10128,13096,-1636,7,-32,-70
12080.65,304,301,300,305,-10128,13096,-1636,7,-32,-70
12088.862000000001,304,301,300,306,-10128,13096,-1636,7,-32,-70
12093.502,304,300,300,306,-10128,13096,-1636,7,-32,-70
12101.191,305,300,300,305,-10128,13096,-1636,7,-32,-70
12103.056,305,300,300,304,-10076,13092,-1476,-185,20,-21
12113.367,304,300,300,306,-10076,13092,-1476,-185,20,-21
12120.796,304,300,300,306,-10076,13092,-1476,-185,20,-21
12125.427,304,301,301,306,-10076,13092,-1476,-185,20,-21
12126.631,304,300,300,307,-10076,13092,-1476,-185,20,-21
12136.516,304,300,300,306,-10076,13092,-1476,-185,20,-21
12136.516,303,300,300,306,-10124,13208,-1512,-161,144,24
12147.824999999999,303,300,300,307,-10124,13208,-1512,-161,144,24
12152.237,303,301,301,307,-10124,13208,-1512,-161,144,24
12157.832,304,301,301,307,-10124,13208,-1512,-161,144,24
12164.617,304,301,301,306,-10124,13208,-1512,-161,144,24
12169.738000000001,302,301,302,307,-10124,13208,-1512,-161,144,24
12180.025000000001,304,300,301,307,-10124,13208,-1512,-161,144,24
12181.672,305,301,301,306,-10072,13180,-1484,163,75,-21
12191.243999999999,304,300,301,307,-10072,13180,-1484,163,75,-21
12191.951,303,300,301,307,-10072,13180,-1484,163,75,-21
12203.076,304,300,301,306,-10072,13180,-1484,163,75,-21
12203.076,303,301,301,307,-10072,13180,-1484,163,75,-21
12214.050000000001,303,300,301,307,-10072,13180,-1484,163,75,-21
12217.473,303,300,301,306,-10072,13180,-1484,163,75,-21
12225.239,303,300,301,306,-10032,13052,-1424,-35,214,30
12229.637,303,300,302,307,-10032,13052,-1424,-35,214,30
12236.15,303,300,302,307,-10032,13052,-1424,-35,214,30
12241.543,303,300,302,307,-10032,13052,-1424,-35,214,30
12247.12,303,300,303,307,-10032,13052,-1424,-35,214,30
12255.043000000001,303,300,302,307,-10032,13052,-1424,-35,214,30
12258.976,303,300,302,306,-10032,13052,-1424,-35,214,30
12269.147,303,300,302,307,-10076,13260,-1488,-375,403,5
12270.904,303,300,302,308,-10076,13260,-1488,-375,403,5
12280.958999999999,303,300,302,307,-10076,13260,-1488,-375,403,5
12280.958999999999,303,301,302,306,-10076,13260,-1488,-375,403,5
12292.478,302,301,302,307,-10076,13260,-1488,-375,403,5
12292.478,302,301,302,307,-10076,13260,-1488,-375,403,5
12303.134,302,301,303,307,-10008,13240,-1424,-623,729,-34
12306.508,302,300,303,307,-10008,13240,-1424,-623,729,-34
12313.839,302,300,303,305,-10008,13240,-1424,-623,729,-34
12321.446999999998,302,299,303,306,-10008,13240,-1424,-623,729,-34
12325.223,301,299,303,306,-10008,13240,-1424,-623,729,-34
12334.877,301,299,304,308,-10008,13240,-1424,-623,729,-34
12336.696,301,299,303,307,-10008,13240,-1424,-623,729,-34
12346.72,301,298,304,307,-10096,13172,-1404,-907,1422,-343
12346.72,301,297,305,308,-10096,13172,-1404,-907,1422,-343
12358.708,302,297,305,307,-10096,13172,-1404,-907,1422,-343
12366.783,301,296,304,306,-10096,13172,-1404,-907,1422,-343
12370.322,300,296,304,308,-10096,13172,-1404,-907,1422,-343
12379.58,300,296,304,307,-10096,13172,-1404,-907,1422,-343
12380.784,300,295,304,307,-9904,13348,-968,-1060,2132,-474
12391.932,299,292,305,308,-9904,13348,-968,-1060,2132,-474
12392.242,297,286,304,308,-9904,13348,-968,-1060,2132,-474
12402.808,296,281,305,308,-9904,13348,-968,-1060,2132,-474
12402.808,293,273,305,310,-9904,13348,-968,-1060,2132,-474
12414.614,290,266,305,310,-9904,13348,-968,-1060,2132,-474
12424.056,288,261,304,311,-9904,13348,-968,-1060,2132,-474
12425.676,286,255,304,311,-9804,13352,-1804,-1852,1812,-304
12435.715,284,250,304,314,-9804,13352,-1804,-1852,1812,-304
12437.841,284,246,303,314,-9804,13352,-1804,-1852,1812,-304
12447.983,283,242,302,312,-9804,13352,-1804,-1852,1812,-304
12447.983,283,239,302,315,-9804,13352,-1804,-1852,1812,-304
12458.747000000001,284,239,301,317,-9804,13352,-1804,-1852,1812,-304
12469.17,283,240,300,319,-10148,13920,-1840,-3867,2931,-845
12470.677,284,241,300,321,-10148,13920,-1840,-3867,2931,-845
12480.349,284,244,300,322,-10148,13920,-1840,-3867,2931,-845
12482.928,282,247,300,322,-10148,13920,-1840,-3867,2931,-845
12493.745,279,252,300,323,-10148,13920,-1840,-3867,2931,-845
12502.098,276,255,300,323,-10148,13920,-1840,-3867,2931,-845
12504.187,273,258,301,323,-9780,14844,-1532,-5955,4133,-1278
12514.087,269,260,302,325,-9780,14844,-1532,-5955,4133,-1278
12514.087,265,261,302,325,-9780,14844,-1532,-5955,4133,-1278
12525.038,260,261,303,325,-9780,14844,-1532,-5955,4133,-1278
12528.721000000001,252,260,305,327,-9780,14844,-1532,-5955,4133,-1278
12537.554999999998,244,259,307,328,-9780,14844,-1532,-5955,4133,-1278
12547.589,235,255,307,328,-9784,13836,-1188,-12358,3233,-1137
12552.351,226,249,308,330,-9784,13836,-1188,-12358,3233,-1137
12559.292,221,242,309,332,-9784,13836,-1188,-12358,3233,-1137
12567.901000000002,216,234,308,333,-9784,13836,-1188,-12358,3233,-1137
12571.608,210,227,308,337,-9784,13836,-1188,-12358,3233,-1137
12580.351,203,219,307,342,-9784,13836,-1188,-12358,3233,-1137
12581.789,198,211,307,348,-10868,13388,-332,-24826,5211,-197
12591.992,190,199,307,357,-10868,13388,-332,-24826,5211,-197
12591.992,184,193,306,366,-10868,13388,-332,-24826,5211,-197
12602.741,180,190,307,375,-10868,13388,-332,-24826,5211,-197
12613.018,176,188,308,383,-10868,13388,-332,-24826,5211,-197
12614.198999999999,171,187,309,393,-10868,13388,-332,-24826,5211,-197
12625.161,166,188,310,401,-10164,12172,1028,-32768,6776,211
12625.161,158,191,310,411,-10164,12172,1028,-32768,6776,211
12636.150000000001,152,194,309,416,-10164,12172,1028,-32768,6776,211
12638.586,144,202,306,420,-10164,12172,1028,-32768,6776,211
12647.93,135,210,302,425,-10164,12172,1028,-32768,6776,211
12657.965,127,218,299,431,-10164,12172,1028,-32768,6776,211
12658.647,115,225,295,435,-10164,12172,1028,-32768,6776,211
12669.458,105,232,293,440,-11172,9180,1000,-32768,4235,1931
12669.458,95,240,293,444,-11172,9180,1000,-32768,4235,1931
12680.903,87,247,294,446,-11172,9180,1000,-32768,4235,1931
12684.068,80,251,296,448,-11172,9180,1000,-32768,4235,1931
12692.949,73,256,299,449,-11172,9180,1000,-32768,4235,1931
12702.707,68,261,302,448,-11172,9180,1000,-32768,4235,1931
12706.405999999999,65,268,304,445,-11276,6620,4768,-32768,4314,3073
12714.088,61,274,304,442,-11276,6620,4768,-32768,4314,3073
12714.088,58,280,301,440,-11276,6620,4768,-32768,4314,3073
12725.908000000001,58,286,297,435,-11276,6620,4768,-32768,4314,3073
12729.343,60,293,295,432,-11276,6620,4768,-32768,4314,3073
12736.625,65,298,294,427,-11276,6620,4768,-32768,4314,3073
12741.053000000002,74,303,292,421,-10684,4108,7016,-32768,951,5716
12746.952000000001,83,309,290,415,-10684,4108,7016,-32768,951,5716
12756.09,92,314,288,411,-10684,4108,7016,-32768,951,5716
12763.851,104,321,284,403,-10684,4108,7016,-32768,951,5716
12769.035,116,326,281,398,-10684,4108,7016,-32768,951,5716
12776.43,128,328,277,392,-10684,4108,7016,-32768,951,5716
12781.048,143,329,273,386,-10684,4108,7016,-32768,951,5716
12781.561,160,330,270,378,-9364,2108,12420,-32768,-3127,8242
12792.38,177,329,271,371,-9364,2108,12420,-32768,-3127,8242
12801.501,194,328,273,365,-9364,2108,12420,-32768,-3127,8242
12802.804999999998,210,326,275,359,-9364,2108,12420,-32768,-3127,8242
12814.078,232,324,280,351,-9364,2108,12420,-32768,-3127,8242
12821.743,253,322,286,344,-9364,2108,12420,-32768,-3127,8242
12825.344,283,318,296,337,-7956,3836,12524,-18120,-6136,8720
12833.421,316,313,308,331,-7956,3836,12524,-18120,-6136,8720
12836.726,347,311,319,327,-7956,3836,12524,-18120,-6136,8720
12846.259,378,308,328,323,-7956,3836,12524,-18120,-6136,8720
12847.759999999998,411,303,334,318,-7956,3836,12524,-18120,-6136,8720
12859.130000000001,439,299,339,313,-7956,3836,12524,-18120,-6136,8720
12859.130000000001,471,294,343,307,-7892,4412,12668,-7923,-5784,7549
12870.093,494,295,346,303,-7892,4412,12668,-7923,-5784,7549
12879.637,515,299,346,298,-7892,4412,12668,-7923,-5784,7549
12880.966,536,304,345,291,-7892,4412,12668,-7923,-5784,7549
12891.17,552,307,345,288,-7892,4412,12668,-7923,-5784,7549
12899.953,566,307,345,283,-7892,4412,12668,-7923,-5784,7549
12903.001,581,306,344,280,-6880,5076,14080,-3559,-3856,7296
12912.069000000001,593,305,341,276,-6880,5076,14080,-3559,-3856,7296
12914.282,603,304,340,274,-6880,5076,14080,-3559,-3856,7296
12924.446,609,302,337,269,-6880,5076,14080,-3559,-3856,7296
12925.228000000001,615,300,337,267,-6880,5076,14080,-3559,-3856,7296
12936.467,620,297,338,264,-6880,5076,14080,-3559,-3856,7296
12944.561,622,293,337,259,-6880,5076,14080,-3559,-3856,7296
12948.16,622,288,339,256,-6612,5852,12012,-4843,-5774,6715
12957.117999999999,621,280,338,252,-6612,5852,12012,-4843,-5774,6715
12958.937,616,275,340,248,-6612,5852,12012,-4843,-5774,6715
12969.66,609,268,339,244,-6612,5852,12012,-4843,-5774,6715
12969.707,600,262,340,242,-6612,5852,12012,-4843,-5774,6715
12980.719000000001,591,256,340,239,-6612,5852,12012,-4843,-5774,6715
12980.719000000001,577,249,342,234,-5640,4676,13796,-10273,-7823,7205
12992.304,563,240,343,233,-5640,4676,13796,-10273,-7823,7205
13002.125,548,232,343,228,-5640,4676,13796,-10273,-7823,7205
13002.95,533,225,345,225,-5640,4676,13796,-10273,-7823,7205
13013.866,515,220,346,222,-5640,4676,13796,-10273,-7823,7205
13015.651,499,212,347,220,-5640,4676,13796,-10273,-7823,7205
13024.829,483,202,348,217,-4720,6112,14616,-10379,-9671,6021
13034.892,468,193,343,215,-4720,6112,14616,-10379,-9671,6021
13036.598,456,189,339,213,-4720,6112,14616,-10379,-9671,6021
13047.045,445,187,332,210,-4720,6112,14616,-10379,-9671,6021
13047.7,432,185,325,207,-4720,6112,14616,-10379,-9671,6021
13059.479,420,186,316,204,-4720,6112,14616,-10379,-9671,6021
13059.479,408,188,309,202,-4444,3536,14068,-11436,-10232,5126
13069.762,393,191,301,201,-4444,3536,14068,-11436,-10232,5126
13080.05,379,194,293,199,-4444,3536,14068,-11436,-10232,5126
13087.77,362,200,280,196,-4444,3536,14068,-11436,-10232,5126
13092.307999999999,347,206,271,195,-4444,3536,14068,-11436,-10232,5126
13099.438,329,213,256,195,-4444,3536,14068,-11436,-10232,5126
13104.798999999999,314,217,238,192,-3048,3296,14320,-8347,-10669,4377
13113.089,295,226,230,195,-3048,3296,14320,-8347,-10669,4377
13114.805,284,239,229,196,-3048,3296,14320,-8347,-10669,4377
13124.961000000001,271,256,223,196,-3048,3296,14320,-8347,-10669,4377
13125.811,261,266,209,198,-3048,3296,14320,-8347,-10669,4377
13136.929,250,279,196,199,-3048,3296,14320,-8347,-10669,4377
13145.741,242,292,191,200,-3048,3296,14320,-8347,-10669,4377
13147.312,235,304,191,204,-2032,2968,18812,-4764,-10290,2967
13157.816,229,319,194,203,-2032,2968,18812,-4764,-10290,2967
13158.514000000001,230,332,205,203,-2032,2968,18812,-4764,-10290,2967
13169.721,233,345,215,204,-2032,2968,18812,-4764,-10290,2967
13177.796,241,358,231,202,-2032,2968,18812,-4764,-10290,2967
13181.142,247,370,245,201,-2032,2968,18812,-4764,-10290,2967
13190.645999999999,256,381,261,199,-1512,3264,20752,-1360,-7608,2151
13192.095,265,393,278,198,-1512,3264,20752,-1360,-7608,2151
13202.561,273,401,293,194,-1512,3264,20752,-1360,-7608,2151
13203.276,281,412,308,193,-1512,3264,20752,-1360,-7608,2151
13214.226999999999,286,425,322,194,-1512,3264,20752,-1360,-7608,2151
13223.725999999999,292,439,338,191,-1512,3264,20752,-1360,-7608,2151
13225.177,295,451,351,192,-1112,4004,18876,2041,-5762,1712
13235.615,298,466,365,191,-1112,4004,18876,2041,-5762,1712
13236.387999999999,298,477,376,192,-1112,4004,18876,2041,-5762,1712
13247.930999999999,297,486,386,191,-1112,4004,18876,2041,-5762,1712
13248.281,293,492,397,192,-1112,4004,18876,2041,-5762,1712
13258.521,288,496,407,193,-1112,4004,18876,2041,-5762,1712
13268.184,279,499,419,195,-1072,2140,20288,1416,-3070,841
13269.904999999999,269,499,430,198,-1072,2140,20288,1416,-3070,841
13280.570000000002,258,497,440,199,-1072,2140,20288,1416,-3070,841
13281.827,247,495,449,201,-1072,2140,20288,1416,-3070,841
13292.510999999999,235,492,456,204,-1072,2140,20288,1416,-3070,841
13292.510999999999,224,490,463,206,-1072,2140,20288,1416,-3070,841
13302.988,214,488,466,208,-1072,2140,20288,1416,-3070,841
13306.819000000001,204,487,469,213,-744,-12,16280,-244,-148,1004
13313.614,197,485,471,217,-744,-12,16280,-244,-148,1004
13315.811,192,483,468,219,-744,-12,16280,-244,-148,1004
13324.795,188,481,465,223,-744,-12,16280,-244,-148,1004
13324.795,185,479,462,228,-744,-12,16280,-244,-148,1004
13336.147,185,475,455,231,-744,-12,16280,-244,-148,1004
13345.928,185,471,447,234,-744,-12,16280,-244,-148,1004
13347.557,186,466,438,238,-1024,2364,14744,2136,-2074,1830
13358.286,188,459,427,240,-1024,2364,14744,2136,-2074,1830
13359.229,193,455,421,245,-1024,2364,14744,2136,-2074,1830
13369.65,198,449,412,249,-1024,2364,14744,2136,-2074,1830
13369.65,206,441,402,254,-1024,2364,14744,2136,-2074,1830
13381.222,215,434,393,258,-1024,2364,14744,2136,-2074,1830
13384.811,223,428,384,261,-816,4588,18024,4924,-596,348
13392.949,234,422,376,267,-816,4588,18024,4924,-596,348
13392.949,240,418,371,270,-816,4588,18024,4924,-596,348
13403.141,248,414,364,274,-816,4588,18024,4924,-596,348
13410.123,255,410,357,277,-816,4588,18024,4924,-596,348
13414.467999999999,260,407,352,282,-816,4588,18024,4924,-596,348
13424.647,265,403,349,285,-816,4588,18024,4924,-596,348
13425.675,268,400,345,289,-1000,2204,14320,1117,-200,142
13436.035,271,394,341,294,-1000,2204,14320,1117,-200,142
13437.360999999999,273,390,337,296,-1000,2204,14320,1117,-200,142
13446.857,275,386,333,298,-1000,2204,14320,1117,-200,142
13449.452000000001,278,381,331,302,-1000,2204,14320,1117,-200,142
13458.464,280,376,326,305,-1000,2204,14320,1117,-200,142
13462.295,283,370,323,307,-1000,2204,14320,1117,-200,142
13469.379,286,365,319,309,-624,3552,17160,-452,-689,422
13474.233999999999,289,360,314,312,-624,3552,17160,-452,-689,422
13480.506,291,357,311,313,-624,3552,17160,-452,-689,422
13482.723,295,353,307,316,-624,3552,17160,-452,-689,422
13491.733,299,349,302,318,-624,3552,17160,-452,-689,422
13501.742999999999,302,345,298,320,-624,3552,17160,-452,-689,422
13503.234,306,342,294,322,-704,3332,15856,-764,-412,117
13513.942000000001,310,338,290,324,-704,3332,15856,-764,-412,117
13513.942000000001,314,335,285,325,-704,3332,15856,-764,-412,117
13524.759,317,332,281,326,-704,3332,15856,-764,-412,117
13524.759,320,329,276,327,-704,3332,15856,-764,-412,117
13534.809,322,326,273,329,-704,3332,15856,-764,-412,117
13536.425,326,323,268,329,-704,3332,15856,-764,-412,117
13547.069000000001,328,319,265,330,-760,2672,15968,-561,85,116
13548.016,329,316,263,332,-760,2672,15968,-561,85,116
13559.075,331,315,261,333,-760,2672,15968,-561,85,116
13559.075,333,312,259,334,-760,2672,15968,-561,85,116
13570.031,334,310,258,335,-760,2672,15968,-561,85,116
13572.279,336,308,255,336,-760,2672,15968,-561,85,116
13580.63,337,307,254,336,-760,2672,15968,-561,85,116
13586.17,338,305,251,337,-740,2892,15820,1198,-77,-19
13591.82,342,304,249,338,-740,2892,15820,1198,-77,-19
13591.82,344,303,247,339,-740,2892,15820,1198,-77,-19
13603.630000000001,345,302,247,340,-740,2892,15820,1198,-77,-19
13611.988,348,301,245,341,-740,2892,15820,1198,-77,-19
13614.339,349,300,243,342,-740,2892,15820,1198,-77,-19
13618.057,351,299,241,342,-740,2892,15820,1198,-77,-19
13625.687,352,298,239,341,-700,3004,15784,805,-286,-66
13629.703,355,296,236,341,-700,3004,15784,805,-286,-66
13635.954,357,295,235,342,-700,3004,15784,805,-286,-66
13642.793,358,294,234,341,-700,3004,15784,805,-286,-66
13647.880000000001,359,293,233,341,-700,3004,15784,805,-286,-66
13657.360999999999,360,292,233,343,-700,3004,15784,805,-286,-66
13658.544,362,291,231,343,-700,3004,15784,805,-286,-66
13669.710000000001,362,290,230,342,-700,3260,15708,-545,-106,19
13669.737,364,290,230,343,-700,3260,15708,-545,-106,19
13675.393,366,289,230,342,-700,3260,15708,-545,-106,19
13680.521999999999,368,289,229,341,-700,3260,15708,-545,-106,19
13690.696000000002,371,288,229,341,-700,3260,15708,-545,-106,19
13692.354,372,288,229,342,-700,3260,15708,-545,-106,19
13702.289999999999,375,288,230,342,-700,3260,15708,-545,-106,19
13702.988,377,287,230,340,-632,2956,15732,-248,-110,46
13713.581,378,287,231,341,-632,2956,15732,-248,-110,46
13715.718,379,286,231,340,-632,2956,15732,-248,-110,46
13725.713000000002,381,285,232,339,-632,2956,15732,-248,-110,46
13725.713000000002,382,286,232,339,-632,2956,15732,-248,-110,46
13735.573,383,286,232,338,-632,2956,15732,-248,-110,46
