Time (ms),EMG1,EMG2,EMG3,EMG4,AccX,AccY,AccZ,GyroX,GyroY,GyroZ
1533.974,0,0,0,0,0,0,0,0,0,0
1533.974,0,0,0,0,0,0,0,0,0,0
1533.974,303,323,312,324,0,0,0,0,0,0
1551.197,302,323,311,324,0,0,0,0,0,0
1553.4699999999998,303,324,311,324,0,0,0,0,0,0
1553.4699999999998,303,324,311,323,0,0,0,0,0,0
1560.4309999999998,303,324,310,323,0,0,0,0,0,0
1565.089,304,324,310,323,0,0,0,0,0,0
1569.1770000000001,305,324,309,323,0,0,0,0,0,0
1571.5600000000002,307,324,308,322,0,0,0,0,0,0
1571.5600000000002,307,324,308,321,0,0,0,0,0,0
1576.55,308,324,307,321,0,0,0,0,0,0
1583.089,308,324,307,320,0,0,0,0,0,0
1585.188,309,324,307,320,0,0,0,0,0,0
1585.188,310,324,306,318,780,3020,15788,-448,40,-62
1594.731,312,324,305,317,780,3020,15788,-448,40,-62
1604.376,313,323,304,317,780,3020,15788,-448,40,-62
1604.7910000000002,314,323,304,315,780,3020,15788,-448,40,-62
1615.764,316,323,304,313,780,3020,15788,-448,40,-62
1615.764,317,323,303,312,780,3020,15788,-448,40,-62
1626.808,319,321,303,312,780,3020,15788,-448,40,-62
1630.246,320,322,301,309,780,3020,15788,-448,40,-62
1630.246,322,322,301,308,596,2476,15676,-253,40,-6
1638.948,323,322,302,307,596,2476,15676,-253,40,-6
1648.813,324,321,302,307,596,2476,15676,-253,40,-6
1649.514,326,321,301,305,596,2476,15676,-253,40,-6
1654.199,326,321,301,304,596,2476,15676,-253,40,-6
1660.2630000000001,326,320,301,303,596,2476,15676,-253,40,-6
1667.8980000000001,327,320,300,302,596,2476,15676,-253,40,-6
1671.139,327,320,300,300,772,2956,15684,-15,-67,-22
1675.684,327,319,299,300,772,2956,15684,-15,-67,-22
1682.502,327,319,299,300,772,2956,15684,-15,-67,-22
1687.827,326,319,299,299,772,2956,15684,-15,-67,-22
1693.058,326,318,297,298,772,2956,15684,-15,-67,-22
1702.6509999999998,325,317,298,298,772,2956,15684,-15,-67,-22
1704.808,324,316,297,297,772,2956,15684,-15,-67,-22
1712.37,322,316,297,297,772,2812,15804,-16,-39,-31
1712.37,321,315,296,297,772,2812,15804,-16,-39,-31
1720.108,320,314,296,297,772,2812,15804,-16,-39,-31
1727.2,318,313,296,296,772,2812,15804,-16,-39,-31
1732.279,317,311,295,295,772,2812,15804,-16,-39,-31
1737.699,317,310,295,295,772,2812,15804,-16,-39,-31
1744.4759999999999,316,309,295,295,772,2812,15804,-16,-39,-31
1749.5529999999999,315,308,294,295,772,2812,15804,-16,-39,-31
1758.203,314,307,293,295,808,2972,15776,130,2,68
1760.497,313,305,293,295,808,2972,15776,130,2,68
1765.784,313,304,293,295,808,2972,15776,130,2,68
1771.0159999999998,313,303,292,295,808,2972,15776,130,2,68
1771.0159999999998,314,302,292,295,808,2972,15776,130,2,68
1782.5279999999998,314,301,291,296,808,2972,15776,130,2,68
1782.5279999999998,314,300,290,296,808,2972,15776,130,2,68
1790.827,315,299,290,295,776,2884,15704,108,-67,23
1793.2740000000001,313,298,291,296,776,2884,15704,108,-67,23
1804.427,313,299,292,296,776,2884,15704,108,-67,23
1804.427,314,298,292,297,776,2884,15704,108,-67,23
1815.604,314,298,291,296,776,2884,15704,108,-67,23
1818.975,314,297,291,297,776,2884,15704,108,-67,23
1818.975,315,296,291,298,776,2884,15704,108,-67,23
1827.801,315,295,290,299,776,2884,15704,108,-67,23
1835.494,316,295,290,299,732,2888,15808,362,-23,53
1838.212,316,294,289,299,732,2888,15808,362,-23,53
1850.012,315,293,288,301,732,2888,15808,362,-23,53
1853.2569999999998,317,293,288,300,732,2888,15808,362,-23,53
1858.423,317,291,288,301,732,2888,15808,362,-23,53
1861.918,318,290,287,303,732,2888,15808,362,-23,53
1869.684,320,288,286,304,732,2888,15808,362,-23,53
1872.21,321,286,285,305,764,3024,15820,303,-87,39
1876.126,323,283,284,307,764,3024,15820,303,-87,39
1882.002,324,282,284,308,764,3024,15820,303,-87,39
1888.9689999999998,326,278,282,310,764,3024,15820,303,-87,39
1893.439,328,277,282,311,764,3024,15820,303,-87,39
1902.411,330,274,281,312,764,3024,15820,303,-87,39
1904.4840000000002,330,271,282,314,764,3024,15820,303,-87,39
1904.4840000000002,332,268,282,315,764,3024,15820,303,-87,39
1919.48,333,266,282,315,764,2808,15772,16,39,-47
1921.1100000000001,333,263,280,317,764,2808,15772,16,39,-47
1926.425,333,262,280,317,764,2808,15772,16,39,-47
1926.425,333,261,279,317,764,2808,15772,16,39,-47
1937.885,333,259,277,317,764,2808,15772,16,39,-47
1941.726,333,257,276,317,764,2808,15772,16,39,-47
1941.726,333,256,274,317,764,2808,15772,16,39,-47
1949.076,333,256,274,315,804,3088,15756,224,-7,-64
1960.119,332,255,274,314,804,3088,15756,224,-7,-64
1960.119,332,254,273,314,804,3088,15756,224,-7,-64
1970.9099999999999,332,254,273,312,804,3088,15756,224,-7,-64
1974.258,329,255,271,310,804,3088,15756,224,-7,-64
1974.258,328,255,271,310,804,3088,15756,224,-7,-64
1983.6119999999999,326,255,271,308,804,3088,15756,224,-7,-64
1993.1779999999999,324,255,271,306,804,3088,15756,224,-7,-64
1993.1779999999999,322,256,271,305,816,3016,15784,124,43,-63
1999.98,320,256,271,303,816,3016,15784,124,43,-63
2004.537,317,256,271,302,816,3016,15784,124,43,-63
2011.537,314,256,271,300,816,3016,15784,124,43,-63
2016.3500000000001,310,256,271,299,816,3016,15784,124,43,-63
2018.968,307,257,272,298,816,3016,15784,124,43,-63
2026.7979999999998,305,256,273,296,816,3016,15784,124,43,-63
2031.3370000000002,301,258,274,294,704,3092,15800,65,78,-73
2037.497,298,257,276,293,704,3092,15800,65,78,-73
2044.2740000000001,295,258,277,293,704,3092,15800,65,78,-73
2048.9320000000002,291,259,278,290,704,3092,15800,65,78,-73
2048.9320000000002,287,260,279,289,704,3092,15800,65,78,-73
2060.134,282,261,281,289,704,3092,15800,65,78,-73
2064.746,278,262,283,288,704,3092,15800,65,78,-73
2071.003,274,263,284,287,704,3092,15800,65,78,-73
2072.591,270,266,286,287,804,3112,15688,-178,66,28
2082.9840000000004,265,267,287,286,804,3112,15688,-178,66,28
2082.9840000000004,262,268,289,286,804,3112,15688,-178,66,28
2093.5480000000002,258,270,290,286,804,3112,15688,-178,66,28
2097.403,254,272,291,284,804,3112,15688,-178,66,28
2102.674,249,274,293,285,804,3112,15688,-178,66,28
2104.2670000000003,245,275,294,285,804,3112,15688,-178,66,28
2115.543,242,277,294,285,672,3056,15716,-68,26,3
2115.543,237,280,297,284,672,3056,15716,-68,26,3
2122.789,235,281,299,284,672,3056,15716,-68,26,3
2126.628,233,283,300,284,672,3056,15716,-68,26,3
2134.099,231,285,301,284,672,3056,15716,-68,26,3
2138.2,229,286,301,285,672,3056,15716,-68,26,3
2142.802,228,288,303,285,672,3056,15716,-68,26,3
2148.6510000000003,227,289,303,285,672,3056,15716,-68,26,3
2154.059,227,291,303,285,708,3132,15856,-117,44,13
2160.7509999999997,227,293,304,285,708,3132,15856,-117,44,13
2162.5009999999997,228,294,305,285,708,3132,15856,-117,44,13
2171.723,230,295,304,285,708,3132,15856,-117,44,13
2171.723,232,296,304,285,708,3132,15856,-117,44,13
2182.252,234,296,304,285,708,3132,15856,-117,44,13
2182.252,234,297,304,285,708,3132,15856,-117,44,13
2193.308,237,298,304,285,708,3132,15856,-117,44,13
2195.161,240,299,304,285,796,3012,15796,-94,71,-47
2204.698,243,299,303,286,796,3012,15796,-94,71,-47
2207.294,245,299,303,286,796,3012,15796,-94,71,-47
2207.294,250,300,302,286,796,3012,15796,-94,71,-47
2215.6099999999997,252,299,302,286,796,3012,15796,-94,71,-47
2226.751,257,299,301,287,796,3012,15796,-94,71,-47
2226.751,260,299,300,287,796,3012,15796,-94,71,-47
2237.132,263,299,299,287,756,3036,15716,-99,65,19
2239.966,266,298,298,288,756,3036,15716,-99,65,19
2247.966,269,298,298,289,756,3036,15716,-99,65,19
2249.056,272,298,297,289,756,3036,15716,-99,65,19
2252.641,274,297,297,290,756,3036,15716,-99,65,19
2259.871,277,296,297,291,756,3036,15716,-99,65,19
2265.294,278,296,297,292,756,3036,15716,-99,65,19
2270.83,280,296,297,292,756,3036,15716,-99,65,19
2277.496,281,295,298,293,740,3112,15732,48,-14,64
2282.361,282,295,298,294,740,3112,15732,48,-14,64
2285.512,283,295,298,295,740,3112,15732,48,-14,64
2294.4629999999997,283,295,298,296,740,3112,15732,48,-14,64
2294.4629999999997,285,294,298,297,740,3112,15732,48,-14,64
2304.391,284,294,299,298,740,3112,15732,48,-14,64
2305.8999999999996,285,294,299,299,740,3112,15732,48,-14,64
2315.825,285,294,299,300,768,3080,15668,-46,-47,54
2315.825,285,294,299,301,768,3080,15668,-46,-47,54
2327.005,285,294,300,302,768,3080,15668,-46,-47,54
2327.005,286,294,300,302,768,3080,15668,-46,-47,54
2335.016,286,294,301,303,768,3080,15668,-46,-47,54
2337.904,286,294,301,304,768,3080,15668,-46,-47,54
2348.8289999999997,287,294,301,305,768,3080,15668,-46,-47,54
2351.0559999999996,287,294,301,305,768,3080,15668,-46,-47,54
2351.0559999999996,286,295,302,306,792,3124,15712,83,-34,-2
2360.716,286,294,301,309,792,3124,15712,83,-34,-2
2367.618,285,295,302,309,792,3124,15712,83,-34,-2
2371.2309999999998,285,295,301,308,792,3124,15712,83,-34,-2
2382.269,285,295,303,309,792,3124,15712,83,-34,-2
2383.673,285,296,304,310,792,3124,15712,83,-34,-2
2383.673,285,295,304,310,792,3124,15712,83,-34,-2
2394.559,285,296,303,311,748,3228,15628,-33,-39,31
2402.661,284,296,304,311,748,3228,15628,-33,-39,31
2405.027,285,297,304,312,748,3228,15628,-33,-39,31
2405.027,285,297,305,312,748,3228,15628,-33,-39,31
2415.352,284,298,305,312,748,3228,15628,-33,-39,31
2422.892,284,298,306,313,748,3228,15628,-33,-39,31
2427.2670000000003,284,298,306,313,748,3228,15628,-33,-39,31
2428.773,284,299,306,313,748,3228,15628,-33,-39,31
2438.439,285,299,306,314,844,2988,15876,-46,14,-24
2438.439,284,300,307,314,844,2988,15876,-46,14,-24
2449.259,284,299,307,314,844,2988,15876,-46,14,-24
2449.259,285,299,307,314,844,2988,15876,-46,14,-24
2460.066,286,300,307,314,844,2988,15876,-46,14,-24
2468.149,286,300,306,315,844,2988,15876,-46,14,-24
2470.901,288,300,306,314,844,2988,15876,-46,14,-24
2470.901,289,300,305,314,768,3100,15844,-76,-16,-21
2482.201,290,300,306,314,768,3100,15844,-76,-16,-21
2486.8709999999996,291,300,306,314,768,3100,15844,-76,-16,-21
2493.022,292,300,305,313,768,3100,15844,-76,-16,-21
2494.4790000000003,293,300,305,313,768,3100,15844,-76,-16,-21
2504.9990000000003,294,300,304,313,768,3100,15844,-76,-16,-21
2504.9990000000003,296,299,303,312,768,3100,15844,-76,-16,-21
2515.793,298,298,302,312,756,3024,15572,147,-35,-18
2515.793,299,298,300,311,756,3024,15572,147,-35,-18
2522.904,300,297,298,310,756,3024,15572,147,-35,-18
2526.8579999999997,301,298,298,310,756,3024,15572,147,-35,-18
2538.069,304,298,299,309,756,3024,15572,147,-35,-18
2538.069,306,298,299,310,756,3024,15572,147,-35,-18
2548.744,308,297,298,309,756,3024,15572,147,-35,-18
2551.567,311,297,298,308,756,3024,15572,147,-35,-18
2559.574,313,297,299,308,692,3060,15824,304,-108,11
2561.452,315,297,298,308,692,3060,15824,304,-108,11
2568.518,317,297,298,307,692,3060,15824,304,-108,11
2571.085,318,297,297,307,692,3060,15824,304,-108,11
2582.065,320,297,297,307,692,3060,15824,304,-108,11
2584.99,322,297,297,307,692,3060,15824,304,-108,11
2584.99,324,297,298,307,692,3060,15824,304,-108,11
2595.3529999999996,325,297,297,307,856,3168,15788,326,-131,73
2602.461,328,297,298,307,856,3168,15788,326,-131,73
2604.946,329,297,298,307,856,3168,15788,326,-131,73
2615.354,329,297,299,306,856,3168,15788,326,-131,73
2615.354,329,296,298,307,856,3168,15788,326,-131,73
2626.973,329,296,299,307,856,3168,15788,326,-131,73
2626.973,328,296,299,307,856,3168,15788,326,-131,73
2635.8700000000003,328,296,299,307,872,3268,15836,22,-37,-31
2639.801,326,295,299,308,872,3268,15836,22,-37,-31
2646.8889999999997,325,296,299,308,872,3268,15836,22,-37,-31
2649.07,323,296,299,308,872,3268,15836,22,-37,-31
2653.822,320,297,299,308,872,3268,15836,22,-37,-31
2660.355,317,297,300,309,872,3268,15836,22,-37,-31
2666.9719999999998,315,297,300,309,872,3268,15836,22,-37,-31
2671.182,313,297,300,309,872,3268,15836,22,-37,-31
2675.018,310,297,301,310,788,3224,15864,-324,74,23
2683.29,308,297,301,310,788,3224,15864,-324,74,23
2683.29,307,297,301,310,788,3224,15864,-324,74,23
2693.4559999999997,305,296,301,310,788,3224,15864,-324,74,23
2700.4579999999996,303,296,300,310,788,3224,15864,-324,74,23
2705.324,302,296,300,311,788,3224,15864,-324,74,23
2707.746,302,296,300,310,788,3224,15864,-324,74,23
2716.4359999999997,301,296,300,311,656,3028,15728,-341,78,88
2716.4359999999997,300,295,302,312,656,3028,15728,-341,78,88
2726.77,301,295,302,312,656,3028,15728,-341,78,88
2734.839,300,295,302,311,656,3028,15728,-341,78,88
2737.421,299,294,303,312,656,3028,15728,-341,78,88
2737.421,298,295,303,313,656,3028,15728,-341,78,88
2749.2009999999996,297,296,303,313,656,3028,15728,-341,78,88
2753.0130000000004,297,296,304,313,656,3028,15728,-341,78,88
2753.0130000000004,296,295,303,315,828,3064,15768,-402,64,10
2760.642,294,295,303,315,828,3064,15768,-402,64,10
2770.9519999999998,293,295,304,313,828,3064,15768,-402,64,10
2770.9519999999998,292,296,304,313,828,3064,15768,-402,64,10
2782.192,289,296,305,313,828,3064,15768,-402,64,10
2782.192,288,297,305,313,828,3064,15768,-402,64,10
2789.115,286,297,305,313,828,3064,15768,-402,64,10
2793.6839999999997,285,296,305,313,768,2984,15672,133,-50,-7
2801.949,283,297,305,313,768,2984,15672,133,-50,-7
2805.552,282,296,305,312,768,2984,15672,133,-50,-7
2815.5280000000002,282,297,305,312,768,2984,15672,133,-50,-7
2819.083,281,297,305,311,768,2984,15672,133,-50,-7
2819.083,279,297,306,311,768,2984,15672,133,-50,-7
2827.692,278,298,305,310,768,2984,15672,133,-50,-7
2834.654,277,299,305,310,804,3136,15760,-22,3,-98
2838.132,275,300,305,310,804,3136,15760,-22,3,-98
2844.026,275,300,304,309,804,3136,15760,-22,3,-98
2849.6440000000002,274,300,304,308,804,3136,15760,-22,3,-98
2858.241,274,300,304,307,804,3136,15760,-22,3,-98
2860.711,273,301,303,307,804,3136,15760,-22,3,-98
2869.279,274,300,302,307,804,3136,15760,-22,3,-98
2871.725,274,301,303,305,804,3136,15760,-22,3,-98
2874.73,274,300,302,305,772,3040,15748,24,-65,-60
2882.274,276,301,302,305,772,3040,15748,24,-65,-60
2882.274,278,301,301,304,772,3040,15748,24,-65,-60
2893.7050000000004,280,301,301,303,772,3040,15748,24,-65,-60
2893.7050000000004,283,301,302,303,772,3040,15748,24,-65,-60
2905.554,286,301,302,303,772,3040,15748,24,-65,-60
2905.554,290,301,301,302,772,3040,15748,24,-65,-60
2913.5559999999996,292,301,301,302,772,3040,15748,24,-65,-60
2915.8469999999998,296,301,301,301,788,3260,15772,37,-109,-83
2926.7799999999997,300,301,300,302,788,3260,15772,37,-109,-83
2926.7799999999997,303,301,299,301,788,3260,15772,37,-109,-83
2937.663,306,301,299,300,788,3260,15772,37,-109,-83
2940.966,311,300,300,302,788,3260,15772,37,-109,-83
2940.966,313,302,301,301,788,3260,15772,37,-109,-83
2949.9629999999997,317,302,300,301,788,3260,15772,37,-109,-83
2960.156,318,301,300,302,796,2996,15868,-197,20,-3
2960.156,320,302,301,302,796,2996,15868,-197,20,-3
2971.2670000000003,322,302,300,302,796,2996,15868,-197,20,-3
2973.904,324,302,301,302,796,2996,15868,-197,20,-3
2973.904,326,303,300,303,796,2996,15868,-197,20,-3
2983.171,326,303,301,303,796,2996,15868,-197,20,-3
2991.319,326,303,300,303,796,2996,15868,-197,20,-3
2993.262,326,303,300,303,832,3272,15740,-11,19,-58
3004.106,325,303,300,304,832,3272,15740,-11,19,-58
3006.354,324,303,300,303,832,3272,15740,-11,19,-58
3006.354,323,303,301,303,832,3272,15740,-11,19,-58
3016.444,321,303,301,304,832,3272,15740,-11,19,-58
3022.9469999999997,320,303,302,304,832,3272,15740,-11,19,-58
3026.771,319,303,302,305,832,3272,15740,-11,19,-58
3037.457,317,303,302,304,832,3272,15740,-11,19,-58
3038.2400000000002,313,303,304,306,776,2988,15704,-176,29,19
3046.3,310,304,304,307,776,2988,15704,-176,29,19
3049.3100000000004,308,304,304,306,776,2988,15704,-176,29,19
3058.11,305,304,304,307,776,2988,15704,-176,29,19
3060.205,302,304,305,307,776,2988,15704,-176,29,19
3063.423,300,304,305,308,776,2988,15704,-176,29,19
3070.847,298,304,305,308,776,2988,15704,-176,29,19
3076.552,296,304,305,308,832,3136,15720,44,-8,-18
3081.759,293,304,305,309,832,3136,15720,44,-8,-18
3084.196,292,304,304,308,832,3136,15720,44,-8,-18
3094.143,291,304,304,309,832,3136,15720,44,-8,-18
3094.143,289,304,304,309,832,3136,15720,44,-8,-18
3100.451,288,304,304,309,832,3136,15720,44,-8,-18
3105.7760000000003,287,303,304,309,832,3136,15720,44,-8,-18
3115.553,286,303,305,309,832,3136,15720,44,-8,-18
3115.553,286,303,304,310,724,3088,15736,-97,27,5
3122.778,285,303,304,310,724,3088,15736,-97,27,5
3126.6020000000003,284,303,304,309,724,3088,15736,-97,27,5
3133.8599999999997,282,302,304,309,724,3088,15736,-97,27,5
3138.138,283,302,304,310,724,3088,15736,-97,27,5
3141.747,282,302,304,309,724,3088,15736,-97,27,5
3148.914,282,302,303,309,724,3088,15736,-97,27,5
3148.914,282,302,303,310,724,3088,15736,-97,27,5
3160.52,283,302,303,310,768,3148,15708,21,6,-33
3168.565,283,301,302,310,768,3148,15708,21,6,-33
3171.382,282,301,302,309,768,3148,15708,21,6,-33
3171.382,283,302,302,309,768,3148,15708,21,6,-33
3180.24,284,301,302,310,768,3148,15708,21,6,-33
3182.096,284,302,302,310,768,3148,15708,21,6,-33
3193.24,285,302,301,309,768,3148,15708,21,6,-33
3193.24,286,301,301,309,756,3056,15724,-85,4,-31
3199.5499999999997,287,301,300,309,756,3056,15724,-85,4,-31
3205.848,289,301,301,309,756,3056,15724,-85,4,-31
3210.861,290,301,300,309,756,3056,15724,-85,4,-31
3215.876,291,301,300,308,756,3056,15724,-85,4,-31
3219.165,293,301,300,309,756,3056,15724,-85,4,-31
3227.427,295,300,299,309,756,3056,15724,-85,4,-31
3227.427,297,301,300,308,756,3056,15724,-85,4,-31
3237.8999999999996,299,300,300,308,848,3088,15780,44,-3,-15
3245.933,302,299,300,309,848,3088,15780,44,-3,-15
3248.717,303,300,299,308,848,3088,15780,44,-3,-15
3248.717,306,300,300,308,848,3088,15780,44,-3,-15
3257.666,308,300,300,308,848,3088,15780,44,-3,-15
3259.84,311,300,300,307,848,3088,15780,44,-3,-15
3271.071,315,300,300,307,848,3088,15780,44,-3,-15
3271.071,319,300,299,306,848,3088,15780,44,-3,-15
3282.279,322,299,300,307,812,3196,15680,-76,9,-48
3285.196,326,299,298,306,812,3196,15680,-76,9,-48
3285.196,330,300,298,306,812,3196,15680,-76,9,-48
3294.365,333,300,298,306,812,3196,15680,-76,9,-48
3301.612,335,300,298,306,812,3196,15680,-76,9,-48
3306.652,337,299,297,306,812,3196,15680,-76,9,-48
3309.231,339,300,296,305,812,3196,15680,-76,9,-48
3315.214,341,300,296,305,752,3128,15764,-112,33,-58
3321.56,343,300,296,305,752,3128,15764,-112,33,-58
3326.741,343,300,296,305,752,3128,15764,-112,33,-58
3329.934,344,300,296,304,752,3128,15764,-112,33,-58
3338.7129999999997,344,300,297,304,752,3128,15764,-112,33,-58
3338.7129999999997,345,299,297,304,752,3128,15764,-112,33,-58
3349.0060000000003,345,300,296,303,752,3128,15764,-112,33,-58
3357.078,345,299,297,303,752,3128,15764,-112,33,-58
3360.22,345,299,296,303,780,3116,15824,-119,12,-22
3369.2700000000004,346,299,296,304,780,3116,15824,-119,12,-22
3371.646,346,299,296,302,780,3116,15824,-119,12,-22
3380.9300000000003,346,298,295,302,780,3116,15824,-119,12,-22
3382.218,345,299,294,303,780,3116,15824,-119,12,-22
3387.866,345,298,295,303,780,3116,15824,-119,12,-22
3392.8720000000003,344,298,294,303,780,3116,15824,-119,12,-22
3400.097,343,299,295,304,872,3092,15716,-114,-23,-58
3406.34,341,297,294,304,872,3092,15716,-114,-23,-58
3408.147,341,298,294,304,872,3092,15716,-114,-23,-58
3416.83,339,297,294,304,872,3092,15716,-114,-23,-58
3416.83,336,297,295,304,872,3092,15716,-114,-23,-58
3426.717,333,297,295,303,872,3092,15716,-114,-23,-58
3433.606,331,297,295,303,872,3092,15716,-114,-23,-58
3437.569,328,297,297,304,800,3268,15740,4,1,-31
3447.0190000000002,325,297,297,304,800,3268,15740,4,1,-31
3449.8630000000003,325,297,297,304,800,3268,15740,4,1,-31
3449.8630000000003,322,297,298,304,800,3268,15740,4,1,-31
3457.933,320,298,298,305,800,3268,15740,4,1,-31
3460.031,317,298,297,305,800,3268,15740,4,1,-31
3471.06,315,299,298,304,800,3268,15740,4,1,-31
3471.06,312,299,298,304,800,3268,15740,4,1,-31
3478.049,310,299,299,305,808,3136,15712,-60,-25,-21
3482.654,307,300,299,306,808,3136,15712,-60,-25,-21
3489.3450000000003,305,300,299,305,808,3136,15712,-60,-25,-21
3493.7749999999996,303,300,297,305,808,3136,15712,-60,-25,-21
3504.133,300,300,298,307,808,3136,15712,-60,-25,-21
3506.5789999999997,296,300,299,306,808,3136,15712,-60,-25,-21
3506.5789999999997,293,301,299,306,808,3136,15712,-60,-25,-21
3516.592,290,300,300,306,776,3144,15880,-210,32,-68
3522.728,286,300,300,307,776,3144,15880,-210,32,-68
3526.721,284,301,299,306,776,3144,15880,-210,32,-68
3537.242,282,301,299,306,776,3144,15880,-210,32,-68
3537.6310000000003,279,301,301,307,776,3144,15880,-210,32,-68
3543.206,277,301,301,308,776,3144,15880,-210,32,-68
3548.3920000000003,276,302,301,307,776,3144,15880,-210,32,-68
3556.006,274,302,301,307,792,3212,15748,-192,50,-17
3560.381,272,303,301,308,792,3212,15748,-192,50,-17
3569.402,272,303,301,308,792,3212,15748,-192,50,-17
3574.605,272,303,302,307,792,3212,15748,-192,50,-17
3582.013,272,303,302,308,792,3212,15748,-192,50,-17
3586.544,272,303,302,308,792,3212,15748,-192,50,-17
3590.818,272,303,302,308,792,3212,15748,-192,50,-17
3596.178,273,303,302,307,792,3212,15748,-192,50,-17
3596.178,272,303,302,308,776,3112,15800,-28,8,-23
3606.5429999999997,273,303,301,308,776,3112,15800,-28,8,-23
3606.5429999999997,274,304,302,308,776,3112,15800,-28,8,-23
3615.606,275,303,302,308,776,3112,15800,-28,8,-23
3621.2889999999998,276,303,301,308,776,3112,15800,-28,8,-23
3626.0629999999996,277,303,301,308,776,3112,15800,-28,8,-23
3636.103,280,303,300,307,776,3112,15800,-28,8,-23
3638.6440000000002,281,303,301,307,824,3100,15724,5,-14,-52
3638.6440000000002,284,303,301,308,824,3100,15724,5,-14,-52
3645.692,285,303,302,307,824,3100,15724,5,-14,-52
3649.464,288,303,301,306,824,3100,15724,5,-14,-52
3660.219,290,303,301,306,824,3100,15724,5,-14,-52
3660.219,292,303,301,306,824,3100,15724,5,-14,-52
3671.206,295,303,300,305,824,3100,15724,5,-14,-52
3671.206,298,302,300,305,824,3100,15724,5,-14,-52
3679.014,300,302,301,305,784,3024,15676,-30,-31,-18
3682.08,301,303,300,305,784,3024,15676,-30,-31,-18
3692.808,304,302,300,304,784,3024,15676,-30,-31,-18
3693.2619999999997,305,302,299,305,784,3024,15676,-30,-31,-18
3704.344,306,302,301,305,784,3024,15676,-30,-31,-18
3706.967,308,302,301,304,784,3024,15676,-30,-31,-18
3706.967,308,302,301,304,784,3024,15676,-30,-31,-18
3717.046,309,302,302,304,776,3136,15752,23,-33,-13
3723.353,308,302,302,304,776,3136,15752,23,-33,-13
3726.811,308,302,301,304,776,3136,15752,23,-33,-13
3737.4390000000003,308,302,301,303,776,3136,15752,23,-33,-13
3739.395,307,301,302,304,776,3136,15752,23,-33,-13
3739.395,307,302,302,304,776,3136,15752,23,-33,-13
3748.681,308,302,302,303,776,3136,15752,23,-33,-13
3755.685,306,301,302,303,776,3136,15752,23,-33,-13
3760.267,307,301,302,304,772,3224,15716,42,-52,-16
3760.267,306,302,302,304,772,3224,15716,42,-52,-16
3771.132,305,302,302,305,772,3224,15716,42,-52,-16
3779.1929999999998,304,302,302,304,772,3224,15716,42,-52,-16
3781.7,303,303,302,305,772,3224,15716,42,-52,-16
3784.511,303,302,303,305,772,3224,15716,42,-52,-16
3794.054,303,302,302,304,772,3224,15716,42,-52,-16
3794.054,302,302,302,306,808,3288,15676,-24,42,-14
3806.756,301,302,303,306,808,3288,15676,-24,42,-14
3806.756,302,302,303,306,808,3288,15676,-24,42,-14
3815.6910000000003,302,302,304,306,808,3288,15676,-24,42,-14
3824.042,303,302,304,307,808,3288,15676,-24,42,-14
3826.923,304,302,304,307,808,3288,15676,-24,42,-14
3826.923,305,302,302,306,808,3288,15676,-24,42,-14
3837.8869999999997,306,302,302,307,808,3288,15676,-24,42,-14
3842.721,306,302,303,308,820,3176,15656,-135,80,16
3848.5490000000004,307,302,303,307,820,3176,15656,-135,80,16
3850.368,308,302,303,308,820,3176,15656,-135,80,16
3859.9790000000003,307,303,304,309,820,3176,15656,-135,80,16
3859.9790000000003,306,303,304,310,820,3176,15656,-135,80,16
3866.497,305,303,303,309,820,3176,15656,-135,80,16
3871.407,303,304,303,309,820,3176,15656,-135,80,16
3879.3669999999997,301,303,304,309,712,2980,15920,-166,105,-53
3882.385,298,305,305,310,712,2980,15920,-166,105,-53
3894.066,297,306,305,309,712,2980,15920,-166,105,-53
3894.066,295,306,305,310,712,2980,15920,-166,105,-53
3904.752,294,306,306,311,712,2980,15920,-166,105,-53
3906.765,292,307,306,310,712,2980,15920,-166,105,-53
3911.834,291,306,305,310,712,2980,15920,-166,105,-53
3916.157,291,307,305,310,760,3168,15696,68,-30,44
3926.518,291,307,306,310,760,3168,15696,68,-30,44
3926.518,291,308,306,309,760,3168,15696,68,-30,44
3937.822,291,308,306,310,760,3168,15696,68,-30,44
3937.822,291,308,306,310,760,3168,15696,68,-30,44
3944.51,291,308,306,310,760,3168,15696,68,-30,44
3949.014,293,308,305,310,760,3168,15696,68,-30,44
3959.074,294,308,306,309,760,3168,15696,68,-30,44
3960.458,295,308,305,310,836,3156,15736,-71,-22,-32
3960.458,297,308,304,310,836,3156,15736,-71,-22,-32
3970.826,299,308,304,309,836,3156,15736,-71,-22,-32
3977.004,301,307,304,309,836,3156,15736,-71,-22,-32
3981.969,302,307,303,309,836,3156,15736,-71,-22,-32
3991.777,305,307,303,308,836,3156,15736,-71,-22,-32
3993.9,307,307,303,308,836,3156,15736,-71,-22,-32
3997.152,310,306,303,308,748,3064,15676,-112,64,-55
4006.747,314,306,302,307,748,3064,15676,-112,64,-55
4010.887,316,306,302,307,748,3064,15676,-112,64,-55
4015.6169999999997,318,305,301,307,748,3064,15676,-112,64,-55
4018.626,321,305,300,307,748,3064,15676,-112,64,-55
4027.7019999999998,323,305,299,306,748,3064,15676,-112,64,-55
4036.2299999999996,325,305,300,306,748,3064,15676,-112,64,-55
4038.693,326,304,300,306,752,3080,15804,1,18,-25
4038.693,328,304,300,306,752,3080,15804,1,18,-25
4049.1349999999998,329,304,300,306,752,3080,15804,1,18,-25
4057.486,330,304,300,305,752,3080,15804,1,18,-25
4060.5960000000005,330,304,300,306,752,3080,15804,1,18,-25
4060.5960000000005,331,304,300,306,752,3080,15804,1,18,-25
4067.5460000000003,331,303,299,305,752,3080,15804,1,18,-25
4071.191,332,303,299,305,752,3080,15804,1,18,-25
4080.3700000000003,334,303,299,306,804,3088,15648,-22,-20,-21
4082.478,335,303,299,306,804,3088,15648,-22,-20,-21
4092.9650000000006,337,302,299,305,804,3088,15648,-22,-20,-21
4095.478,338,302,299,305,804,3088,15648,-22,-20,-21
4095.478,338,302,299,306,804,3088,15648,-22,-20,-21
4106.582,339,302,299,305,804,3088,15648,-22,-20,-21
4112.25,339,302,298,306,804,3088,15648,-22,-20,-21
4115.632,339,301,298,306,804,3144,15844,-57,7,-37
4126.204000000001,339,301,298,306,804,3144,15844,-57,7,-37
4128.4619999999995,339,301,299,306,804,3144,15844,-57,7,-37
4128.4619999999995,338,301,299,306,804,3144,15844,-57,7,-37
4138.07,338,301,299,306,804,3144,15844,-57,7,-37
4140.812000000001,337,301,298,306,804,3144,15844,-57,7,-37
4148.774,337,300,298,305,804,3144,15844,-57,7,-37
4153.210999999999,335,301,298,305,804,3144,15844,-57,7,-37
4160.035,334,301,299,306,796,3144,15692,-40,-14,-41
4165.405,334,301,299,305,796,3144,15692,-40,-14,-41
4170.941,333,301,299,305,796,3144,15692,-40,-14,-41
4173.775,332,301,299,306,796,3144,15692,-40,-14,-41
4182.8240000000005,330,301,299,307,796,3144,15692,-40,-14,-41
4182.8240000000005,329,301,299,306,796,3144,15692,-40,-14,-41
4193.4529999999995,327,300,298,306,796,3144,15692,-40,-14,-41
4193.4529999999995,325,300,298,306,784,3140,15728,-83,-7,-47
4204.447,322,301,299,306,784,3140,15728,-83,-7,-47
4206.462,321,301,299,306,784,3140,15728,-83,-7,-47
4215.9490000000005,318,300,299,307,784,3140,15728,-83,-7,-47
4215.9490000000005,316,300,299,307,784,3140,15728,-83,-7,-47
4226.845,314,300,301,307,784,3140,15728,-83,-7,-47
4231.946,310,301,300,307,784,3140,15728,-83,-7,-47
4237.723,307,300,301,307,784,3140,15728,-83,-7,-47
4237.723,303,301,300,307,764,3072,15716,-52,9,-41
4249.638,299,301,301,307,764,3072,15716,-52,9,-41
4249.638,297,302,300,306,764,3072,15716,-52,9,-41
4256.066,294,303,301,307,764,3072,15716,-52,9,-41
4260.157,292,302,301,307,764,3072,15716,-52,9,-41
4268.87,289,302,301,306,764,3072,15716,-52,9,-41
4271.201999999999,287,302,301,306,764,3072,15716,-52,9,-41
4282.4130000000005,284,302,302,307,804,3164,15752,86,-34,-19
4282.4130000000005,282,302,301,306,804,3164,15752,86,-34,-19
4289.001,281,303,301,306,804,3164,15752,86,-34,-19
4293.445000000001,280,303,302,306,804,3164,15752,86,-34,-19
4297.13,279,303,301,307,804,3164,15752,86,-34,-19
4306.536,279,302,301,306,804,3164,15752,86,-34,-19
4306.536,279,303,300,305,804,3164,15752,86,-34,-19
4315.607,278,303,301,306,804,3164,15752,86,-34,-19
4322.295999999999,279,303,301,306,764,3172,15756,-56,8,-16
4326.638,278,303,301,305,764,3172,15756,-56,8,-16
4329.799999999999,277,304,302,305,764,3172,15756,-56,8,-16
4338.5689999999995,278,303,301,305,764,3172,15756,-56,8,-16
4338.5689999999995,277,304,302,306,764,3172,15756,-56,8,-16
4348.823,278,304,302,306,764,3172,15756,-56,8,-16
4348.893,278,304,302,305,764,3172,15756,-56,8,-16
4359.497,279,304,302,306,872,3192,15736,20,-28,14
4359.497,278,303,302,306,872,3192,15736,20,-28,14
4372.615,279,304,302,306,872,3192,15736,20,-28,14
4372.615,278,304,303,306,872,3192,15736,20,-28,14
4378.521,278,304,303,306,872,3192,15736,20,-28,14
4382.7119999999995,278,304,302,306,872,3192,15736,20,-28,14
4387.833,280,304,301,305,872,3192,15736,20,-28,14
4394.339000000001,280,303,301,306,872,3192,15736,20,-28,14
4402.646,281,303,302,306,800,3152,15708,1,-16,-15
4406.506,282,303,302,306,800,3152,15708,1,-16,-15
4411.487,283,303,302,306,800,3152,15708,1,-16,-15
4416.08,284,303,302,306,800,3152,15708,1,-16,-15
4419.148,285,303,302,306,800,3152,15708,1,-16,-15
4426.148999999999,285,303,302,307,800,3152,15708,1,-16,-15
4431.632,286,303,302,306,800,3152,15708,1,-16,-15
4437.549,286,303,302,306,800,3152,15708,1,-16,-15
4437.549,287,303,302,307,852,3184,15832,-20,-15,-7
4449.156999999999,287,303,302,306,852,3184,15832,-20,-15,-7
4449.156999999999,287,304,302,306,852,3184,15832,-20,-15,-7
4459.849,287,304,302,306,852,3184,15832,-20,-15,-7
4464.503,287,304,303,307,852,3184,15832,-20,-15,-7
4470.671,288,304,303,307,852,3184,15832,-20,-15,-7
4470.671,286,304,302,307,852,3184,15832,-20,-15,-7
4483.586,287,304,303,308,752,3132,15704,-83,-43,-17
4487.26,287,304,304,307,752,3132,15704,-83,-43,-17
4493.415,287,304,304,307,752,3132,15704,-83,-43,-17
4497.860000000001,286,304,304,307,752,3132,15704,-83,-43,-17
4504.406,287,304,303,307,752,3132,15704,-83,-43,-17
4506.683,288,304,303,307,752,3132,15704,-83,-43,-17
4516.2789999999995,288,305,304,308,752,3132,15704,-83,-43,-17
4516.2789999999995,289,305,304,308,840,3116,15744,-40,-21,23
4527.127,290,305,304,308,840,3116,15744,-40,-21,23
4527.127,290,305,304,308,840,3116,15744,-40,-21,23
4535.786,290,305,303,307,840,3116,15744,-40,-21,23
4537.665,291,306,303,307,840,3116,15744,-40,-21,23
4542.821,291,306,303,307,840,3116,15744,-40,-21,23
4549.334,292,306,303,307,840,3116,15744,-40,-21,23
4554.292,292,306,303,308,840,3116,15744,-40,-21,23
4559.805,293,306,303,308,824,3132,15732,58,9,-11
4567.577,294,306,303,307,824,3132,15732,58,9,-11
4570.9619999999995,293,306,303,308,824,3132,15732,58,9,-11
4570.9619999999995,293,306,304,309,824,3132,15732,58,9,-11
4582.235,294,306,303,308,824,3132,15732,58,9,-11
4587.777,294,306,303,308,824,3132,15732,58,9,-11
4593.009,294,307,303,308,824,3132,15732,58,9,-11
4595.6089999999995,295,306,303,308,824,3132,15732,58,9,-11
4605.654,296,306,303,309,784,3168,15700,-8,-3,-36
4606.6630000000005,298,306,302,308,784,3168,15700,-8,-3,-36
4614.671,298,306,302,307,784,3168,15700,-8,-3,-36
4616.291,298,306,302,307,784,3168,15700,-8,-3,-36
4626.41,299,306,302,307,784,3168,15700,-8,-3,-36
4626.41,301,305,302,306,784,3168,15700,-8,-3,-36
4632.778,302,305,302,306,784,3168,15700,-8,-3,-36
4637.686000000001,303,305,302,307,852,3236,15708,-24,9,-9
4644.758000000001,304,305,301,306,852,3236,15708,-24,9,-9
4649.08,305,304,301,306,852,3236,15708,-24,9,-9
4653.1,305,304,302,306,852,3236,15708,-24,9,-9
4660.454,306,304,302,307,852,3236,15708,-24,9,-9
4660.454,306,305,301,306,852,3236,15708,-24,9,-9
4671.528,306,305,301,306,852,3236,15708,-24,9,-9
4671.528,307,304,301,306,852,3236,15708,-24,9,-9
4682.714,307,305,302,307,808,3180,15732,-124,-8,-11
4682.714,307,304,302,306,808,3180,15732,-124,-8,-11
4691.3910000000005,307,304,302,306,808,3180,15732,-124,-8,-11
4698.418000000001,307,304,302,307,808,3180,15732,-124,-8,-11
4704.706,307,304,301,306,808,3180,15732,-124,-8,-11
4706.719999999999,307,305,301,306,808,3180,15732,-124,-8,-11
4715.463,307,304,300,306,808,3180,15732,-124,-8,-11
4715.463,306,304,300,307,776,3084,15752,-57,31,-45
4726.6810000000005,306,304,300,307,776,3084,15752,-57,31,-45
4726.6810000000005,305,304,300,306,776,3084,15752,-57,31,-45
4737.501,304,305,299,306,776,3084,15752,-57,31,-45
4737.501,305,304,300,307,776,3084,15752,-57,31,-45
4748.835,305,305,300,306,776,3084,15752,-57,31,-45
4748.835,304,305,300,306,776,3084,15752,-57,31,-45
4755.592,304,305,300,306,776,3084,15752,-57,31,-45
4760.3910000000005,304,305,300,306,760,3172,15816,-21,24,-26
4767.349,306,304,300,305,760,3172,15816,-21,24,-26
4771.26,306,304,300,306,760,3172,15816,-21,24,-26
4776.256,306,303,299,305,760,3172,15816,-21,24,-26
4782.706,307,303,300,305,760,3172,15816,-21,24,-26
4782.706,308,304,300,305,760,3172,15816,-21,24,-26
4793.362,308,304,300,305,760,3172,15816,-21,24,-26
4800.464,308,304,300,305,784,3156,15724,-111,20,0
4806.835999999999,310,303,300,305,784,3156,15724,-111,20,0
4809.643,310,304,300,305,784,3156,15724,-111,20,0
4816.334000000001,310,303,300,306,784,3156,15724,-111,20,0
4816.334000000001,311,303,300,306,784,3156,15724,-111,20,0
4827.2339999999995,311,303,300,305,784,3156,15724,-111,20,0
4835.262000000001,312,303,300,306,784,3156,15724,-111,20,0
4838.216,312,303,300,306,784,3156,15724,-111,20,0
4838.216,312,303,300,306,776,3224,15752,9,20,-37
4846.677,314,303,300,305,776,3224,15752,9,20,-37
4856.0689999999995,314,302,299,305,776,3224,15752,9,20,-37
4860.105,314,303,299,305,776,3224,15752,9,20,-37
4864.772999999999,315,303,299,304,776,3224,15752,9,20,-37
4868.88,317,302,299,304,776,3224,15752,9,20,-37
4876.582,317,302,299,304,776,3224,15752,9,20,-37
4876.582,317,302,300,305,776,3224,15752,9,20,-37
4881.756,317,302,300,305,804,3160,15656,-111,-12,-17
4886.249000000001,318,303,300,304,804,3160,15656,-111,-12,-17
4893.423000000001,318,303,300,304,804,3160,15656,-111,-12,-17
4904.197,318,303,301,305,804,3160,15656,-111,-12,-17
4906.714,320,303,300,305,804,3160,15656,-111,-12,-17
4911.344,320,303,301,305,804,3160,15656,-111,-12,-17
4915.967000000001,320,303,300,305,804,3160,15656,-111,-12,-17
4923.901,319,303,300,305,844,3148,15748,-49,30,-21
4926.802000000001,318,303,300,305,844,3148,15748,-49,30,-21
4938.012,318,303,301,305,844,3148,15748,-49,30,-21
4938.012,318,302,300,306,844,3148,15748,-49,30,-21
4944.511,317,302,299,305,844,3148,15748,-49,30,-21
4948.915,318,303,300,305,844,3148,15748,-49,30,-21
4956.199,317,303,300,305,844,3148,15748,-49,30,-21
4959.963,316,303,300,305,716,3112,15696,-71,33,-33
4964.854,316,303,300,304,716,3112,15696,-71,33,-33
4970.823,315,303,301,304,716,3112,15696,-71,33,-33
4976.297,314,302,301,306,716,3112,15696,-71,33,-33
4982.004,314,304,302,305,716,3112,15696,-71,33,-33
4985.79,314,303,302,305,716,3112,15696,-71,33,-33
4994.5740000000005,313,303,301,304,716,3112,15696,-71,33,-33
4999.827,313,303,302,305,716,3112,15696,-71,33,-33
5007.025,312,303,302,306,812,3220,15692,10,-11,-33
5007.025,312,303,301,304,812,3220,15692,10,-11,-33
5015.613,312,303,301,305,812,3220,15692,10,-11,-33
5023.664,312,303,302,305,812,3220,15692,10,-11,-33
5026.571,312,302,302,304,812,3220,15692,10,-11,-33
5030.634,313,303,301,304,812,3220,15692,10,-11,-33
5039.199,313,303,302,305,812,3220,15692,10,-11,-33
5039.199,313,303,301,305,800,3192,15760,-150,6,-42
5049.112,314,303,301,304,800,3192,15760,-150,6,-42
5049.112,313,303,300,304,800,3192,15760,-150,6,-42
5059.972,312,303,302,304,800,3192,15760,-150,6,-42
5059.972,312,304,302,304,800,3192,15760,-150,6,-42
5067.051,312,304,302,303,800,3192,15760,-150,6,-42
5071.972,312,304,302,303,800,3192,15760,-150,6,-42
5080.322,311,304,303,304,800,3192,15760,-150,6,-42
5082.643,312,304,303,303,800,3248,15664,45,8,16
5093.064,312,305,303,304,800,3248,15664,45,8,16
5093.064,312,304,302,303,800,3248,15664,45,8,16
5100.061000000001,312,304,303,304,800,3248,15664,45,8,16
5104.318,312,304,302,303,800,3248,15664,45,8,16
5107.935,313,304,303,303,800,3248,15664,45,8,16
5116.377,313,305,303,303,800,3248,15664,45,8,16
5116.377,314,304,303,303,812,3188,15668,1,-28,-17
5126.772,314,304,303,303,812,3188,15668,1,-28,-17
5126.772,314,304,302,303,812,3188,15668,1,-28,-17
5137.103,314,304,302,303,812,3188,15668,1,-28,-17
5139.882,314,304,301,303,812,3188,15668,1,-28,-17
5147.884999999999,314,304,301,303,812,3188,15668,1,-28,-17
5150.027,313,304,301,303,812,3188,15668,1,-28,-17
5158.3949999999995,313,304,300,304,812,3188,15668,1,-28,-17
5160.344,313,303,300,304,812,3164,15752,12,23,-35
5165.842,313,304,301,303,812,3164,15752,12,23,-35
5171.017,314,304,302,303,812,3164,15752,12,23,-35
5176.723,313,304,301,303,812,3164,15752,12,23,-35
5182.262,313,304,301,303,812,3164,15752,12,23,-35
5185.175,314,304,301,303,812,3164,15752,12,23,-35
5193.592,314,304,301,303,812,3164,15752,12,23,-35
5193.592,314,304,300,303,812,3164,15752,12,23,-35
5207.497,314,303,300,303,816,3288,15748,-15,0,-19
5210.3910000000005,315,304,300,303,816,3288,15748,-15,0,-19
5215.17,314,303,301,303,816,3288,15748,-15,0,-19
5215.17,314,303,301,303,816,3288,15748,-15,0,-19
5226.82,313,304,300,303,816,3288,15748,-15,0,-19
5230.767,312,303,300,303,816,3288,15748,-15,0,-19
5230.767,311,304,300,303,816,3288,15748,-15,0,-19
5238.931,310,304,301,303,764,3196,15700,-32,-25,-16
5249.174,308,304,301,303,764,3196,15700,-32,-25,-16
5249.174,307,304,301,303,764,3196,15700,-32,-25,-16
5260.306,307,305,301,303,764,3196,15700,-32,-25,-16
5260.306,305,305,302,303,764,3196,15700,-32,-25,-16
5269.909000000001,304,305,302,303,764,3196,15700,-32,-25,-16
5272.794,303,305,302,303,764,3196,15700,-32,-25,-16
5282.217000000001,302,305,302,304,764,3196,15700,-32,-25,-16
5282.217000000001,301,305,301,303,800,3288,15700,83,-23,5
5293.222,301,304,301,303,800,3288,15700,83,-23,5
5295.552,300,304,301,304,800,3288,15700,83,-23,5
5295.552,300,304,301,304,800,3288,15700,83,-23,5
5305.734,299,304,301,304,800,3288,15700,83,-23,5
5307.747,299,305,302,303,800,3288,15700,83,-23,5
5315.513,299,305,302,304,800,3288,15700,83,-23,5
5323.589,299,304,302,304,776,3332,15808,70,-99,77
5325.811,300,305,303,303,776,3332,15808,70,-99,77
5328.562,301,305,302,303,776,3332,15808,70,-99,77
5337.858,303,304,302,304,776,3332,15808,70,-99,77
5337.858,304,304,302,304,776,3332,15808,70,-99,77
5345.026,308,304,302,303,776,3332,15808,70,-99,77
5348.9890000000005,310,305,303,304,776,3332,15808,70,-99,77
5359.934,313,304,303,304,776,3332,15808,70,-99,77
5359.934,316,304,303,304,852,3288,15704,-57,-71,68
5371.000999999999,320,304,302,303,852,3288,15704,-57,-71,68
5373.959,322,304,303,304,852,3288,15704,-57,-71,68
5373.959,326,303,302,305,852,3288,15704,-57,-71,68
5383.585,329,304,302,304,852,3288,15704,-57,-71,68
5390.5560000000005,331,304,302,304,852,3288,15704,-57,-71,68
5393.413,332,304,301,304,852,3288,15704,-57,-71,68
5404.633,335,304,302,304,832,3260,15708,-116,31,-23
5407.649,336,305,302,304,832,3260,15708,-116,31,-23
5414.0470000000005,337,304,302,304,832,3260,15708,-116,31,-23
5416.673000000001,339,305,302,304,832,3260,15708,-116,31,-23
5423.05,339,305,302,304,832,3260,15708,-116,31,-23
5427.083,340,304,302,304,832,3260,15708,-116,31,-23
5437.772,339,304,303,304,832,3260,15708,-116,31,-23
5439.213,338,304,303,305,832,3260,15708,-116,31,-23
5439.213,337,305,303,305,840,3224,15676,13,-14,-15
5449.998,336,304,302,304,840,3224,15676,13,-14,-15
5455.880999999999,335,304,302,305,840,3224,15676,13,-14,-15
5460.2519999999995,333,305,302,305,840,3224,15676,13,-14,-15
5464.802,332,305,302,305,840,3224,15676,13,-14,-15
5472.018,331,304,301,304,840,3224,15676,13,-14,-15
5472.018,327,305,301,305,840,3224,15676,13,-14,-15
5482.412,324,305,301,305,844,3260,15740,150,-23,-55
5488.628000000001,321,305,301,305,844,3260,15740,150,-23,-55
5493.454,318,306,301,305,844,3260,15740,150,-23,-55
5503.337,316,305,300,305,844,3260,15740,150,-23,-55
5507.472,314,305,301,304,844,3260,15740,150,-23,-55
5509.804,312,305,300,305,844,3260,15740,150,-23,-55
5515.265,309,306,301,305,844,3260,15740,150,-23,-55
5521.945,306,306,301,306,792,3244,15708,163,-50,-9
5526.5560000000005,303,306,301,305,792,3244,15708,163,-50,-9
5529.7210000000005,301,306,301,305,792,3244,15708,163,-50,-9
5538.402999999999,299,306,301,305,792,3244,15708,163,-50,-9
5538.402999999999,296,306,301,305,792,3244,15708,163,-50,-9
5548.938999999999,295,306,301,305,792,3244,15708,163,-50,-9
5548.938999999999,293,306,301,305,792,3244,15708,163,-50,-9
5560.213,292,306,301,306,792,3244,15708,163,-50,-9
5560.213,290,306,300,305,844,3264,15692,93,10,-27
5571.682,290,305,299,305,844,3264,15692,93,10,-27
5571.682,289,305,299,305,844,3264,15692,93,10,-27
5578.226,289,306,299,306,844,3264,15692,93,10,-27
5583.179,289,306,300,305,844,3264,15692,93,10,-27
5593.463,290,306,300,305,844,3264,15692,93,10,-27
5593.463,291,305,299,305,844,3264,15692,93,10,-27
5599.4039999999995,291,305,300,305,840,3256,15700,9,-14,38
5608.574,291,306,300,305,840,3256,15700,9,-14,38
5608.574,291,306,301,305,840,3256,15700,9,-14,38
5616.275,291,306,301,306,840,3256,15700,9,-14,38
5616.275,291,306,301,306,840,3256,15700,9,-14,38
5626.533,292,306,301,306,840,3256,15700,9,-14,38
5634.578,292,305,300,306,840,3256,15700,9,-14,38
5636.901,292,305,301,306,840,3256,15700,9,-14,38
5639.722,292,306,301,306,880,3360,15692,190,-43,-23
5649.421,292,305,301,306,880,3360,15692,190,-43,-23
5649.421,291,305,301,306,880,3360,15692,190,-43,-23
5660.322,290,306,301,306,880,3360,15692,190,-43,-23
5660.322,290,305,302,306,880,3360,15692,190,-43,-23
5671.132,290,305,302,306,880,3360,15692,190,-43,-23
5679.23,290,305,302,306,880,3360,15692,190,-43,-23
5681.898999999999,290,304,302,306,880,3360,15692,190,-43,-23
5681.898999999999,289,304,301,306,844,3340,15684,-76,-9,-39
5693.264,289,305,300,305,844,3340,15684,-76,-9,-39
5698.012000000001,289,304,301,306,844,3340,15684,-76,-9,-39
5704.139999999999,289,305,301,306,844,3340,15684,-76,-9,-39
5707.641,289,305,300,305,844,3340,15684,-76,-9,-39
5716.389,288,305,300,305,844,3340,15684,-76,-9,-39
5716.389,288,304,301,306,844,3340,15684,-76,-9,-39
5724.9619999999995,289,305,301,306,812,3288,15684,22,25,-60
5727.3949999999995,289,305,301,305,812,3288,15684,22,25,-60
5735.553000000001,288,304,301,306,812,3288,15684,22,25,-60
5737.678,288,305,301,306,812,3288,15684,22,25,-60
5748.588,288,304,301,306,812,3288,15684,22,25,-60
5748.588,288,304,300,305,812,3288,15684,22,25,-60
5754.43,287,304,301,306,812,3288,15684,22,25,-60
5759.857,287,303,300,306,812,3288,15684,22,25,-60
5769.495,287,303,299,306,828,3312,15728,-130,20,-55
5771.534,286,303,300,306,828,3312,15728,-130,20,-55
5780.923,285,304,301,306,828,3312,15728,-130,20,-55
5783.052,285,304,301,306,828,3312,15728,-130,20,-55
5787.109,285,304,301,306,828,3312,15728,-130,20,-55
5792.991,285,304,301,306,828,3312,15728,-130,20,-55
5800.201,285,303,300,306,828,3312,15728,-130,20,-55
5804.347,286,303,300,306,860,3376,15800,-12,-2,-31
5808.309,286,303,300,306,860,3376,15800,-12,-2,-31
5816.2609999999995,287,303,300,306,860,3376,15800,-12,-2,-31
5820.357,286,303,300,306,860,3376,15800,-12,-2,-31
5826.468,286,303,299,305,860,3376,15800,-12,-2,-31
5828.632,288,302,300,305,860,3376,15800,-12,-2,-31
5838.208,288,302,300,306,860,3376,15800,-12,-2,-31
5838.208,289,302,300,306,776,3376,16068,-161,-65,-111
5849.267,291,302,301,305,776,3376,16068,-161,-65,-111
5849.267,295,302,300,306,776,3376,16068,-161,-65,-111
5860.157,298,303,302,306,776,3376,16068,-161,-65,-111
5868.214,301,303,302,305,776,3376,16068,-161,-65,-111
5870.827,304,304,303,305,776,3376,16068,-161,-65,-111
5877.454,309,304,304,305,776,3376,16068,-161,-65,-111
5883.094,315,304,304,306,896,3504,15468,2,-355,-27
5891.775,319,304,304,305,896,3504,15468,2,-355,-27
5894.19,324,304,304,305,896,3504,15468,2,-355,-27
5897.825,327,305,304,305,896,3504,15468,2,-355,-27
5908.195,331,304,304,305,896,3504,15468,2,-355,-27
5909.726,335,304,304,304,896,3504,15468,2,-355,-27
5915.343,337,305,304,304,896,3504,15468,2,-355,-27
5918.402,340,305,304,305,896,3504,15468,2,-355,-27
5926.634,343,305,304,304,956,3428,15500,-5,-190,-68
5926.634,345,304,304,304,956,3428,15500,-5,-190,-68
5937.509,346,304,304,305,956,3428,15500,-5,-190,-68
5945.536,347,304,304,304,956,3428,15500,-5,-190,-68
5948.965,348,304,303,304,956,3428,15500,-5,-190,-68
5957.927,348,304,303,304,956,3428,15500,-5,-190,-68
5960.062,348,304,302,304,956,3428,15500,-5,-190,-68
5963.721,349,304,302,304,884,3340,15632,-253,115,-135
5970.806,349,304,301,303,884,3340,15632,-253,115,-135
5976.36,350,304,301,304,884,3340,15632,-253,115,-135
5981.866,349,304,300,304,884,3340,15632,-253,115,-135
5984.26,347,303,300,303,884,3340,15632,-253,115,-135
5993.907,342,303,299,303,884,3340,15632,-253,115,-135
6002.628,336,302,299,303,884,3340,15632,-253,115,-135
6004.540999999999,328,302,299,302,700,3684,16012,50,225,-21
6009.863,320,301,299,298,700,3684,16012,50,225,-21
6014.824,313,300,299,296,700,3684,16012,50,225,-21
6022.71,301,299,297,297,700,3684,16012,50,225,-21
6028.028,290,297,298,297,700,3684,16012,50,225,-21
6029.067999999999,280,297,298,297,700,3684,16012,50,225,-21
6038.344999999999,272,295,298,298,700,3684,16012,50,225,-21
6038.344999999999,266,294,297,298,1220,2740,16784,-671,625,-287
6048.902,261,292,294,297,1220,2740,16784,-671,625,-287
6048.902,260,291,293,297,1220,2740,16784,-671,625,-287
6060.9619999999995,263,290,291,298,1220,2740,16784,-671,625,-287
6069.416,267,289,288,298,1220,2740,16784,-671,625,-287
6071.187,271,289,285,299,1220,2740,16784,-671,625,-287
6078.55,272,289,281,302,1220,2740,16784,-671,625,-287
6082.362,271,288,280,303,1960,5604,20188,-147,2227,-1043
6093.281,268,286,277,306,1960,5604,20188,-147,2227,-1043
6094.613,263,274,275,312,1960,5604,20188,-147,2227,-1043
6105.1539999999995,259,256,274,317,1960,5604,20188,-147,2227,-1043
6113.6939999999995,253,236,272,322,1960,5604,20188,-147,2227,-1043
6115.629,247,215,273,329,1960,5604,20188,-147,2227,-1043
6115.629,239,198,273,333,1960,5604,20188,-147,2227,-1043
6126.704,230,188,274,336,2324,4744,23764,2494,9966,-4174
6134.808,221,178,276,339,2324,4744,23764,2494,9966,-4174
6136.8910000000005,216,172,278,339,2324,4744,23764,2494,9966,-4174
6149.521,216,168,280,338,2324,4744,23764,2494,9966,-4174
6149.521,223,169,284,339,2324,4744,23764,2494,9966,-4174
6160.232,239,184,282,340,2324,4744,23764,2494,9966,-4174
6160.232,264,211,280,340,1184,7300,22620,3571,15486,-6202
6170.896,301,269,275,344,1184,7300,22620,3571,15486,-6202
6178.956999999999,340,322,280,349,1184,7300,22620,3571,15486,-6202
6181.469,375,380,285,356,1184,7300,22620,3571,15486,-6202
6188.955,401,428,283,362,1184,7300,22620,3571,15486,-6202
6193.6179999999995,417,464,285,370,1184,7300,22620,3571,15486,-6202
6201.482999999999,421,493,307,388,1184,7300,22620,3571,15486,-6202
6209.352,416,531,316,405,136,5028,20212,2646,17883,-7444
6215.758,402,558,294,428,136,5028,20212,2646,17883,-7444
6223.868,390,560,270,442,136,5028,20212,2646,17883,-7444
6227.649,380,553,266,454,136,5028,20212,2646,17883,-7444
6236.563,370,536,287,465,136,5028,20212,2646,17883,-7444
6240.942,361,514,308,473,136,5028,20212,2646,17883,-7444
6248.12,358,481,312,477,-968,6248,17092,3560,19745,-7938
6253.092,348,442,310,479,-968,6248,17092,3560,19745,-7938
6260.262,333,401,312,481,-968,6248,17092,3560,19745,-7938
6260.262,312,361,313,482,-968,6248,17092,3560,19745,-7938
6271.7029999999995,281,323,311,482,-968,6248,17092,3560,19745,-7938
6271.7029999999995,248,299,311,487,-968,6248,17092,3560,19745,-7938
6282.159,215,278,312,497,-968,6248,17092,3560,19745,-7938
6287.683999999999,187,258,310,506,-3036,4860,12808,737,20747,-8872
6293.071,160,231,296,521,-3036,4860,12808,737,20747,-8872
6304.44,149,200,278,536,-3036,4860,12808,737,20747,-8872
6309.612,149,163,253,551,-3036,4860,12808,737,20747,-8872
6316.719,156,126,225,566,-3036,4860,12808,737,20747,-8872
6316.719,167,86,190,581,-3036,4860,12808,737,20747,-8872
6326.781999999999,174,58,165,592,-5720,3252,11496,1201,20665,-9005
6335.129,172,32,141,602,-5720,3252,11496,1201,20665,-9005
6337.294,163,18,129,607,-5720,3252,11496,1201,20665,-9005
6344.598,154,5,120,611,-5720,3252,11496,1201,20665,-9005
6348.88,148,0,115,615,-5720,3252,11496,1201,20665,-9005
6357.915,142,0,115,619,-5720,3252,11496,1201,20665,-9005
6360.119,121,0,125,618,-6456,1268,9360,77,19137,-7998
6371.092,94,0,143,617,-6456,1268,9360,77,19137,-7998
6371.092,77,0,156,614,-6456,1268,9360,77,19137,-7998
6382.111,71,0,163,609,-6456,1268,9360,77,19137,-7998
6385.789,71,0,166,602,-6456,1268,9360,77,19137,-7998
6385.789,77,0,166,593,-6456,1268,9360,77,19137,-7998
6393.570000000001,92,0,171,588,-6456,1268,9360,77,19137,-7998
6404.424,102,0,173,580,-6456,1268,9360,77,19137,-7998
6409.951,114,0,175,568,-8860,1096,6888,-1461,14459,-6242
6415.241,131,0,176,552,-8860,1096,6888,-1461,14459,-6242
6424.599999999999,145,0,174,539,-8860,1096,6888,-1461,14459,-6242
6427.181,162,0,170,522,-8860,1096,6888,-1461,14459,-6242
6430.719,179,0,159,504,-8860,1096,6888,-1461,14459,-6242
6438.201,194,4,148,488,-8860,1096,6888,-1461,14459,-6242
6448.553000000001,210,10,139,475,-9932,288,9016,-2637,12770,-5545
6450.999000000001,225,17,128,463,-9932,288,9016,-2637,12770,-5545
6461.087,244,26,120,451,-9932,288,9016,-2637,12770,-5545
6461.087,260,36,111,439,-9932,288,9016,-2637,12770,-5545
6471.161999999999,275,46,103,431,-9932,288,9016,-2637,12770,-5545
6471.161999999999,288,55,93,421,-9932,288,9016,-2637,12770,-5545
6481.915,301,69,85,412,-9932,288,9016,-2637,12770,-5545
6488.281,317,84,76,402,-11484,-2044,4996,-581,9608,-6061
6493.011,333,105,67,388,-11484,-2044,4996,-581,9608,-6061
6500.647,350,124,56,374,-11484,-2044,4996,-581,9608,-6061
6510.421,369,145,49,360,-11484,-2044,4996,-581,9608,-6061
6512.068,384,164,49,346,-11484,-2044,4996,-581,9608,-6061
6516.579,392,185,54,329,-11484,-2044,4996,-581,9608,-6061
6526.866,397,203,61,315,-12452,1664,7240,870,6124,-5369
6534.906,400,220,71,301,-12452,1664,7240,870,6124,-5369
6537.603,402,236,82,287,-12452,1664,7240,870,6124,-5369
6546.34,402,250,92,272,-12452,1664,7240,870,6124,-5369
6552.231,400,265,101,257,-12452,1664,7240,870,6124,-5369
6558.049,400,280,109,242,-12452,1664,7240,870,6124,-5369
6560.451999999999,400,297,121,229,-12452,1664,7240,870,6124,-5369
6571.476,399,314,135,216,-13620,-152,7392,1673,5701,-4964
6571.476,394,331,150,201,-13620,-152,7392,1673,5701,-4964
6582.494,389,345,158,187,-13620,-152,7392,1673,5701,-4964
6582.494,387,361,177,178,-13620,-152,7392,1673,5701,-4964
6591.418,383,375,193,167,-13620,-152,7392,1673,5701,-4964
6597.625,380,388,209,156,-13620,-152,7392,1673,5701,-4964
6604.362,376,404,228,144,-14780,920,6752,1999,4291,-3581
6611.251,376,417,243,135,-14780,920,6752,1999,4291,-3581
6616.353,377,428,259,128,-14780,920,6752,1999,4291,-3581
6622.650000000001,374,439,275,119,-14780,920,6752,1999,4291,-3581
6627.049,375,449,288,111,-14780,920,6752,1999,4291,-3581
6637.82,377,458,303,105,-14780,920,6752,1999,4291,-3581
6645.896,380,466,317,100,-14780,920,6752,1999,4291,-3581
6648.678999999999,382,473,331,92,-14108,1552,8032,-3142,2249,-1606
6657.969999999999,383,479,342,87,-14108,1552,8032,-3142,2249,-1606
6660.119,383,485,355,84,-14108,1552,8032,-3142,2249,-1606
6669.025000000001,381,491,365,79,-14108,1552,8032,-3142,2249,-1606
6671.179999999999,377,496,378,73,-14108,1552,8032,-3142,2249,-1606
6682.234,373,500,385,68,-14108,1552,8032,-3142,2249,-1606
6684.216,371,501,397,65,-13808,-608,7080,-4259,1510,-1763
6694.4929999999995,368,501,405,62,-13808,-608,7080,-4259,1510,-1763
6702.66,364,501,412,60,-13808,-608,7080,-4259,1510,-1763
6705.168,359,499,420,59,-13808,-608,7080,-4259,1510,-1763
6713.847000000001,364,499,421,56,-13808,-608,7080,-4259,1510,-1763
6715.865,369,501,430,57,-13808,-608,7080,-4259,1510,-1763
6726.576,373,502,436,55,-13852,1004,8532,-3851,1709,-2311
6729.758000000001,376,504,441,55,-13852,1004,8532,-3851,1709,-2311
6738.863,378,505,444,54,-13852,1004,8532,-3851,1709,-2311
6738.863,378,506,446,52,-13852,1004,8532,-3851,1709,-2311
6748.911999999999,379,509,451,52,-13852,1004,8532,-3851,1709,-2311
6756.927,377,510,453,52,-13852,1004,8532,-3851,1709,-2311
6759.446,376,511,454,52,-13852,1004,8532,-3851,1709,-2311
6766.371,375,513,459,54,-14072,536,7792,-936,1175,-2370
6771.513,372,513,463,56,-14072,536,7792,-936,1175,-2370
6779.347,368,513,464,57,-14072,536,7792,-936,1175,-2370
6782.072,365,514,466,58,-14072,536,7792,-936,1175,-2370
6793.421,360,514,468,61,-14072,536,7792,-936,1175,-2370
6801.501,356,514,470,63,-14072,536,7792,-936,1175,-2370
6804.630999999999,350,513,472,66,-14072,536,7792,-936,1175,-2370
6813.898,343,513,472,67,-13868,-20,8516,-669,1377,-1751
6816.575000000001,337,512,474,71,-13868,-20,8516,-669,1377,-1751
6824.919000000001,333,512,476,73,-13868,-20,8516,-669,1377,-1751
6827.673,328,511,476,76,-13868,-20,8516,-669,1377,-1751
6838.293000000001,324,509,474,78,-13868,-20,8516,-669,1377,-1751
6838.293000000001,320,507,472,81,-13868,-20,8516,-669,1377,-1751
6844.4529999999995,317,506,470,83,-13876,-548,8332,-1637,1031,-1528
6849.341,313,503,469,88,-13876,-548,8332,-1637,1031,-1528
6860.145,309,500,465,91,-13876,-548,8332,-1637,1031,-1528
6865.041,305,497,460,92,-13876,-548,8332,-1637,1031,-1528
6870.927,302,495,459,96,-13876,-548,8332,-1637,1031,-1528
6877.439,298,491,457,102,-13876,-548,8332,-1637,1031,-1528
6882.244,294,488,456,104,-13876,-548,8332,-1637,1031,-1528
6889.58,289,484,450,104,-14316,-1196,7828,-1939,568,-1656
6893.868,285,482,448,110,-14316,-1196,7828,-1939,568,-1656
6904.6320000000005,280,479,445,114,-14316,-1196,7828,-1939,568,-1656
6911.039,277,475,441,116,-14316,-1196,7828,-1939,568,-1656
6915.503000000001,274,470,439,121,-14316,-1196,7828,-1939,568,-1656
6924.5869999999995,272,467,436,124,-14316,-1196,7828,-1939,568,-1656
6925.892,268,463,431,127,-14336,-668,8040,573,582,-1373
6934.224999999999,266,459,426,130,-14336,-668,8040,573,582,-1373
6938.461,265,455,420,131,-14336,-668,8040,573,582,-1373
6948.969,264,452,424,136,-14336,-668,8040,573,582,-1373
6948.969,263,449,423,140,-14336,-668,8040,573,582,-1373
6960.102,262,446,423,144,-14336,-668,8040,573,582,-1373
6963.037,259,443,423,148,-14408,-1368,6844,646,461,-844
6971.161999999999,257,439,423,152,-14408,-1368,6844,646,461,-844
6974.973,253,436,421,157,-14408,-1368,6844,646,461,-844
6982.124,249,432,415,158,-14408,-1368,6844,646,461,-844
6988.353,248,428,414,163,-14408,-1368,6844,646,461,-844
6993.291,244,422,412,164,-14408,-1368,6844,646,461,-844
6999.745,243,417,410,168,-14408,-1368,6844,646,461,-844
7005.28,244,412,411,173,-14356,-1052,7940,929,869,-1730
7013.143,244,407,407,174,-14356,-1052,7940,929,869,-1730
7015.313,245,402,404,178,-14356,-1052,7940,929,869,-1730
7026.63,247,398,399,179,-14356,-1052,7940,929,869,-1730
7034.714,249,396,400,184,-14356,-1052,7940,929,869,-1730
7037.893,250,390,393,185,-14356,-1052,7940,929,869,-1730
7046.829,253,387,396,189,-14356,-1052,7940,929,869,-1730
7048.978,255,383,391,190,-14364,104,8336,1813,427,-1590
7059.357,259,381,392,195,-14364,104,8336,1813,427,-1590
7059.357,261,380,390,199,-14364,104,8336,1813,427,-1590
7071.696,262,376,385,199,-14364,104,8336,1813,427,-1590
7073.553000000001,265,373,382,202,-14364,104,8336,1813,427,-1590
7083.591,265,370,379,204,-14364,104,8336,1813,427,-1590
7083.591,265,365,372,206,-14376,-880,8200,-390,145,-363
7093.073,266,362,371,208,-14376,-880,8200,-390,145,-363
7093.683,265,361,374,213,-14376,-880,8200,-390,145,-363
7104.609,264,359,370,215,-14376,-880,8200,-390,145,-363
7112.7570000000005,263,355,365,216,-14376,-880,8200,-390,145,-363
7115.624000000001,260,351,364,218,-14376,-880,8200,-390,145,-363
7118.846,259,351,363,222,-14376,-880,8200,-390,145,-363
7127.013,260,352,364,226,-14412,-1516,7976,-1933,91,236
7137.798,262,351,362,229,-14412,-1516,7976,-1933,91,236
7138.229,261,348,362,231,-14412,-1516,7976,-1933,91,236
7148.927,261,347,356,231,-14412,-1516,7976,-1933,91,236
7148.927,262,346,359,237,-14412,-1516,7976,-1933,91,236
7160.192,265,345,360,242,-14412,-1516,7976,-1933,91,236
7163.891,266,341,355,243,-14412,-1516,7976,-1933,91,236
7171.253,268,341,354,246,-14416,-1696,8488,-1920,-405,-36
7176.198,270,338,349,250,-14416,-1696,8488,-1920,-405,-36
7181.773,274,337,349,253,-14416,-1696,8488,-1920,-405,-36
7187.984,276,335,349,257,-14416,-1696,8488,-1920,-405,-36
7193.547,278,332,346,261,-14416,-1696,8488,-1920,-405,-36
7201.039,282,332,344,264,-14416,-1696,8488,-1920,-405,-36
7204.487999999999,284,330,342,267,-14428,-708,7704,-510,-642,113
7215.542,285,328,335,266,-14428,-708,7704,-510,-642,113
7223.638,289,327,334,270,-14428,-708,7704,-510,-642,113
7226.549999999999,291,323,329,273,-14428,-708,7704,-510,-642,113
7235.747,293,321,330,277,-14428,-708,7704,-510,-642,113
7237.928,297,321,330,281,-14428,-708,7704,-510,-642,113
7246.984,298,320,326,281,-14428,-708,7704,-510,-642,113
7249.313,301,318,329,284,-14144,-548,8936,-334,-519,357
7254.347,301,315,325,286,-14144,-548,8936,-334,-519,357
7260.631,305,315,321,287,-14144,-548,8936,-334,-519,357
7267.032,308,315,320,287,-14144,-548,8936,-334,-519,357
7271.171,310,314,319,289,-14144,-548,8936,-334,-519,357
7278.817,312,315,321,291,-14144,-548,8936,-334,-519,357
7282.305,316,316,319,292,-14084,244,8124,-277,-852,202
7293.485000000001,317,313,314,290,-14084,244,8124,-277,-852,202
7301.789000000001,318,312,314,292,-14084,244,8124,-277,-852,202
7304.035,322,314,317,296,-14084,244,8124,-277,-852,202
7313.731,323,314,315,294,-14084,244,8124,-277,-852,202
7313.731,324,315,317,297,-14084,244,8124,-277,-852,202
7319.064,325,314,316,298,-14084,244,8124,-277,-852,202
7326.771,325,313,315,298,-14204,-340,8612,-654,-107,-127
7334.851,325,315,315,297,-14204,-340,8612,-654,-107,-127
7337.428,325,315,316,297,-14204,-340,8612,-654,-107,-127
7346.876,326,314,317,298,-14204,-340,8612,-654,-107,-127
7348.581,326,314,317,298,-14204,-340,8612,-654,-107,-127
7356.732,327,316,319,298,-14204,-340,8612,-654,-107,-127
7359.945,325,314,317,293,-14204,-340,8612,-654,-107,-127
7371.418000000001,325,315,322,297,-14140,-624,7928,-126,138,-404
7379.669,324,315,323,297,-14140,-624,7928,-126,138,-404
7382.498,323,315,325,297,-14140,-624,7928,-126,138,-404
7391.286,323,316,328,300,-14140,-624,7928,-126,138,-404
7393.4980000000005,321,317,324,297,-14140,-624,7928,-126,138,-404
7397.281000000001,320,318,325,298,-14140,-624,7928,-126,138,-404
7404.861999999999,317,317,323,297,-14288,-1076,7744,-338,316,-2
7415.218000000001,315,318,324,298,-14288,-1076,7744,-338,316,-2
7417.411999999999,314,319,326,299,-14288,-1076,7744,-338,316,-2
7425.413,312,320,324,299,-14288,-1076,7744,-338,316,-2
7427.635,311,323,323,299,-14288,-1076,7744,-338,316,-2
7434.392,309,323,320,299,-14288,-1076,7744,-338,316,-2
7437.785,307,320,319,299,-14288,-1076,7744,-338,316,-2
7448.972000000001,304,319,320,300,-14444,-1516,7552,-277,202,402
7457.019,300,319,318,300,-14444,-1516,7552,-277,202,402
7459.974,297,317,314,299,-14444,-1516,7552,-277,202,402
7464.036,294,316,314,298,-14444,-1516,7552,-277,202,402
7471.84,293,316,316,300,-14444,-1516,7552,-277,202,402
7476.022999999999,289,313,316,302,-14444,-1516,7552,-277,202,402
7483.321,287,310,315,301,-14444,-1516,7552,-277,202,402
7493.474,285,311,316,301,-14376,-2000,7520,-721,-130,927
7493.474,283,312,318,302,-14376,-2000,7520,-721,-130,927
7504.552000000001,280,311,318,302,-14376,-2000,7520,-721,-130,927
7504.552000000001,278,310,318,302,-14376,-2000,7520,-721,-130,927
7516.596,277,308,318,301,-14376,-2000,7520,-721,-130,927
7520.231,276,307,319,303,-14376,-2000,7520,-721,-130,927
7526.253,276,304,320,304,-14368,-1908,6808,-374,-810,1217
7532.235,273,301,320,305,-14368,-1908,6808,-374,-810,1217
7537.5740000000005,271,299,320,305,-14368,-1908,6808,-374,-810,1217
7544.407999999999,272,296,321,305,-14368,-1908,6808,-374,-810,1217
7549.041,271,294,321,307,-14368,-1908,6808,-374,-810,1217
7559.9439999999995,270,293,322,309,-14368,-1908,6808,-374,-810,1217
7559.9439999999995,270,292,323,311,-14368,-1908,6808,-374,-810,1217
7571.152,268,289,323,312,-14280,-1068,7740,96,-928,1422
7580.250999999999,268,288,322,312,-14280,-1068,7740,96,-928,1422
7584.369,270,289,323,313,-14280,-1068,7740,96,-928,1422
7591.338000000001,273,289,323,314,-14280,-1068,7740,96,-928,1422
7596.566,276,288,323,314,-14280,-1068,7740,96,-928,1422
7603.752,282,287,321,314,-14280,-1068,7740,96,-928,1422
7607.154,286,287,321,316,-14116,-168,7952,694,-1325,785
7613.569,292,288,322,319,-14116,-168,7952,694,-1325,785
7615.26,295,287,320,319,-14116,-168,7952,694,-1325,785
7622.301,300,287,319,321,-14116,-168,7952,694,-1325,785
7627.7660000000005,304,286,318,321,-14116,-168,7952,694,-1325,785
7635.094,308,287,317,323,-14116,-168,7952,694,-1325,785
7645.999,313,286,316,324,-14116,-168,7952,694,-1325,785
7648.734,316,284,314,325,-14048,228,9036,726,-820,461
7657.762,318,285,313,326,-14048,228,9036,726,-820,461
7660.092,320,286,314,328,-14048,228,9036,726,-820,461
7663.528,323,288,313,328,-14048,228,9036,726,-820,461
7672.273999999999,325,288,312,329,-14048,228,9036,726,-820,461
7672.273999999999,327,289,312,330,-14048,228,9036,726,-820,461
7682.777,328,289,312,331,-14048,228,9036,726,-820,461
7688.798000000001,329,289,307,327,-13872,28,9316,48,-427,7
7693.474,330,291,310,330,-13872,28,9316,48,-427,7
7702.723,332,291,311,331,-13872,28,9316,48,-427,7
7705.585,332,292,309,331,-13872,28,9316,48,-427,7
7705.585,332,292,309,331,-13872,28,9316,48,-427,7
7715.620999999999,331,293,310,332,-13872,28,9316,48,-427,7
7723.641,330,293,308,331,-13872,28,9316,48,-427,7
7726.697,330,295,308,333,-13872,28,9316,48,-427,7
7726.697,328,294,308,333,-14000,-148,9396,-20,-31,-88
7738.534,327,294,306,333,-14000,-148,9396,-20,-31,-88
7741.192,326,293,306,333,-14000,-148,9396,-20,-31,-88
7749.3150000000005,324,294,305,331,-14000,-148,9396,-20,-31,-88
7753.002,324,295,305,332,-14000,-148,9396,-20,-31,-88
7759.881,323,294,305,333,-14000,-148,9396,-20,-31,-88
7759.881,322,292,304,331,-14000,-148,9396,-20,-31,-88
7771.0869999999995,319,290,303,330,-14008,-620,8928,-103,142,-147
7780.102,319,293,304,331,-14008,-620,8928,-103,142,-147
7782.432,319,293,303,331,-14008,-620,8928,-103,142,-147
7786.928,318,293,302,330,-14008,-620,8928,-103,142,-147
7793.586,316,293,304,331,-14008,-620,8928,-103,142,-147
7804.303,315,293,303,331,-14008,-620,8928,-103,142,-147
7804.303,314,293,302,329,-14096,-744,8476,-331,165,80
7812.665,313,293,302,331,-14096,-744,8476,-331,165,80
7815.584000000001,311,292,301,330,-14096,-744,8476,-331,165,80
7824.424,310,292,301,329,-14096,-744,8476,-331,165,80
7826.6939999999995,308,293,301,329,-14096,-744,8476,-331,165,80
7837.705,306,293,301,330,-14096,-744,8476,-331,165,80
7845.798000000001,306,294,301,328,-14096,-744,8476,-331,165,80
7849.214,306,295,302,329,-14152,-884,8216,-719,198,209
7851.549999999999,303,294,302,328,-14152,-884,8216,-719,198,209
7860.643999999999,302,294,301,328,-14152,-884,8216,-719,198,209
7860.643999999999,302,295,301,327,-14152,-884,8216,-719,198,209
7871.495000000001,302,296,301,326,-14152,-884,8216,-719,198,209
7877.08,301,296,300,326,-14152,-884,8216,-719,198,209
7882.012,302,297,300,326,-14152,-884,8216,-719,198,209
7889.016,302,297,300,325,-14036,-520,8604,-344,175,45
7893.551,302,297,299,325,-14036,-520,8604,-344,175,45
7897.289,303,298,298,325,-14036,-520,8604,-344,175,45
7905.261,302,296,296,323,-14036,-520,8604,-344,175,45
7915.701999999999,301,295,295,323,-14036,-520,8604,-344,175,45
7915.701999999999,301,296,295,324,-14036,-520,8604,-344,175,45
7922.799,303,298,295,324,-14036,-520,8604,-344,175,45
7927.062,303,299,294,323,-14100,-444,8244,-112,-41,-161
7934.249000000001,303,298,293,322,-14100,-444,8244,-112,-41,-161
7938.209,304,299,294,322,-14100,-444,8244,-112,-41,-161
7948.955,304,300,294,323,-14100,-444,8244,-112,-41,-161
7956.957,303,300,294,323,-14100,-444,8244,-112,-41,-161
7960.035000000001,302,299,294,323,-14100,-444,8244,-112,-41,-161
7962.254,301,298,293,322,-14100,-444,8244,-112,-41,-161
7971.984,300,299,293,322,-14076,-504,8516,-442,-221,-54
7980.192,300,299,294,322,-14076,-504,8516,-442,-221,-54
7982.101000000001,300,298,294,322,-14076,-504,8516,-442,-221,-54
7992.622,300,297,293,321,-14076,-504,8516,-442,-221,-54
7992.622,300,297,294,322,-14076,-504,8516,-442,-221,-54
8004.562999999999,301,297,294,321,-14076,-504,8516,-442,-221,-54
8007.13,301,298,295,322,-14144,-648,8340,-306,-188,-43
8013.709000000001,301,297,295,322,-14144,-648,8340,-306,-188,-43
8015.481,302,297,295,322,-14144,-648,8340,-306,-188,-43
8026.6140000000005,302,297,295,321,-14144,-648,8340,-306,-188,-43
8034.9529999999995,303,297,295,322,-14144,-648,8340,-306,-188,-43
8037.831000000001,302,298,295,322,-14144,-648,8340,-306,-188,-43
8040.284,302,298,295,322,-14144,-648,8340,-306,-188,-43
8049.395,302,298,295,320,-13948,-684,8600,55,-4,-84
8052.227999999999,302,298,295,321,-13948,-684,8600,55,-4,-84
8060.044,302,298,296,322,-13948,-684,8600,55,-4,-84
8064.928999999999,303,298,297,322,-13948,-684,8600,55,-4,-84
8070.888999999999,302,297,297,323,-13948,-684,8600,55,-4,-84
8076.744,302,297,297,322,-13948,-684,8600,55,-4,-84
8082.056,301,296,296,321,-13948,-684,8600,55,-4,-84
8086.522999999999,303,297,297,322,-14048,-388,9072,-2,279,-139
8093.891,303,296,296,323,-14048,-388,9072,-2,279,-139
8093.891,304,296,297,323,-14048,-388,9072,-2,279,-139
8108.191,304,296,296,322,-14048,-388,9072,-2,279,-139
8110.0960000000005,304,295,296,322,-14048,-388,9072,-2,279,-139
8115.161999999999,305,295,296,323,-14048,-388,9072,-2,279,-139
8122.589,305,295,295,323,-14048,-388,9072,-2,279,-139
8127.200999999999,306,295,295,323,-13976,-608,8604,-51,584,-111
8134.679,306,295,295,324,-13976,-608,8604,-51,584,-111
8137.629000000001,305,294,294,322,-13976,-608,8604,-51,584,-111
8148.971,306,295,295,323,-13976,-608,8604,-51,584,-111
8150.959999999999,305,294,295,324,-13976,-608,8604,-51,584,-111
8160.774,304,293,295,324,-13976,-608,8604,-51,584,-111
8160.774,303,292,295,324,-13976,-608,8604,-51,584,-111
8171.111,302,292,294,324,-14112,-1024,8376,203,876,-195
8171.111,301,292,294,324,-14112,-1024,8376,203,876,-195
8181.819,299,292,294,324,-14112,-1024,8376,203,876,-195
8187.284999999999,300,293,294,325,-14112,-1024,8376,203,876,-195
8193.353000000001,299,292,294,325,-14112,-1024,8376,203,876,-195
8202.689,301,292,293,324,-14112,-1024,8376,203,876,-195
8204.732999999998,300,293,293,324,-14112,-1024,8376,203,876,-195
8213.823,301,293,294,324,-14228,-296,8568,1761,1417,-233
8215.673999999999,300,294,293,324,-14228,-296,8568,1761,1417,-233
8226.305,301,294,292,322,-14228,-296,8568,1761,1417,-233
8226.305,301,294,293,323,-14228,-296,8568,1761,1417,-233
8237.574,301,294,292,323,-14228,-296,8568,1761,1417,-233
8237.574,300,294,293,324,-14228,-296,8568,1761,1417,-233
8248.969000000001,299,293,292,324,-14368,-980,7664,1432,1538,-274
8254.89,300,293,292,324,-14368,-980,7664,1432,1538,-274
8259.651,300,293,292,323,-14368,-980,7664,1432,1538,-274
8265.429,298,293,292,323,-14368,-980,7664,1432,1538,-274
8270.694000000001,298,293,292,324,-14368,-980,7664,1432,1538,-274
8277.847,298,293,292,323,-14368,-980,7664,1432,1538,-274
8282.515,301,293,292,324,-14368,-980,7664,1432,1538,-274
8290.418000000001,301,293,292,323,-14412,104,8276,2443,1567,-473
8293.348999999998,302,294,292,323,-14412,104,8276,2443,1567,-473
8304.432,303,296,293,323,-14412,104,8276,2443,1567,-473
8306.276,304,294,294,324,-14412,104,8276,2443,1567,-473
8315.645999999999,304,294,293,323,-14412,104,8276,2443,1567,-473
8324.897,305,295,294,323,-14412,104,8276,2443,1567,-473
8326.815,306,294,294,324,-14412,104,8276,2443,1567,-473
8337.583,306,295,294,324,-14068,-2676,8420,-667,632,-120
8337.583,307,294,295,324,-14068,-2676,8420,-667,632,-120
8349.807999999999,307,293,295,325,-14068,-2676,8420,-667,632,-120
8349.807999999999,307,293,295,325,-14068,-2676,8420,-667,632,-120
8360.326000000001,308,293,294,325,-14068,-2676,8420,-667,632,-120
8360.326000000001,308,294,294,324,-14068,-2676,8420,-667,632,-120
8371.130000000001,308,295,294,325,-14156,-1016,7752,-1663,-295,-48
8376.918,308,295,295,325,-14156,-1016,7752,-1663,-295,-48
8382.099,310,295,295,324,-14156,-1016,7752,-1663,-295,-48
8388.343,310,295,295,325,-14156,-1016,7752,-1663,-295,-48
8393.37,309,296,295,325,-14156,-1016,7752,-1663,-295,-48
8400.486,308,296,295,325,-14156,-1016,7752,-1663,-295,-48
8404.742,308,296,294,325,-14156,-1016,7752,-1663,-295,-48
8415.74,309,296,293,326,-14504,-816,7616,-2516,-843,432
8423.938,310,296,292,325,-14504,-816,7616,-2516,-843,432
8426.985,310,296,292,326,-14504,-816,7616,-2516,-843,432
8429.323999999999,309,296,290,325,-14504,-816,7616,-2516,-843,432
8438.147,308,295,290,325,-14504,-816,7616,-2516,-843,432
8449.289,310,296,290,326,-14504,-816,7616,-2516,-843,432
8452.362000000001,310,296,290,326,-14280,-316,8264,-1943,-1277,525
8460.685,310,296,291,326,-14280,-316,8264,-1943,-1277,525
8464.778,311,297,291,326,-14280,-316,8264,-1943,-1277,525
8472.398,311,296,291,326,-14280,-316,8264,-1943,-1277,525
8480.245,310,296,291,326,-14280,-316,8264,-1943,-1277,525
8482.702,311,297,290,326,-14280,-316,8264,-1943,-1277,525
8492.639000000001,311,298,290,326,-14280,-764,8168,-1286,-994,444
8497.089,311,297,291,327,-14280,-764,8168,-1286,-994,444
8504.690999999999,309,297,290,326,-14280,-764,8168,-1286,-994,444
8504.690999999999,310,297,290,325,-14280,-764,8168,-1286,-994,444
8515.712000000001,310,295,291,326,-14280,-764,8168,-1286,-994,444
8519.406,310,296,290,327,-14280,-764,8168,-1286,-994,444
8526.746,311,297,291,326,-14280,-764,8168,-1286,-994,444
8531.337000000001,311,296,291,326,-14196,-448,8368,-440,-274,-7
8537.719,310,295,291,326,-14196,-448,8368,-440,-274,-7
8540.234999999999,310,294,290,326,-14196,-448,8368,-440,-274,-7
8549.327,312,295,291,327,-14196,-448,8368,-440,-274,-7
8558.103,311,296,291,326,-14196,-448,8368,-440,-274,-7
8560.492999999999,312,297,291,326,-14196,-448,8368,-440,-274,-7
8570.923999999999,312,297,290,326,-14196,-448,8368,-440,-274,-7
8570.923999999999,312,297,290,326,-14164,-704,8204,-697,-207,-34
8582.317,312,297,290,326,-14164,-704,8204,-697,-207,-34
8585.414999999999,312,297,290,325,-14164,-704,8204,-697,-207,-34
8593.81,312,298,291,327,-14164,-704,8204,-697,-207,-34
8593.81,312,298,291,326,-14164,-704,8204,-697,-207,-34
8603.979000000001,310,299,291,326,-14164,-704,8204,-697,-207,-34
8611.539,311,299,291,326,-14152,-696,8356,-528,-292,-117
8615.911,310,299,291,327,-14152,-696,8356,-528,-292,-117
8625.147,310,299,291,327,-14152,-696,8356,-528,-292,-117
8628.249,310,300,291,326,-14152,-696,8356,-528,-292,-117
8636.262,309,300,292,327,-14152,-696,8356,-528,-292,-117
8638.439,309,300,292,326,-14152,-696,8356,-528,-292,-117
8648.827000000001,309,300,292,326,-14152,-696,8356,-528,-292,-117
8648.827000000001,308,299,292,325,-14204,-756,8292,-615,-400,-242
8659.878,308,300,293,326,-14204,-756,8292,-615,-400,-242
8659.878,308,300,292,326,-14204,-756,8292,-615,-400,-242
8671.315,308,299,293,326,-14204,-756,8292,-615,-400,-242
8671.315,308,300,292,326,-14204,-756,8292,-615,-400,-242
8682.023,310,302,293,326,-14204,-756,8292,-615,-400,-242
8687.835,309,302,293,326,-14164,-768,8124,-288,-426,-179
8692.83,309,303,293,325,-14164,-768,8124,-288,-426,-179
8699.603,310,303,294,326,-14164,-768,8124,-288,-426,-179
8704.705,310,304,293,325,-14164,-768,8124,-288,-426,-179
8714.242,311,304,294,325,-14164,-768,8124,-288,-426,-179
8715.782000000001,312,304,294,325,-14164,-768,8124,-288,-426,-179
8726.868,311,304,293,325,-14164,-768,8124,-288,-426,-179
8735.077000000001,311,304,294,325,-14180,-888,8308,-527,-483,-162
8737.477,312,304,293,324,-14180,-888,8308,-527,-483,-162
8747.261,312,304,293,324,-14180,-888,8308,-527,-483,-162
8748.969000000001,312,304,294,324,-14180,-888,8308,-527,-483,-162
8753.473,312,304,294,325,-14180,-888,8308,-527,-483,-162
8760.512999999999,312,303,294,324,-14180,-888,8308,-527,-483,-162
8770.694000000001,311,303,294,324,-14180,-888,8308,-527,-483,-162
8773.288,310,302,294,323,-14048,-756,8792,-189,-346,-34
8783.791000000001,310,303,295,323,-14048,-756,8792,-189,-346,-34
8783.791000000001,309,302,296,324,-14048,-756,8792,-189,-346,-34
8793.51,309,301,296,324,-14048,-756,8792,-189,-346,-34
8797.927,311,302,296,323,-14048,-756,8792,-189,-346,-34
8804.493,311,301,296,323,-14048,-756,8792,-189,-346,-34
8810.089,311,300,295,323,-14056,-868,8696,-206,-81,-211
8815.583999999999,310,300,296,323,-14056,-868,8696,-206,-81,-211
8823.102,310,299,295,323,-14056,-868,8696,-206,-81,-211
8826.890000000001,310,299,295,323,-14056,-868,8696,-206,-81,-211
8835.003,310,298,295,324,-14056,-868,8696,-206,-81,-211
8837.927,310,297,295,323,-14056,-868,8696,-206,-81,-211
8848.867,310,297,295,322,-14056,-868,8696,-206,-81,-211
8848.867,310,296,294,323,-13968,-652,8900,135,134,-244
8860.666,310,296,294,323,-13968,-652,8900,135,134,-244
8860.666,310,296,294,322,-13968,-652,8900,135,134,-244
8871.342999999999,310,298,293,322,-13968,-652,8900,135,134,-244
8876.109,310,298,293,322,-13968,-652,8900,135,134,-244
8881.993,310,298,293,321,-13968,-652,8900,135,134,-244
8888.528,309,298,293,322,-13968,-652,8900,135,134,-244
8893.387,308,298,293,322,-14032,-1168,8132,54,142,-119
8896.824,308,298,293,322,-14032,-1168,8132,54,142,-119
8904.6,307,298,291,320,-14032,-1168,8132,54,142,-119
8914.281,306,298,293,322,-14032,-1168,8132,54,142,-119
8915.931,305,296,292,321,-14032,-1168,8132,54,142,-119
8926.323,306,297,292,321,-14032,-1168,8132,54,142,-119
8926.323,304,296,292,321,-14120,-1184,8176,-66,13,-11
8937.851,304,296,292,322,-14120,-1184,8176,-66,13,-11
8941.428,304,296,291,320,-14120,-1184,8176,-66,13,-11
8941.428,302,296,290,319,-14120,-1184,8176,-66,13,-11
8955.881,302,295,291,321,-14120,-1184,8176,-66,13,-11
8960.187,302,296,291,319,-14120,-1184,8176,-66,13,-11
8967.809000000001,303,295,292,320,-14120,-1184,8176,-66,13,-11
8972.59,303,295,291,319,-14116,-676,8772,-74,-41,-18
8975.653,303,296,291,318,-14116,-676,8772,-74,-41,-18
8982.521,304,297,293,320,-14116,-676,8772,-74,-41,-18
8982.521,304,298,293,319,-14116,-676,8772,-74,-41,-18
8993.458,303,297,292,318,-14116,-676,8772,-74,-41,-18
8998.731,303,297,293,319,-14116,-676,8772,-74,-41,-18
9004.262999999999,304,298,294,319,-14116,-676,8772,-74,-41,-18
9014.421,306,298,295,320,-14120,-900,8088,250,148,-29
9016.285,305,297,295,320,-14120,-900,8088,250,148,-29
9024.697,306,297,295,320,-14120,-900,8088,250,148,-29
9027.133,307,297,296,320,-14120,-900,8088,250,148,-29
9030.686,306,297,296,320,-14120,-900,8088,250,148,-29
9037.703000000001,307,296,296,320,-14120,-900,8088,250,148,-29
9043.598,308,295,296,319,-14120,-900,8088,250,148,-29
9048.806,308,295,296,319,-14144,-756,8872,68,213,-126
9055.730000000001,310,295,297,319,-14144,-756,8872,68,213,-126
9060.663,311,295,297,318,-14144,-756,8872,68,213,-126
9068.727,312,296,297,319,-14144,-756,8872,68,213,-126
9071.231,312,296,298,320,-14144,-756,8872,68,213,-126
9081.858,312,296,298,319,-14144,-756,8872,68,213,-126
9084.493999999999,312,296,298,317,-14144,-756,8872,68,213,-126
9094.295,312,296,299,319,-14152,-908,7956,-273,-234,307
9094.295,312,296,299,318,-14152,-908,7956,-273,-234,307
9104.622000000001,312,296,298,317,-14152,-908,7956,-273,-234,307
9109.124,312,296,299,318,-14152,-908,7956,-273,-234,307
9115.407,312,296,299,317,-14152,-908,7956,-273,-234,307
9117.657,311,296,298,316,-14152,-908,7956,-273,-234,307
9127.285,312,296,299,317,-14152,-908,7956,-273,-234,307
9136.043000000001,311,295,298,316,-14204,-1060,8556,-643,-235,449
9138.011,310,295,298,316,-14204,-1060,8556,-643,-235,449
9148.759,310,294,299,315,-14204,-1060,8556,-643,-235,449
9148.759,311,294,299,316,-14204,-1060,8556,-643,-235,449
9159.591,311,295,299,316,-14204,-1060,8556,-643,-235,449
9162.293,312,295,299,315,-14204,-1060,8556,-643,-235,449
9172.5,312,295,299,316,-14204,-1060,8556,-643,-235,449
9172.5,313,296,299,316,-14088,-688,8508,-90,-58,190
9183.085000000001,314,295,299,315,-14088,-688,8508,-90,-58,190
9187.300000000001,314,295,298,315,-14088,-688,8508,-90,-58,190
9192.824999999999,315,295,298,314,-14088,-688,8508,-90,-58,190
9192.824999999999,315,295,298,314,-14088,-688,8508,-90,-58,190
9204.196,316,295,298,314,-14088,-688,8508,-90,-58,190
9212.943,315,295,298,315,-14140,-684,8308,-332,50,106
9215.661,316,295,298,315,-14140,-684,8308,-332,50,106
9220.533,316,295,297,315,-14140,-684,8308,-332,50,106
9227.231,317,294,297,314,-14140,-684,8308,-332,50,106
9227.231,316,294,297,314,-14140,-684,8308,-332,50,106
9237.982,316,294,297,314,-14140,-684,8308,-332,50,106
9244.919,314,294,297,314,-14140,-684,8308,-332,50,106
9249.48,314,294,297,315,-14052,-488,8656,-14,73,-54
9256.646,313,293,297,314,-14052,-488,8656,-14,73,-54
9259.821,312,293,297,314,-14052,-488,8656,-14,73,-54
9271.39,312,293,296,314,-14052,-488,8656,-14,73,-54
9272.615,311,293,296,314,-14052,-488,8656,-14,73,-54
9280.628999999999,311,293,297,314,-14052,-488,8656,-14,73,-54
9282.529,311,293,297,314,-14052,-488,8656,-14,73,-54
9289.341999999999,309,293,297,314,-14176,-1024,7972,-73,25,-148
9293.684000000001,309,294,296,314,-14176,-1024,7972,-73,25,-148
9304.556,308,293,296,313,-14176,-1024,7972,-73,25,-148
9312.628999999999,307,293,296,313,-14176,-1024,7972,-73,25,-148
9315.360999999999,306,293,296,313,-14176,-1024,7972,-73,25,-148
9318.866999999998,307,293,296,313,-14176,-1024,7972,-73,25,-148
9326.64,307,293,296,313,-14176,-1024,7972,-73,25,-148
9330.942000000001,306,294,296,313,-14128,-644,8260,114,-117,-161
9337.718,306,294,296,313,-14128,-644,8260,114,-117,-161
9342.37,306,294,296,312,-14128,-644,8260,114,-117,-161
9351.710000000001,306,294,295,313,-14128,-644,8260,114,-117,-161
9354.641000000001,305,294,295,312,-14128,-644,8260,114,-117,-161
9359.737000000001,305,295,294,311,-14128,-644,8260,114,-117,-161
9368.380000000001,306,295,295,312,-14128,-644,8260,114,-117,-161
9371.291,306,296,295,313,-14124,-1088,8144,-152,-55,-9
9382.443000000001,306,296,294,311,-14124,-1088,8144,-152,-55,-9
9382.443000000001,306,296,295,311,-14124,-1088,8144,-152,-55,-9
9393.088,306,296,295,312,-14124,-1088,8144,-152,-55,-9
9393.088,306,295,295,312,-14124,-1088,8144,-152,-55,-9
9404.478,307,296,294,311,-14124,-1088,8144,-152,-55,-9
9408.559000000001,308,295,295,312,-14124,-1088,8144,-152,-55,-9
9416.001,307,296,295,312,-14124,-1032,8624,75,133,-34
9420.548,308,296,295,312,-14124,-1032,8624,75,133,-34
9426.439999999999,309,297,295,312,-14124,-1032,8624,75,133,-34
9428.774000000001,309,296,295,312,-14124,-1032,8624,75,133,-34
9437.97,310,296,296,312,-14124,-1032,8624,75,133,-34
9447.18,312,296,295,311,-14124,-1032,8624,75,133,-34
9449.104,313,296,295,312,-14124,-1032,8624,75,133,-34
9454.235999999999,314,297,295,312,-14104,-680,8308,24,28,-92
9459.686,314,297,295,312,-14104,-680,8308,24,28,-92
9466.168,315,298,295,312,-14104,-680,8308,24,28,-92
9471.159,316,298,295,313,-14104,-680,8308,24,28,-92
9473.877999999999,316,299,294,313,-14104,-680,8308,24,28,-92
9483.347,318,299,295,313,-14104,-680,8308,24,28,-92
9491.641,317,300,295,313,-14104,-680,8308,24,28,-92
9494.242,316,300,295,313,-14132,-904,8404,23,0,-32
9498.535,317,300,294,313,-14132,-904,8404,23,0,-32
9504.113,317,301,295,313,-14132,-904,8404,23,0,-32
9504.113,317,301,295,314,-14132,-904,8404,23,0,-32
9515.576,317,302,295,314,-14132,-904,8404,23,0,-32
9515.576,317,302,295,313,-14132,-904,8404,23,0,-32
9526.562,317,301,295,313,-14132,-904,8404,23,0,-32
9531.342999999999,317,302,296,314,-14052,-648,8588,311,128,4
9537.378,317,302,295,315,-14052,-648,8588,311,128,4
9539.323,316,302,295,313,-14052,-648,8588,311,128,4
9549.32,317,303,296,314,-14052,-648,8588,311,128,4
9549.32,317,302,296,315,-14052,-648,8588,311,128,4
9559.812000000002,317,302,296,314,-14052,-648,8588,311,128,4
9559.812000000002,317,302,296,313,-14052,-648,8588,311,128,4
9571.025000000001,317,302,296,314,-14052,-648,8588,311,128,4
9579.113,317,303,296,315,-14100,-684,8392,927,422,-85
9582.056,316,303,296,314,-14100,-684,8392,927,422,-85
9584.296,315,303,297,314,-14100,-684,8392,927,422,-85
9593.739,314,303,297,314,-14100,-684,8392,927,422,-85
9603.154999999999,314,303,297,314,-14100,-684,8392,927,422,-85
9604.995,313,303,298,314,-14100,-684,8392,927,422,-85
9604.995,314,303,297,313,-14100,-684,8392,927,422,-85
9615.548999999999,313,303,298,313,-14140,-780,8620,530,364,42
9623.889000000001,312,303,298,313,-14140,-780,8620,530,364,42
9626.341,312,304,298,313,-14140,-780,8620,530,364,42
9629.291000000001,312,304,299,313,-14140,-780,8620,530,364,42
9640.485,311,304,298,312,-14140,-780,8620,530,364,42
9643.545,310,304,298,312,-14140,-780,8620,530,364,42
9649.184,310,304,299,312,-14140,-780,8620,530,364,42
9654.411,310,304,299,312,-14224,-936,8100,-63,281,86
9659.541000000001,310,304,298,311,-14224,-936,8100,-63,281,86
9666.092,310,304,298,311,-14224,-936,8100,-63,281,86
9671.273,309,304,298,311,-14224,-936,8100,-63,281,86
9674.169,309,304,298,311,-14224,-936,8100,-63,281,86
9682.710000000001,309,305,297,311,-14224,-936,8100,-63,281,86
9691.662,309,304,298,311,-14224,-936,8100,-63,281,86
9693.645999999999,310,305,298,311,-14148,-612,8264,-192,152,174
9699.498,309,305,297,311,-14148,-612,8264,-192,152,174
9704.464,309,304,297,310,-14148,-612,8264,-192,152,174
9711.323,308,304,297,310,-14148,-612,8264,-192,152,174
9716.281,308,305,296,309,-14148,-612,8264,-192,152,174
9723.402,308,305,296,310,-14148,-612,8264,-192,152,174
9727.413,308,305,296,310,-14148,-612,8264,-192,152,174
9738.089,308,305,296,310,-14296,-460,8116,-24,74,57
9738.089,309,305,297,310,-14296,-460,8116,-24,74,57
9748.842,308,305,296,310,-14296,-460,8116,-24,74,57
9752.497,308,304,296,310,-14296,-460,8116,-24,74,57
9752.497,307,304,296,310,-14296,-460,8116,-24,74,57
9761.248,309,304,296,310,-14296,-460,8116,-24,74,57
9771.172,309,304,296,310,-14296,-460,8116,-24,74,57
9771.172,309,303,296,310,-14068,-488,8152,-227,87,38
9782.615,310,303,296,310,-14068,-488,8152,-227,87,38
9782.615,310,302,296,310,-14068,-488,8152,-227,87,38
9794.418,310,301,296,310,-14068,-488,8152,-227,87,38
9794.418,311,301,296,310,-14068,-488,8152,-227,87,38
9804.529999999999,309,301,295,309,-14068,-488,8152,-227,87,38
9812.616,310,301,296,310,-14068,-488,8152,-227,87,38
9815.354,310,301,296,310,-14212,-628,8416,102,4,-80
9815.354,309,300,297,310,-14212,-628,8416,102,4,-80
9826.712000000001,309,300,297,310,-14212,-628,8416,102,4,-80
9826.712000000001,308,299,297,310,-14212,-628,8416,102,4,-80
9835.656,307,299,297,311,-14212,-628,8416,102,4,-80
9837.83,305,299,297,309,-14212,-628,8416,102,4,-80
9848.787,305,298,298,309,-14212,-628,8416,102,4,-80
9856.878,304,298,298,310,-14140,-696,8176,91,-136,-23
9859.939,302,297,299,309,-14140,-696,8176,91,-136,-23
9859.939,302,297,298,309,-14140,-696,8176,91,-136,-23
9871.96,300,297,298,310,-14140,-696,8176,91,-136,-23
9875.529999999999,300,297,299,309,-14140,-696,8176,91,-136,-23
9882.709,299,297,300,309,-14140,-696,8176,91,-136,-23
9887.159,297,296,299,309,-14140,-696,8176,91,-136,-23
9893.485,296,296,299,309,-14228,-604,8340,-244,-69,53
9895.864,296,296,299,309,-14228,-604,8340,-244,-69,53
9906.025,297,296,300,309,-14228,-604,8340,-244,-69,53
9914.059,296,296,300,309,-14228,-604,8340,-244,-69,53
9916.681999999999,297,296,300,308,-14228,-604,8340,-244,-69,53
9916.681999999999,296,297,300,308,-14228,-604,8340,-244,-69,53
9926.672,297,297,300,309,-14228,-604,8340,-244,-69,53
9935.882,297,298,300,310,-14164,-556,8180,-181,-35,58
9937.214000000002,298,298,300,309,-14164,-556,8180,-181,-35,58
9944.62,299,298,300,309,-14164,-556,8180,-181,-35,58
9948.882,300,298,300,308,-14164,-556,8180,-181,-35,58
9953.731,301,299,300,310,-14164,-556,8180,-181,-35,58
9961.010999999999,302,300,300,309,-14164,-556,8180,-181,-35,58
9969.756,304,299,300,309,-14164,-556,8180,-181,-35,58
9972.18,303,299,299,309,-14148,-636,8352,-111,89,38
9977.940999999999,304,300,299,309,-14148,-636,8352,-111,89,38
9982.618999999999,305,300,299,309,-14148,-636,8352,-111,89,38
9990.375,306,300,298,309,-14148,-636,8352,-111,89,38
9993.178,307,300,298,309,-14148,-636,8352,-111,89,38
10004.436,307,300,298,309,-14148,-636,8352,-111,89,38
10004.436,309,300,297,309,-14148,-636,8352,-111,89,38
10016.542,308,300,297,309,-14088,-580,8284,18,163,16
10018.691,309,300,296,308,-14088,-580,8284,18,163,16
10018.691,310,300,297,308,-14088,-580,8284,18,163,16
10027.806,311,300,296,308,-14088,-580,8284,18,163,16
10037.789,310,300,296,309,-14088,-580,8284,18,163,16
10037.789,311,300,296,309,-14088,-580,8284,18,163,16
10049.363,312,300,296,308,-14088,-580,8284,18,163,16
10049.363,312,300,296,309,-14088,-580,8284,18,163,16
10060.417,312,300,294,309,-14208,-540,8292,-126,153,50
10063.259,312,300,294,308,-14208,-540,8292,-126,153,50
10063.259,312,300,294,308,-14208,-540,8292,-126,153,50
10070.842,312,300,294,309,-14208,-540,8292,-126,153,50
10082.325,313,300,294,309,-14208,-540,8292,-126,153,50
10090.709,313,300,294,308,-14208,-540,8292,-126,153,50
10093.400000000001,313,300,294,309,-14208,-540,8292,-126,153,50
10093.400000000001,313,300,293,308,-14204,-656,8300,-75,85,2
10104.927,312,300,293,308,-14204,-656,8300,-75,85,2
10108.747,312,300,293,308,-14204,-656,8300,-75,85,2
10108.747,313,300,294,309,-14204,-656,8300,-75,85,2
10116.761,312,300,294,308,-14204,-656,8300,-75,85,2
10126.480000000001,312,300,294,309,-14204,-656,8300,-75,85,2
10126.480000000001,312,301,295,309,-14204,-656,8300,-75,85,2
10137.981,313,301,295,309,-14240,-684,8276,-45,14,63
10137.981,311,301,295,308,-14240,-684,8276,-45,14,63
10148.564,310,301,296,309,-14240,-684,8276,-45,14,63
10151.707999999999,310,301,296,309,-14240,-684,8276,-45,14,63
10160.238,310,302,296,309,-14240,-684,8276,-45,14,63
10160.238,311,302,296,309,-14240,-684,8276,-45,14,63
10171.056,311,301,296,309,-14240,-684,8276,-45,14,63
10173.595000000001,310,301,296,308,-14152,-780,8196,-192,-15,73
10181.601,310,302,297,309,-14152,-780,8196,-192,-15,73
10182.135,311,302,297,309,-14152,-780,8196,-192,-15,73
10193.428000000002,311,303,297,309,-14152,-780,8196,-192,-15,73
10201.446,312,303,298,310,-14152,-780,8196,-192,-15,73
10204.801,311,303,296,309,-14152,-780,8196,-192,-15,73
10204.801,313,303,297,310,-14152,-780,8196,-192,-15,73
10216.666,313,304,297,310,-14180,-564,8436,-105,-102,-18
10216.666,312,305,297,310,-14180,-564,8436,-105,-102,-18
10226.656,313,305,298,311,-14180,-564,8436,-105,-102,-18
10234.745,313,305,298,311,-14180,-564,8436,-105,-102,-18
10237.638,313,306,298,311,-14180,-564,8436,-105,-102,-18
10244.368,312,306,299,311,-14180,-564,8436,-105,-102,-18
10248.849999999999,313,306,299,312,-14180,-564,8436,-105,-102,-18
10256.551,312,306,300,311,-14208,-720,8204,-217,-10,16
10259.947,312,306,299,311,-14208,-720,8204,-217,-10,16
10270.979000000001,311,307,300,312,-14208,-720,8204,-217,-10,16
10270.979000000001,311,307,300,312,-14208,-720,8204,-217,-10,16
10282.057,311,308,300,313,-14208,-720,8204,-217,-10,16
10284.478,311,308,301,313,-14208,-720,8204,-217,-10,16
10294.059000000001,309,307,300,312,-14208,-720,8204,-217,-10,16
10294.059000000001,309,307,301,312,-14220,-560,8232,-75,5,1
10304.175000000001,310,307,301,312,-14220,-560,8232,-75,5,1
10305.114,309,307,301,312,-14220,-560,8232,-75,5,1
10316.147,308,307,301,313,-14220,-560,8232,-75,5,1
10320.503,308,307,301,312,-14220,-560,8232,-75,5,1
10324.614,308,307,301,312,-14220,-560,8232,-75,5,1
10332.262,308,307,301,312,-14220,-560,8232,-75,5,1
10336.366,308,306,301,312,-14184,-644,8248,-117,-11,14
10340.909,307,306,302,312,-14184,-644,8248,-117,-11,14
10348.751999999999,307,306,302,312,-14184,-644,8248,-117,-11,14
10349.42,306,305,302,313,-14184,-644,8248,-117,-11,14
10360.215,305,306,302,312,-14184,-644,8248,-117,-11,14
10360.215,305,305,302,312,-14184,-644,8248,-117,-11,14
10367.18,304,305,302,312,-14184,-644,8248,-117,-11,14
10371.119999999999,304,305,302,312,-14280,-528,8344,141,19,-15
10380.229,305,305,302,312,-14280,-528,8344,141,19,-15
10382.974,303,305,302,311,-14280,-528,8344,141,19,-15
10393.702,303,304,303,312,-14280,-528,8344,141,19,-15
10393.702,303,305,303,312,-14280,-528,8344,141,19,-15
10404.685000000001,302,305,303,311,-14280,-528,8344,141,19,-15
10404.685000000001,302,305,304,312,-14280,-528,8344,141,19,-15
10413.595000000001,301,305,304,311,-14164,-620,8284,435,-3,-22
10416.612000000001,301,305,304,311,-14164,-620,8284,435,-3,-22
10424.842,302,305,303,310,-14164,-620,8284,435,-3,-22
10431.046999999999,302,305,304,311,-14164,-620,8284,435,-3,-22
10438.655,301,305,304,311,-14164,-620,8284,435,-3,-22
10438.655,301,306,304,311,-14164,-620,8284,435,-3,-22
10449.735,301,306,304,311,-14164,-620,8284,435,-3,-22
10449.735,300,306,303,311,-14264,-548,8356,201,109,10
10457.131000000001,301,306,303,310,-14264,-548,8356,201,109,10
10460.014,302,306,303,310,-14264,-548,8356,201,109,10
10471.361,303,305,303,311,-14264,-548,8356,201,109,10
10473.337000000001,304,305,303,311,-14264,-548,8356,201,109,10
10482.279999999999,303,306,303,310,-14264,-548,8356,201,109,10
10482.279999999999,304,306,303,311,-14264,-548,8356,201,109,10
10493.705,303,306,303,311,-14264,-548,8356,201,109,10
10493.705,303,305,302,310,-14152,-404,8484,117,82,-46
10504.567,304,305,302,310,-14152,-404,8484,117,82,-46
10512.933,304,305,303,310,-14152,-404,8484,117,82,-46
10516.805,305,304,302,310,-14152,-404,8484,117,82,-46
10524.903,305,303,302,308,-14152,-404,8484,117,82,-46
10528.019,305,303,302,310,-14152,-404,8484,117,82,-46
10530.172999999999,305,303,302,310,-14152,-404,8484,117,82,-46
10537.509999999998,305,303,301,310,-14248,-792,8108,130,-64,31
10542.887999999999,305,303,301,309,-14248,-792,8108,130,-64,31
10548.74,306,303,301,310,-14248,-792,8108,130,-64,31
10554.608,306,303,301,310,-14248,-792,8108,130,-64,31
10559.777,307,302,301,309,-14248,-792,8108,130,-64,31
10563.096,307,302,300,308,-14248,-792,8108,130,-64,31
10571.163999999999,307,302,300,308,-14248,-792,8108,130,-64,31
10575.307,307,303,300,308,-14120,-552,8212,-22,-149,79
10582.117,308,303,300,308,-14120,-552,8212,-22,-149,79
10587.531,308,303,299,308,-14120,-552,8212,-22,-149,79
10593.272,308,303,299,307,-14120,-552,8212,-22,-149,79
10599.927,308,303,300,307,-14120,-552,8212,-22,-149,79
10605.328,308,302,299,307,-14120,-552,8212,-22,-149,79
10608.026,307,303,299,307,-14120,-552,8212,-22,-149,79
10616.972,307,302,298,307,-14200,-512,8320,-177,-216,106
10626.935,308,302,298,306,-14200,-512,8320,-177,-216,106
10626.935,307,302,299,307,-14200,-512,8320,-177,-216,106
10637.954,307,302,299,307,-14200,-512,8320,-177,-216,106
10637.954,307,302,299,307,-14200,-512,8320,-177,-216,106
10649.058,307,302,299,307,-14200,-512,8320,-177,-216,106
10653.565999999999,306,302,300,307,-14132,-488,8456,-63,-62,97
10660.057999999999,306,302,300,307,-14132,-488,8456,-63,-62,97
10667.642,306,302,300,307,-14132,-488,8456,-63,-62,97
10671.666,305,302,300,307,-14132,-488,8456,-63,-62,97
10680.403,304,302,301,307,-14132,-488,8456,-63,-62,97
10682.837,305,302,301,306,-14132,-488,8456,-63,-62,97
10682.837,305,302,302,307,-14132,-488,8456,-63,-62,97
10693.334,304,302,302,308,-14132,-488,8456,-63,-62,97
10698.880000000001,303,302,303,307,-14128,-660,8300,-151,-95,76
10703.804999999998,302,302,303,308,-14128,-660,8300,-151,-95,76
10713.806,301,302,303,308,-14128,-660,8300,-151,-95,76
10717.274,301,302,303,308,-14128,-660,8300,-151,-95,76
10725.286,301,301,302,308,-14128,-660,8300,-151,-95,76
10727.230000000001,301,301,304,308,-14128,-660,8300,-151,-95,76
10737.214,301,301,303,309,-14128,-660,8300,-151,-95,76
10739.1,301,302,302,309,-14180,-700,8248,357,-48,3
10739.1,302,302,302,309,-14180,-700,8248,357,-48,3
10749.19,302,302,301,309,-14180,-700,8248,357,-48,3
10756.948,302,302,301,309,-14180,-700,8248,357,-48,3
10759.880000000001,303,302,300,308,-14180,-700,8248,357,-48,3
10764.416000000001,303,302,300,308,-14180,-700,8248,357,-48,3
10770.797999999999,303,301,299,307,-14180,-700,8248,357,-48,3
10776.889000000001,304,301,298,307,-14148,-436,8440,765,78,165
10781.947,305,301,297,306,-14148,-436,8440,765,78,165
10788.394999999999,305,301,297,307,-14148,-436,8440,765,78,165
10793.563,306,301,297,307,-14148,-436,8440,765,78,165
10796.454000000002,306,300,296,306,-14148,-436,8440,765,78,165
10804.824,307,299,295,305,-14148,-436,8440,765,78,165
10813.83,307,298,295,305,-14148,-436,8440,765,78,165
10817.327000000001,308,298,294,305,-14188,-488,8372,126,37,254
10822.736,309,297,294,305,-14188,-488,8372,126,37,254
10826.541000000001,308,297,294,305,-14188,-488,8372,126,37,254
10834.034000000001,309,297,294,305,-14188,-488,8372,126,37,254
10837.878999999999,310,297,293,304,-14188,-488,8372,126,37,254
10842.043,310,297,292,305,-14188,-488,8372,126,37,254
10848.841999999999,310,296,291,304,-14188,-488,8372,126,37,254
10860.364000000001,310,297,291,304,-14188,-464,8332,30,-86,197
10860.364000000001,311,297,290,304,-14188,-464,8332,30,-86,197
10867.541,311,298,290,304,-14188,-464,8332,30,-86,197
10871.399,311,298,290,304,-14188,-464,8332,30,-86,197
10878.817,311,298,289,304,-14188,-464,8332,30,-86,197
10882.448999999999,312,298,289,304,-14188,-464,8332,30,-86,197
10891.366,311,299,290,304,-14188,-464,8332,30,-86,197
10893.805,313,298,289,304,-14144,-352,8080,-310,-140,152
10904.652,312,299,289,304,-14144,-352,8080,-310,-140,152
10907.033,312,299,290,305,-14144,-352,8080,-310,-140,152
10917.474,312,300,290,305,-14144,-352,8080,-310,-140,152
10917.474,313,300,290,305,-14144,-352,8080,-310,-140,152
10926.219,313,301,290,305,-14144,-352,8080,-310,-140,152
10934.292,313,301,290,306,-14144,-352,8080,-310,-140,152
10936.600999999999,313,301,290,306,-14220,-388,8464,-108,-87,75
10944.21,314,301,290,306,-14220,-388,8464,-108,-87,75
10948.639,313,302,291,306,-14220,-388,8464,-108,-87,75
10952.634,313,302,291,307,-14220,-388,8464,-108,-87,75
10959.904,313,302,292,306,-14220,-388,8464,-108,-87,75
10970.836000000001,313,303,292,307,-14220,-388,8464,-108,-87,75
10972.634,313,303,293,307,-14220,-388,8464,-108,-87,75
10972.634,313,303,294,307,-14100,-452,8312,-59,-186,-81
10982.048,313,303,294,307,-14100,-452,8312,-59,-186,-81
10988.832,313,304,294,308,-14100,-452,8312,-59,-186,-81
10994.267,311,304,296,308,-14100,-452,8312,-59,-186,-81
11003.99,312,305,296,308,-14100,-452,8312,-59,-186,-81
11012.068,312,304,296,309,-14100,-452,8312,-59,-186,-81
11015.867,311,305,298,309,-14100,-452,8312,-59,-186,-81
11017.386999999999,311,305,298,310,-14148,-536,8276,-171,-111,16
11027.034,311,305,299,310,-14148,-536,8276,-171,-111,16
11027.034,310,305,300,311,-14148,-536,8276,-171,-111,16
11037.836000000001,310,305,300,311,-14148,-536,8276,-171,-111,16
11045.917,309,306,301,311,-14148,-536,8276,-171,-111,16
11048.054,309,307,302,312,-14148,-536,8276,-171,-111,16
11054.595000000001,309,307,303,312,-14120,-404,8576,16,-103,-23
11059.59,308,306,303,311,-14120,-404,8576,16,-103,-23
11062.699999999999,309,306,304,311,-14120,-404,8576,16,-103,-23
11071.377999999999,308,306,305,312,-14120,-404,8576,16,-103,-23
11080.697,307,307,304,312,-14120,-404,8576,16,-103,-23
11082.955,306,307,305,312,-14120,-404,8576,16,-103,-23
11093.514000000001,305,307,306,312,-14120,-404,8576,16,-103,-23
11093.514000000001,305,307,306,312,-14144,-612,8456,110,-159,83
11100.656,304,307,306,313,-14144,-612,8456,110,-159,83
11104.856,304,307,307,313,-14144,-612,8456,110,-159,83
11112.647,303,306,307,313,-14144,-612,8456,110,-159,83
11117.569,302,306,307,313,-14144,-612,8456,110,-159,83
11126.517,302,307,307,312,-14144,-612,8456,110,-159,83
11126.517,301,306,307,312,-14144,-612,8456,110,-159,83
11137.772,301,306,307,312,-14140,-520,8252,178,-435,209
11140.349,300,306,307,312,-14140,-520,8252,178,-435,209
11149.436,299,305,307,312,-14140,-520,8252,178,-435,209
11152.667,299,305,308,312,-14140,-520,8252,178,-435,209
11159.911,300,305,308,311,-14140,-520,8252,178,-435,209
11165.678,299,305,308,311,-14140,-520,8252,178,-435,209
11170.78,297,305,308,311,-14140,-520,8252,178,-435,209
11179.497,297,305,308,311,-14120,-584,8016,259,-428,325
11181.973,297,305,307,310,-14120,-584,8016,259,-428,325
11186.171999999999,297,305,308,311,-14120,-584,8016,259,-428,325
11194.321,298,305,307,311,-14120,-584,8016,259,-428,325
11202.498,297,305,307,310,-14120,-584,8016,259,-428,325
11205.1,298,305,306,310,-14120,-584,8016,259,-428,325
11215.394999999999,297,305,305,310,-14120,-584,8016,259,-428,325
11217.398,297,305,305,309,-14136,-724,8244,1133,-690,597
11223.408,297,306,307,310,-14136,-724,8244,1133,-690,597
11226.603000000001,298,306,308,310,-14136,-724,8244,1133,-690,597
11237.246000000001,298,306,307,310,-14136,-724,8244,1133,-690,597
11245.336,298,306,306,309,-14136,-724,8244,1133,-690,597
11248.714,298,306,307,310,-14136,-724,8244,1133,-690,597
11251.262999999999,298,307,309,310,-14136,-724,8244,1133,-690,597
11259.846,298,307,307,309,-14140,-1428,7308,2896,-956,1553
11263.475,298,307,306,308,-14140,-1428,7308,2896,-956,1553
11271.562,298,307,307,309,-14140,-1428,7308,2896,-956,1553
11282.387999999999,299,306,308,309,-14140,-1428,7308,2896,-956,1553
11282.387999999999,299,305,310,310,-14140,-1428,7308,2896,-956,1553
11293.146,299,303,308,309,-14140,-1428,7308,2896,-956,1553
11296.439,298,301,309,310,-14440,-2016,6088,5461,-1824,1687
11304.271,300,299,310,310,-14440,-2016,6088,5461,-1824,1687
11315.212000000001,302,297,310,310,-14440,-2016,6088,5461,-1824,1687
11317.404,304,296,310,310,-14440,-2016,6088,5461,-1824,1687
11325.405999999999,307,295,309,309,-14440,-2016,6088,5461,-1824,1687
11329.612,309,297,308,309,-14440,-2016,6088,5461,-1824,1687
11337.885,314,300,307,308,-14056,-140,7836,7526,-2389,2536
11337.885,317,301,306,307,-14056,-140,7836,7526,-2389,2536
11348.717,322,302,304,307,-14056,-140,7836,7526,-2389,2536
11354.233,327,302,303,307,-14056,-140,7836,7526,-2389,2536
11359.235,331,303,294,308,-14056,-140,7836,7526,-2389,2536
11371.082,332,304,286,310,-14056,-140,7836,7526,-2389,2536
11374.193,335,304,280,314,-14056,-140,7836,7526,-2389,2536
11374.193,338,304,273,318,-13584,64,6240,8360,-3140,4054
11383.345000000001,340,304,266,323,-13584,64,6240,8360,-3140,4054
11393.492,341,305,263,327,-13584,64,6240,8360,-3140,4054
11401.837,344,306,259,332,-13584,64,6240,8360,-3140,4054
11404.655999999999,347,307,257,335,-13584,64,6240,8360,-3140,4054
11413.541000000001,352,306,255,338,-13584,64,6240,8360,-3140,4054
11417.402,356,307,253,341,-13492,252,5380,4146,-4870,5021
11425.416000000001,362,307,248,344,-13492,252,5380,4146,-4870,5021
11427.577,366,307,245,349,-13492,252,5380,4146,-4870,5021
11437.722000000002,371,307,242,352,-13492,252,5380,4146,-4870,5021
11437.722000000002,376,307,240,356,-13492,252,5380,4146,-4870,5021
11449.113000000001,373,307,237,359,-13492,252,5380,4146,-4870,5021
11449.113000000001,369,306,234,362,-13492,252,5380,4146,-4870,5021
11459.896,368,300,233,364,-13072,-396,7152,-3027,-7404,8030
11464.886,370,292,232,368,-13072,-396,7152,-3027,-7404,8030
11470.722,372,289,233,371,-13072,-396,7152,-3027,-7404,8030
11482.097,376,288,236,374,-13072,-396,7152,-3027,-7404,8030
11484.463,382,292,240,377,-13072,-396,7152,-3027,-7404,8030
11494.097,388,296,245,380,-13072,-396,7152,-3027,-7404,8030
11494.097,394,303,251,380,-11740,1140,6888,6,-10291,9774
11504.948,399,310,258,380,-11740,1140,6888,6,-10291,9774
11510.023000000001,402,317,264,380,-11740,1140,6888,6,-10291,9774
11517.749,407,325,272,380,-11740,1140,6888,6,-10291,9774
11521.431,412,333,279,378,-11740,1140,6888,6,-10291,9774
11526.854,417,341,287,376,-11740,1140,6888,6,-10291,9774
11529.676,422,350,295,373,-11740,1140,6888,6,-10291,9774
11538.31,427,359,304,369,-10292,1504,6984,-2467,-12883,10201
11549.028,429,368,320,368,-10292,1504,6984,-2467,-12883,10201
11557.533,430,375,331,370,-10292,1504,6984,-2467,-12883,10201
11559.981,430,380,342,369,-10292,1504,6984,-2467,-12883,10201
11568.651,427,382,356,368,-10292,1504,6984,-2467,-12883,10201
11571.0,419,386,369,364,-10292,1504,6984,-2467,-12883,10201
11579.411,411,393,380,359,-8396,5448,11096,-2583,-15008,9990
11582.258,399,401,397,354,-8396,5448,11096,-2583,-15008,9990
11593.317000000001,388,409,409,349,-8396,5448,11096,-2583,-15008,9990
11599.783000000001,374,426,423,340,-8396,5448,11096,-2583,-15008,9990
11604.469,362,446,434,333,-8396,5448,11096,-2583,-15008,9990
11612.251,351,463,445,323,-8396,5448,11096,-2583,-15008,9990
11618.006,343,473,451,314,-6256,5404,12096,-3649,-16542,9741
11626.609999999999,332,479,458,304,-6256,5404,12096,-3649,-16542,9741
11634.696999999998,320,481,464,296,-6256,5404,12096,-3649,-16542,9741
11638.095,306,481,468,285,-6256,5404,12096,-3649,-16542,9741
11644.927,292,479,471,277,-6256,5404,12096,-3649,-16542,9741
11649.198,272,474,477,269,-6256,5404,12096,-3649,-16542,9741
11658.089,253,467,484,261,-5392,4960,10796,-5821,-18374,8049
11660.242999999999,228,457,491,252,-5392,4960,10796,-5821,-18374,8049
11675.322,201,445,494,246,-5392,4960,10796,-5821,-18374,8049
11680.386999999999,173,431,487,236,-5392,4960,10796,-5821,-18374,8049
11688.015,147,417,480,227,-5392,4960,10796,-5821,-18374,8049
11692.578,118,401,468,213,-5392,4960,10796,-5821,-18374,8049
11695.812,97,390,455,197,-3636,7548,16824,-5611,-19662,5380
11702.467,78,373,438,180,-3636,7548,16824,-5611,-19662,5380
11705.489,65,357,425,168,-3636,7548,16824,-5611,-19662,5380
11718.055,55,344,409,157,-3636,7548,16824,-5611,-19662,5380
11722.690999999999,43,333,393,146,-3636,7548,16824,-5611,-19662,5380
11726.978000000001,34,324,398,142,-3636,7548,16824,-5611,-19662,5380
11737.336000000001,26,312,429,143,-3636,7548,16824,-5611,-19662,5380
11745.847,18,296,479,145,-956,4852,17268,-5245,-19144,3471
11749.158,10,282,519,146,-956,4852,17268,-5245,-19144,3471
11758.02,2,269,545,147,-956,4852,17268,-5245,-19144,3471
11760.089,0,258,557,148,-956,4852,17268,-5245,-19144,3471
11769.077,0,248,560,148,-956,4852,17268,-5245,-19144,3471
11771.393,0,238,558,151,-956,4852,17268,-5245,-19144,3471
11781.984,0,228,548,156,-1168,3640,16444,-4607,-15156,450
11781.984,0,217,538,164,-1168,3640,16444,-4607,-15156,450
11793.723,0,202,530,173,-1168,3640,16444,-4607,-15156,450
11793.723,3,192,524,181,-1168,3640,16444,-4607,-15156,450
11804.576000000001,10,187,515,187,-1168,3640,16444,-4607,-15156,450
11804.576000000001,23,187,504,196,-1168,3640,16444,-4607,-15156,450
11817.948,40,189,491,202,-1168,3640,16444,-4607,-15156,450
11821.143,62,193,475,208,72,4288,18312,-4367,-10088,577
11826.190999999999,90,201,450,215,72,4288,18312,-4367,-10088,577
11833.52,111,214,431,219,72,4288,18312,-4367,-10088,577
11837.949,137,232,408,225,72,4288,18312,-4367,-10088,577
11846.413,162,245,389,231,72,4288,18312,-4367,-10088,577
11849.029,185,260,372,237,72,4288,18312,-4367,-10088,577
11860.028,206,279,353,242,76,1528,18640,-6264,-8285,309
11868.105,226,295,338,246,76,1528,18640,-6264,-8285,309
11871.363000000001,247,298,328,251,76,1528,18640,-6264,-8285,309
11871.363000000001,261,299,321,255,76,1528,18640,-6264,-8285,309
11882.472,271,299,316,259,76,1528,18640,-6264,-8285,309
11886.925,279,313,308,262,76,1528,18640,-6264,-8285,309
11893.172,289,324,296,265,76,1528,18640,-6264,-8285,309
11898.353000000001,299,340,287,268,436,3012,18888,-272,-7402,232
11904.090999999999,309,355,278,270,436,3012,18888,-272,-7402,232
11911.217,321,375,276,273,436,3012,18888,-272,-7402,232
11915.739,338,397,277,274,436,3012,18888,-272,-7402,232
11919.051,357,411,282,276,436,3012,18888,-272,-7402,232
11927.337,379,425,293,280,436,3012,18888,-272,-7402,232
11937.954,406,436,307,283,436,3012,18888,-272,-7402,232
11938.371,427,446,321,285,612,1536,18576,-2728,-4474,951
11948.858,449,455,338,288,612,1536,18576,-2728,-4474,951
11948.858,462,460,352,290,612,1536,18576,-2728,-4474,951
11960.119999999999,476,466,370,291,612,1536,18576,-2728,-4474,951
11964.362,488,467,387,293,612,1536,18576,-2728,-4474,951
11971.629,499,468,399,296,612,1536,18576,-2728,-4474,951
11976.277,508,469,406,297,612,1536,18576,-2728,-4474,951
11981.956,515,469,410,297,824,1848,18188,-3178,-3575,926
11988.317000000001,522,467,418,299,824,1848,18188,-3178,-3575,926
11993.44,526,453,418,300,824,1848,18188,-3178,-3575,926
11996.923,528,430,411,299,824,1848,18188,-3178,-3575,926
12005.167,526,409,401,299,824,1848,18188,-3178,-3575,926
12015.779999999999,522,393,393,299,824,1848,18188,-3178,-3575,926
12018.294,516,381,386,298,1120,1852,16984,-1281,-2863,830
12026.51,506,363,376,296,1120,1852,16984,-1281,-2863,830
12029.816,499,351,368,295,1120,1852,16984,-1281,-2863,830
12038.82,492,338,357,294,1120,1852,16984,-1281,-2863,830
12038.82,479,324,347,295,1120,1852,16984,-1281,-2863,830
12049.071,464,316,339,297,1120,1852,16984,-1281,-2863,830
12057.187,448,309,334,299,1120,1852,16984,-1281,-2863,830
12059.433,431,302,329,299,764,404,16932,-541,-1363,1479
12066.309000000001,415,295,319,300,764,404,16932,-541,-1363,1479
12072.438999999998,398,291,307,300,764,404,16932,-541,-1363,1479
12080.543,380,288,293,299,764,404,16932,-541,-1363,1479
12082.725999999999,366,286,282,298,764,404,16932,-541,-1363,1479
12093.434000000001,351,284,266,298,764,404,16932,-541,-1363,1479
12093.434000000001,336,282,252,299,764,404,16932,-541,-1363,1479
12104.805,322,280,238,300,828,2620,16168,6865,-2197,1717
12107.215999999999,304,278,223,303,828,2620,16168,6865,-2197,1717
12116.089,291,277,211,304,828,2620,16168,6865,-2197,1717
12119.383,276,275,199,306,828,2620,16168,6865,-2197,1717
12126.53,263,272,188,309,828,2620,16168,6865,-2197,1717
12132.26,254,269,176,311,828,2620,16168,6865,-2197,1717
12137.354,246,265,167,313,1544,5500,17368,6234,-1463,897
12144.092999999999,240,260,157,317,1544,5500,17368,6234,-1463,897
12149.02,235,257,150,319,1544,5500,17368,6234,-1463,897
12156.192000000001,232,253,144,320,1544,5500,17368,6234,-1463,897
12160.126999999999,230,249,138,321,1544,5500,17368,6234,-1463,897
12171.210000000001,227,245,134,323,1544,5500,17368,6234,-1463,897
12179.273000000001,227,241,130,324,1544,5500,17368,6234,-1463,897
12182.381,226,237,128,325,1444,2420,15436,517,1135,-232
12184.533,225,233,125,327,1444,2420,15436,517,1135,-232
12195.738000000001,225,231,124,328,1444,2420,15436,517,1135,-232
12197.952000000001,224,229,123,328,1444,2420,15436,517,1135,-232
12204.254,225,227,123,327,1444,2420,15436,517,1135,-232
12210.845000000001,226,227,123,326,1444,2420,15436,517,1135,-232
12218.52,230,227,123,322,1444,2420,15436,517,1135,-232
12221.593,238,229,123,315,1472,1304,16616,-1599,1566,342
12226.509,250,231,124,311,1472,1304,16616,-1599,1566,342
12233.819000000001,260,233,124,308,1472,1304,16616,-1599,1566,342
12238.377,273,235,124,305,1472,1304,16616,-1599,1566,342
12248.744999999999,286,236,127,305,1472,1304,16616,-1599,1566,342
12250.275,298,239,130,305,1472,1304,16616,-1599,1566,342
12260.018,306,240,131,305,1076,3448,15808,117,483,-91
12262.697,314,241,134,306,1076,3448,15808,117,483,-91
12271.789999999999,317,242,137,308,1076,3448,15808,117,483,-91
12271.789999999999,318,244,139,309,1076,3448,15808,117,483,-91
12282.322,319,245,140,311,1076,3448,15808,117,483,-91
12290.36,319,245,143,313,1076,3448,15808,117,483,-91
12294.053999999998,319,243,146,316,1076,3448,15808,117,483,-91
12294.053999999998,320,239,148,318,1064,1928,16084,585,651,-148
12304.498000000001,318,233,150,320,1064,1928,16084,585,651,-148
12307.859,317,229,152,322,1064,1928,16084,585,651,-148
12318.724,317,230,154,324,1064,1928,16084,585,651,-148
12318.724,316,229,156,326,1064,1928,16084,585,651,-148
12326.152,316,229,157,329,1064,1928,16084,585,651,-148
12326.152,315,228,159,331,1064,1928,16084,585,651,-148
12339.42,314,227,161,333,980,2852,16132,2795,44,-133
12347.437,314,227,162,336,980,2852,16132,2795,44,-133
12349.545,317,225,163,338,980,2852,16132,2795,44,-133
12349.545,323,224,165,341,980,2852,16132,2795,44,-133
12360.104,330,224,167,342,980,2852,16132,2795,44,-133
12369.107,338,223,167,345,980,2852,16132,2795,44,-133
12370.395,349,222,169,347,980,2852,16132,2795,44,-133
12377.461000000001,356,221,171,348,980,2852,16132,2795,44,-133
12382.471000000001,364,220,171,350,884,3320,15456,1149,170,-51
12385.640000000001,371,220,174,353,884,3320,15456,1149,170,-51
12393.967,374,220,175,354,884,3320,15456,1149,170,-51
12393.967,377,220,176,356,884,3320,15456,1149,170,-51
12404.015,379,219,177,357,884,3320,15456,1149,170,-51
12410.987000000001,378,219,179,359,884,3320,15456,1149,170,-51
12419.691,377,220,180,359,884,3320,15456,1149,170,-51
12419.691,375,220,179,361,1072,2492,15792,-756,301,100
12427.266,372,220,180,363,1072,2492,15792,-756,301,100
12437.356,369,220,182,364,1072,2492,15792,-756,301,100
12437.356,366,220,183,365,1072,2492,15792,-756,301,100
12448.528,361,219,185,366,1072,2492,15792,-756,301,100
12448.528,356,219,188,367,1072,2492,15792,-756,301,100
12456.249,352,219,190,367,1072,2492,15792,-756,301,100
12460.322,350,219,193,367,976,3108,15800,-251,410,-78
12468.194000000001,347,218,195,368,976,3108,15800,-251,410,-78
12470.971000000001,345,219,196,368,976,3108,15800,-251,410,-78
12482.296,344,219,198,368,976,3108,15800,-251,410,-78
12482.296,342,219,201,369,976,3108,15800,-251,410,-78
12493.363000000001,341,219,203,369,976,3108,15800,-251,410,-78
12495.909,340,220,205,369,976,3108,15800,-251,410,-78
12503.925000000001,339,218,205,370,932,2824,15756,358,86,-72
12505.044,338,219,208,370,932,2824,15756,358,86,-72
12515.224999999999,336,219,209,369,932,2824,15756,358,86,-72
12519.368999999999,335,220,211,368,932,2824,15756,358,86,-72
12526.441,333,219,213,368,932,2824,15756,358,86,-72
12526.441,332,220,216,369,932,2824,15756,358,86,-72
12533.962000000001,331,219,218,368,932,2824,15756,358,86,-72
12537.793000000001,331,219,219,367,960,2896,15856,1308,99,-44
12545.884,330,219,222,367,960,2896,15856,1308,99,-44
12548.831,329,219,223,367,960,2896,15856,1308,99,-44
12560.237000000001,329,219,225,366,960,2896,15856,1308,99,-44
12561.946,329,220,227,366,960,2896,15856,1308,99,-44
12561.946,329,227,230,366,960,2896,15856,1308,99,-44
12571.829,329,230,231,366,960,2896,15856,1308,99,-44
12578.884,330,232,233,364,1020,3372,15740,1248,-45,-182
12582.423,329,234,236,363,1020,3372,15740,1248,-45,-182
12593.428,329,235,239,363,1020,3372,15740,1248,-45,-182
12593.428,329,236,242,362,1020,3372,15740,1248,-45,-182
12604.357,329,236,244,360,1020,3372,15740,1248,-45,-182
12606.690999999999,330,236,247,360,1020,3372,15740,1248,-45,-182
12616.611,330,236,249,359,1020,3372,15740,1248,-45,-182
12619.437,331,235,250,357,972,3252,15640,-262,164,-119
12626.417,331,236,253,357,972,3252,15640,-262,164,-119
12631.741999999998,331,236,256,356,972,3252,15640,-262,164,-119
12637.507,332,236,257,355,972,3252,15640,-262,164,-119
12639.832999999999,333,236,258,354,972,3252,15640,-262,164,-119
12649.241999999998,334,237,260,354,972,3252,15640,-262,164,-119
12658.238000000001,335,237,261,352,972,3252,15640,-262,164,-119
12660.321,335,237,262,351,988,3056,15772,-266,280,-61
12665.278,335,237,265,350,988,3056,15772,-266,280,-61
12670.847,335,237,266,350,988,3056,15772,-266,280,-61
12676.374,336,237,266,349,988,3056,15772,-266,280,-61
12681.805,337,238,268,348,988,3056,15772,-266,280,-61
12684.917000000001,337,238,270,348,988,3056,15772,-266,280,-61
12693.785,338,239,271,346,988,3056,15772,-266,280,-61
12703.905,338,241,273,346,924,3048,15716,223,120,9
12706.799,338,243,274,345,924,3048,15716,223,120,9
12709.457,338,246,275,345,924,3048,15716,223,120,9
12715.409,338,250,276,345,924,3048,15716,223,120,9
12720.845000000001,339,253,277,344,924,3048,15716,223,120,9
12727.297,338,256,278,343,924,3048,15716,223,120,9
12727.297,339,256,279,343,924,3048,15716,223,120,9
12738.524,339,259,279,343,924,3048,15716,223,120,9
12738.524,339,261,281,342,944,3280,15748,696,-10,-62
12748.841,339,263,282,342,944,3280,15748,696,-10,-62
12756.934,339,264,284,342,944,3280,15748,696,-10,-62
12759.94,339,265,284,341,944,3280,15748,696,-10,-62
12762.321,340,267,285,341,944,3280,15748,696,-10,-62
12771.226,340,268,286,341,944,3280,15748,696,-10,-62
12774.547,341,270,288,340,944,3280,15748,696,-10,-62
12782.059000000001,342,271,289,339,900,3132,15736,330,77,-58
12782.059000000001,341,273,291,339,900,3132,15736,330,77,-58
12793.141,341,274,293,339,900,3132,15736,330,77,-58
12793.141,342,276,294,339,900,3132,15736,330,77,-58
12804.626,341,277,295,338,900,3132,15736,330,77,-58
12804.626,341,278,296,338,900,3132,15736,330,77,-58
12814.707,341,280,297,338,900,3132,15736,330,77,-58
12815.956,342,281,297,337,900,3132,15736,330,77,-58
12826.792,340,282,298,337,952,3356,15736,-148,110,-62
12827.771,340,283,299,337,952,3356,15736,-148,110,-62
12838.471,340,284,300,337,952,3356,15736,-148,110,-62
12838.471,338,285,300,336,952,3356,15736,-148,110,-62
12845.391,337,287,301,336,952,3356,15736,-148,110,-62
12849.186,337,290,301,336,952,3356,15736,-148,110,-62
12857.335000000001,337,290,303,335,952,3356,15736,-148,110,-62
12860.02,336,289,304,335,876,3088,15652,-370,115,-26
12871.41,337,287,306,335,876,3088,15652,-370,115,-26
12873.142,336,287,307,333,876,3088,15652,-370,115,-26
12882.64,335,287,308,332,876,3088,15652,-370,115,-26
12885.452000000001,334,287,309,332,876,3088,15652,-370,115,-26
12885.452000000001,333,287,310,332,876,3088,15652,-370,115,-26
12894.28,332,288,310,331,876,3088,15652,-370,115,-26
12902.514,331,287,311,331,904,3208,15720,12,19,-9
12907.368,330,288,311,331,904,3208,15720,12,19,-9
12909.957999999999,329,289,311,331,904,3208,15720,12,19,-9
12919.832,329,289,311,330,904,3208,15720,12,19,-9
12922.123,328,290,310,329,904,3208,15720,12,19,-9
12927.128,328,291,311,329,904,3208,15720,12,19,-9
12931.296,328,292,311,329,904,3208,15720,12,19,-9
12938.195,329,292,311,328,904,3208,15720,12,19,-9
12938.195,329,293,310,328,892,3276,15668,499,-1,-51
12949.295,329,292,310,328,892,3276,15668,499,-1,-51
12958.114,328,293,310,327,892,3276,15668,499,-1,-51
12959.894,328,294,311,327,892,3276,15668,499,-1,-51
12963.217999999999,328,295,310,326,892,3276,15668,499,-1,-51
12971.139000000001,327,296,311,327,892,3276,15668,499,-1,-51
12976.262999999999,327,297,311,326,892,3276,15668,499,-1,-51
12982.153999999999,327,297,310,326,968,3272,15740,417,6,-45
12984.261999999999,326,297,310,326,968,3272,15740,417,6,-45
12993.887,325,297,311,325,968,3272,15740,417,6,-45
12993.887,325,297,310,324,968,3272,15740,417,6,-45
13000.137999999999,324,297,311,324,968,3272,15740,417,6,-45
13004.862,324,298,311,324,968,3272,15740,417,6,-45
13012.909,324,297,312,324,968,3272,15740,417,6,-45
13015.658,324,298,311,323,968,3272,15740,417,6,-45
13025.646,324,299,311,323,876,3360,15724,33,73,-28
13031.302,323,299,311,323,876,3360,15724,33,73,-28
13035.406,324,300,311,322,876,3360,15724,33,73,-28
13039.616,324,300,312,322,876,3360,15724,33,73,-28
13047.458,324,300,311,321,876,3360,15724,33,73,-28
13052.068000000001,323,301,312,322,876,3360,15724,33,73,-28
13055.876,324,301,312,322,876,3360,15724,33,73,-28
13059.686,324,302,313,321,892,3364,15708,-238,69,-52
13066.126,324,302,313,321,892,3364,15708,-238,69,-52
13071.306,325,303,313,322,892,3364,15708,-238,69,-52
13073.832,325,304,313,321,892,3364,15708,-238,69,-52
13083.067,325,304,312,321,892,3364,15708,-238,69,-52
13083.067,325,305,313,321,892,3364,15708,-238,69,-52
13093.224,325,307,313,322,892,3364,15708,-238,69,-52
13100.06,325,307,313,320,892,3364,15708,-238,69,-52
13104.096,325,308,314,320,816,3176,15688,114,49,11
13113.515,325,310,315,321,816,3176,15688,114,49,11
13115.479000000001,326,310,315,320,816,3176,15688,114,49,11
13120.386999999999,327,311,315,320,816,3176,15688,114,49,11
13124.850999999999,328,311,315,320,816,3176,15688,114,49,11
13126.679,327,311,315,320,816,3176,15688,114,49,11
13137.758,328,312,314,319,816,3176,15688,114,49,11
13137.758,327,313,315,319,904,3508,15744,457,-73,-50
13148.903,327,313,315,319,904,3508,15744,457,-73,-50
13148.903,327,314,315,319,904,3508,15744,457,-73,-50
13157.396999999999,327,314,314,318,904,3508,15744,457,-73,-50
13160.051,328,315,314,318,904,3508,15744,457,-73,-50
13168.917000000001,327,315,315,319,904,3508,15744,457,-73,-50
13171.42,328,316,314,318,904,3508,15744,457,-73,-50
13181.84,327,316,314,319,860,3292,15648,98,38,-47
13181.84,327,317,314,319,860,3292,15648,98,38,-47
13189.552000000001,327,317,315,318,860,3292,15648,98,38,-47
13193.324,327,318,315,317,860,3292,15648,98,38,-47
13201.232,327,318,316,317,860,3292,15648,98,38,-47
13204.4,327,319,316,317,860,3292,15648,98,38,-47
13210.029,327,320,316,317,860,3292,15648,98,38,-47
13216.033,327,320,316,316,860,3292,15648,98,38,-47
13221.463,326,321,316,315,892,3468,15680,-50,44,-24
13226.725,325,320,315,316,892,3468,15680,-50,44,-24
13229.514,326,321,315,316,892,3468,15680,-50,44,-24
13238.084,325,321,315,315,892,3468,15680,-50,44,-24
13238.084,325,321,314,314,892,3468,15680,-50,44,-24
13248.981,325,321,314,315,892,3468,15680,-50,44,-24
13257.079,325,321,314,314,892,3468,15680,-50,44,-24
13260.172,325,321,314,314,892,3468,15680,-50,44,-24
13269.374,324,322,314,314,948,3448,15744,-169,38,-53
13271.515000000001,323,322,313,314,948,3448,15744,-169,38,-53
13274.34,323,322,312,313,948,3448,15744,-169,38,-53
13281.974,323,322,312,313,948,3448,15744,-169,38,-53
13287.234,323,322,312,313,948,3448,15744,-169,38,-53
13293.215999999999,322,321,313,313,948,3448,15744,-169,38,-53
13295.349999999999,322,321,312,313,948,3448,15744,-169,38,-53
13305.664,321,322,312,312,852,3336,15664,-212,65,-45
13305.664,320,321,312,313,852,3336,15664,-212,65,-45
13315.329,320,321,312,313,852,3336,15664,-212,65,-45
13320.693000000001,319,321,311,312,852,3336,15664,-212,65,-45
13326.376,318,321,312,312,852,3336,15664,-212,65,-45
13326.376,318,320,312,313,852,3336,15664,-212,65,-45
13337.547,318,320,311,312,852,3336,15664,-212,65,-45
13337.547,317,319,311,312,868,3432,15724,69,41,-55
13349.257,315,318,311,312,868,3432,15724,69,41,-55
13352.458999999999,315,318,310,312,868,3432,15724,69,41,-55
13352.458999999999,314,318,311,312,868,3432,15724,69,41,-55
13359.775000000001,314,318,312,312,868,3432,15724,69,41,-55
13371.053,313,318,312,312,868,3432,15724,69,41,-55
13371.053,312,317,311,312,868,3432,15724,69,41,-55
13377.62,312,317,311,311,868,3432,15724,69,41,-55
13382.464,310,316,311,311,876,3444,15692,-63,-5,-26
13390.689,310,316,311,312,876,3444,15692,-63,-5,-26
13393.265,309,316,311,311,876,3444,15692,-63,-5,-26
13398.114,308,316,311,311,876,3444,15692,-63,-5,-26
13404.374,308,316,311,311,876,3444,15692,-63,-5,-26
13410.315,308,315,311,311,876,3444,15692,-63,-5,-26
13420.555,308,316,311,311,876,3444,15692,-63,-5,-26
13421.957,307,315,312,310,876,3376,15700,-15,32,-17
13426.952,307,315,312,310,876,3376,15700,-15,32,-17
13430.137999999999,307,315,312,310,876,3376,15700,-15,32,-17
13438.863,306,316,311,310,876,3376,15700,-15,32,-17
13438.863,305,315,311,310,876,3376,15700,-15,32,-17
13448.785000000002,304,316,312,310,876,3376,15700,-15,32,-17
13457.159000000001,304,316,312,309,876,3376,15700,-15,32,-17
13460.032,305,316,312,309,876,3376,15700,-15,32,-17
13464.34,304,315,312,309,876,3436,15632,10,27,-46
13471.775,304,316,312,309,876,3436,15632,10,27,-46
13475.594,304,315,312,308,876,3436,15632,10,27,-46
13482.232,303,316,311,308,876,3436,15632,10,27,-46
13483.898,303,315,310,307,876,3436,15632,10,27,-46
13493.046,303,314,310,309,876,3436,15632,10,27,-46
13493.046,303,316,310,307,876,3436,15632,10,27,-46
13500.025000000001,303,316,311,307,852,3284,15624,-47,4,-7
13504.868999999999,302,317,312,307,852,3284,15624,-47,4,-7
13512.432999999999,302,317,312,307,852,3284,15624,-47,4,-7
13515.625999999998,302,318,312,306,852,3284,15624,-47,4,-7
13521.387,302,318,312,306,852,3284,15624,-47,4,-7
13526.997,301,318,313,306,852,3284,15624,-47,4,-7
13535.766000000001,301,318,313,306,852,3284,15624,-47,4,-7
13537.667000000001,301,318,312,305,852,3284,15624,-47,4,-7
13540.615000000002,301,318,312,305,856,3496,15688,168,16,-34
13549.347,301,317,313,305,856,3496,15688,168,16,-34
13549.347,300,318,312,305,856,3496,15688,168,16,-34
13560.100999999999,300,318,312,305,856,3496,15688,168,16,-34
13568.277,300,318,312,305,856,3496,15688,168,16,-34
13571.251999999999,300,318,312,305,856,3496,15688,168,16,-34
13571.251999999999,300,318,312,304,856,3496,15688,168,16,-34
13582.636,300,318,312,304,912,3456,15768,-18,26,-38
13586.068,301,317,311,304,912,3456,15768,-18,26,-38
13586.068,301,317,311,304,912,3456,15768,-18,26,-38
13593.365,300,317,311,303,912,3456,15768,-18,26,-38
13604.566,300,317,310,303,912,3456,15768,-18,26,-38
13604.566,300,317,311,303,912,3456,15768,-18,26,-38
13615.608,299,317,311,303,912,3456,15768,-18,26,-38
13620.884,299,317,311,303,912,3456,15768,-18,26,-38
13620.884,298,317,311,303,908,3424,15696,-57,1,-18
13627.363000000001,299,316,312,303,908,3424,15696,-57,1,-18
13637.923,299,317,311,303,908,3424,15696,-57,1,-18
13641.598,298,316,312,302,908,3424,15696,-57,1,-18
13646.103000000001,297,316,311,302,908,3424,15696,-57,1,-18
13654.515,297,316,311,303,908,3424,15696,-57,1,-18
13657.625,297,316,310,302,908,3424,15696,-57,1,-18
13662.117,297,316,310,302,908,3424,15696,-57,1,-18
13662.117,297,316,310,303,816,3456,15644,-34,28,-37
13671.072,297,316,311,303,816,3456,15644,-34,28,-37
13676.346000000001,298,316,310,303,816,3456,15644,-34,28,-37
13681.885,297,316,310,302,816,3456,15644,-34,28,-37
