Time (ms),EMG1,EMG2,EMG3,EMG4,AccX,AccY,AccZ,GyroX,GyroY,GyroZ
1536.138,0,0,0,0,0,0,0,0,0,0
1536.138,0,0,0,0,0,0,0,0,0,0
1536.138,304,292,302,309,0,0,0,0,0,0
1550.141,304,292,302,309,0,0,0,0,0,0
1550.141,304,292,302,309,0,0,0,0,0,0
1556.6390000000001,304,292,302,309,0,0,0,0,0,0
1556.6390000000001,304,293,302,309,0,0,0,0,0,0
1561.022,304,293,302,308,0,0,0,0,0,0
1564.724,304,293,303,309,0,0,0,0,0,0
1571.589,304,293,304,309,0,0,0,0,0,0
1571.589,304,294,304,309,0,0,0,0,0,0
1577.112,305,294,304,309,0,0,0,0,0,0
1582.548,304,294,304,308,0,0,0,0,0,0
1584.867,305,294,304,308,0,0,0,0,0,0
1588.883,304,295,305,309,348,6044,15112,-47,38,-38
1593.994,305,295,305,309,348,6044,15112,-47,38,-38
1597.596,304,296,305,308,348,6044,15112,-47,38,-38
1608.072,305,297,305,308,348,6044,15112,-47,38,-38
1608.072,304,297,305,309,348,6044,15112,-47,38,-38
1616.142,305,297,305,309,348,6044,15112,-47,38,-38
1624.936,305,298,305,308,348,6044,15112,-47,38,-38
1626.943,304,299,305,308,348,6044,15112,-47,38,-38
1626.943,304,299,306,309,396,5860,14928,-184,-2,2
1638.272,304,299,305,308,396,5860,14928,-184,-2,2
1643.201,304,299,305,308,396,5860,14928,-184,-2,2
1649.012,304,299,305,309,396,5860,14928,-184,-2,2
1650.866,305,299,306,309,396,5860,14928,-184,-2,2
1660.325,305,300,305,308,396,5860,14928,-184,-2,2
1660.325,305,300,305,308,396,5860,14928,-184,-2,2
1667.292,305,300,305,309,296,5924,14940,20,45,-22
1671.358,305,300,305,309,296,5924,14940,20,45,-22
1682.1170000000002,305,301,305,309,296,5924,14940,20,45,-22
1682.1170000000002,304,301,305,308,296,5924,14940,20,45,-22
1693.252,304,301,305,309,296,5924,14940,20,45,-22
1693.252,305,301,304,309,296,5924,14940,20,45,-22
1700.38,304,301,304,308,296,5924,14940,20,45,-22
1704.674,305,301,304,308,296,5924,14940,20,45,-22
1708.2939999999999,304,301,304,308,348,5976,15004,-59,16,-18
1716.098,304,302,304,307,348,5976,15004,-59,16,-18
1716.098,304,302,304,307,348,5976,15004,-59,16,-18
1724.779,304,301,304,308,348,5976,15004,-59,16,-18
1733.189,304,302,304,308,348,5976,15004,-59,16,-18
1737.7959999999998,305,301,304,308,348,5976,15004,-59,16,-18
1740.8729999999998,304,302,304,307,348,5976,15004,-59,16,-18
1750.734,304,302,304,308,348,5976,15004,-59,16,-18
1750.734,304,302,304,308,380,5824,15024,-54,-34,14
1760.398,304,302,303,308,380,5824,15024,-54,-34,14
1765.2740000000001,304,302,303,307,380,5824,15024,-54,-34,14
1771.1699999999998,303,301,304,308,380,5824,15024,-54,-34,14
1771.1699999999998,304,301,304,308,380,5824,15024,-54,-34,14
1782.735,304,301,304,308,380,5824,15024,-54,-34,14
1785.846,304,301,304,307,380,5824,15024,-54,-34,14
1788.852,303,301,304,308,348,5988,15068,-37,38,-43
1798.109,304,300,304,307,348,5988,15068,-37,38,-43
1804.792,304,300,304,307,348,5988,15068,-37,38,-43
1804.792,304,300,304,307,348,5988,15068,-37,38,-43
1815.997,304,299,304,308,348,5988,15068,-37,38,-43
1815.997,305,300,303,307,348,5988,15068,-37,38,-43
1822.851,305,299,303,307,348,5988,15068,-37,38,-43
1827.083,304,299,304,308,336,5828,15012,-85,-26,-16
1837.6870000000001,304,299,303,307,336,5828,15012,-85,-26,-16
1837.6870000000001,304,299,303,307,336,5828,15012,-85,-26,-16
1848.6100000000001,304,299,303,307,336,5828,15012,-85,-26,-16
1848.6100000000001,304,300,303,307,336,5828,15012,-85,-26,-16
1856.355,304,299,302,307,336,5828,15012,-85,-26,-16
1860.9560000000001,305,299,302,306,336,5828,15012,-85,-26,-16
1868.104,305,299,302,307,336,5828,15012,-85,-26,-16
1874.1019999999999,305,300,302,307,356,5936,14920,-73,-16,-24
1882.627,305,299,301,306,356,5936,14920,-73,-16,-24
1882.627,305,300,301,306,356,5936,14920,-73,-16,-24
1893.5,304,300,302,307,356,5936,14920,-73,-16,-24
1896.282,304,300,301,306,356,5936,14920,-73,-16,-24
1896.282,304,300,301,306,356,5936,14920,-73,-16,-24
1904.978,304,300,301,306,356,5936,14920,-73,-16,-24
1913.029,304,300,302,306,284,5828,14956,-72,27,-6
1916.148,303,300,301,306,284,5828,14956,-72,27,-6
1922.044,303,300,301,306,284,5828,14956,-72,27,-6
1926.5339999999999,302,300,302,306,284,5828,14956,-72,27,-6
1932.854,302,300,302,306,284,5828,14956,-72,27,-6
1939.08,302,300,302,306,284,5828,14956,-72,27,-6
1947.332,302,300,302,306,284,5828,14956,-72,27,-6
1949.775,302,300,302,306,284,5828,14956,-72,27,-6
1953.635,303,299,302,307,344,5976,15040,-20,3,-30
1960.0120000000002,303,299,302,306,344,5976,15040,-20,3,-30
1960.0120000000002,302,299,302,306,344,5976,15040,-20,3,-30
1971.466,301,300,303,307,344,5976,15040,-20,3,-30
1971.466,301,300,303,307,344,5976,15040,-20,3,-30
1982.4440000000002,301,300,303,306,344,5976,15040,-20,3,-30
1988.859,302,300,303,306,344,5976,15040,-20,3,-30
1988.859,301,300,303,306,352,5816,14980,-134,9,-16
1993.646,303,301,303,306,352,5816,14980,-134,9,-16
2004.26,302,301,302,306,352,5816,14980,-134,9,-16
2006.5080000000003,302,301,302,307,352,5816,14980,-134,9,-16
2006.5080000000003,302,301,302,306,352,5816,14980,-134,9,-16
2016.6970000000001,302,301,302,306,352,5816,14980,-134,9,-16
2024.3380000000002,302,302,302,306,352,5816,14980,-134,9,-16
2026.873,302,302,302,307,352,5816,14980,-134,9,-16
2031.727,303,302,302,306,300,5932,14988,-44,7,-1
2038.256,303,302,301,306,300,5932,14988,-44,7,-1
2038.256,304,302,300,306,300,5932,14988,-44,7,-1
2049.191,304,302,300,307,300,5932,14988,-44,7,-1
2058.304,303,302,300,307,300,5932,14988,-44,7,-1
2060.547,303,302,299,306,300,5932,14988,-44,7,-1
2064.4559999999997,303,303,299,306,300,5932,14988,-44,7,-1
2070.9849999999997,304,303,299,307,324,5948,14992,-100,5,-32
2070.9849999999997,304,303,298,307,324,5948,14992,-100,5,-32
2082.7140000000004,304,303,297,306,324,5948,14992,-100,5,-32
2082.7140000000004,304,303,297,307,324,5948,14992,-100,5,-32
2093.8340000000003,304,303,297,307,324,5948,14992,-100,5,-32
2093.8340000000003,304,303,297,307,324,5948,14992,-100,5,-32
2102.675,304,303,297,306,324,5948,14992,-100,5,-32
2104.647,304,303,297,307,324,5948,14992,-100,5,-32
2115.862,304,303,296,307,316,5880,15044,-77,10,-30
2115.862,305,303,296,306,316,5880,15044,-77,10,-30
2126.844,304,303,296,306,316,5880,15044,-77,10,-30
2129.616,305,302,296,307,316,5880,15044,-77,10,-30
2129.616,305,303,296,307,316,5880,15044,-77,10,-30
2139.0,305,303,296,306,316,5880,15044,-77,10,-30
2148.497,305,302,296,307,316,5880,15044,-77,10,-30
2152.774,305,302,296,307,312,5892,14936,-69,6,-5
2157.162,305,302,296,307,312,5892,14936,-69,6,-5
2164.654,305,301,296,306,312,5892,14936,-69,6,-5
2168.783,306,301,296,307,312,5892,14936,-69,6,-5
2173.111,306,301,297,307,312,5892,14936,-69,6,-5
2175.143,305,300,297,307,312,5892,14936,-69,6,-5
2182.479,306,300,297,307,312,5892,14936,-69,6,-5
2188.8010000000004,305,300,298,307,312,5892,14936,-69,6,-5
2193.823,305,300,298,308,284,5860,15016,-36,27,-12
2195.063,305,300,298,307,284,5860,15016,-36,27,-12
2204.836,306,299,298,307,284,5860,15016,-36,27,-12
2207.392,306,299,299,307,284,5860,15016,-36,27,-12
2207.392,306,299,299,307,284,5860,15016,-36,27,-12
2216.285,307,299,299,307,284,5860,15016,-36,27,-12
2223.871,307,299,300,307,284,5860,15016,-36,27,-12
2227.0699999999997,306,299,300,307,284,5860,15016,-36,27,-12
2238.107,306,299,300,307,316,5900,15016,-61,9,-18
2238.107,306,299,300,306,316,5900,15016,-61,9,-18
2245.259,306,299,301,307,316,5900,15016,-61,9,-18
2249.138,306,299,301,307,316,5900,15016,-61,9,-18
2256.962,306,299,301,307,316,5900,15016,-61,9,-18
2260.357,306,299,301,307,316,5900,15016,-61,9,-18
2265.045,306,300,302,307,316,5900,15016,-61,9,-18
2271.183,306,300,302,307,276,5888,14988,-53,35,-15
2277.18,306,300,302,307,276,5888,14988,-53,35,-15
2282.261,306,300,302,307,276,5888,14988,-53,35,-15
2290.101,306,300,302,307,276,5888,14988,-53,35,-15
2290.101,306,300,303,307,276,5888,14988,-53,35,-15
2297.397,306,300,303,307,276,5888,14988,-53,35,-15
2304.837,306,301,303,307,276,5888,14988,-53,35,-15
2309.484,306,301,303,307,276,5888,14988,-53,35,-15
2315.799,305,301,304,307,336,5860,15016,-104,-12,-36
2325.256,305,302,303,307,336,5860,15016,-104,-12,-36
2327.592,305,302,304,307,336,5860,15016,-104,-12,-36
2327.592,304,302,304,308,336,5860,15016,-104,-12,-36
2338.101,306,302,304,307,336,5860,15016,-104,-12,-36
2344.123,305,302,304,307,336,5860,15016,-104,-12,-36
2348.9179999999997,306,303,304,307,336,5860,15016,-104,-12,-36
2354.752,304,303,304,307,356,5924,14928,-67,30,-30
2361.119,304,303,304,307,356,5924,14928,-67,30,-30
2369.222,304,303,304,306,356,5924,14928,-67,30,-30
2372.212,305,304,304,307,356,5924,14928,-67,30,-30
2372.212,304,304,304,307,356,5924,14928,-67,30,-30
2382.385,305,304,304,307,356,5924,14928,-67,30,-30
2389.71,305,304,304,307,356,5924,14928,-67,30,-30
2393.5480000000002,305,304,304,307,336,5936,15008,-64,50,-40
2393.5480000000002,305,304,304,307,336,5936,15008,-64,50,-40
2404.513,305,304,303,307,336,5936,15008,-64,50,-40
2408.56,305,304,303,307,336,5936,15008,-64,50,-40
2408.56,305,305,304,307,336,5936,15008,-64,50,-40
2416.135,305,305,304,307,336,5936,15008,-64,50,-40
2426.9880000000003,306,305,303,307,336,5936,15008,-64,50,-40
2426.9880000000003,306,304,303,307,336,5936,15008,-64,50,-40
2438.2670000000003,306,305,303,307,348,5908,14964,-65,-8,-37
2440.8089999999997,305,305,303,306,348,5908,14964,-65,-8,-37
2440.8089999999997,305,304,303,306,348,5908,14964,-65,-8,-37
2449.799,305,304,303,307,348,5908,14964,-65,-8,-37
2457.358,305,304,303,306,348,5908,14964,-65,-8,-37
2460.345,304,304,303,306,348,5908,14964,-65,-8,-37
2471.5769999999998,305,304,303,306,348,5908,14964,-65,-8,-37
2471.5769999999998,305,304,303,307,296,5872,14976,-53,57,-51
2479.144,305,303,303,306,296,5872,14976,-53,57,-51
2482.433,304,304,303,306,296,5872,14976,-53,57,-51
2489.616,305,303,303,307,296,5872,14976,-53,57,-51
2493.87,305,303,303,307,296,5872,14976,-53,57,-51
2493.87,304,303,303,306,296,5872,14976,-53,57,-51
2504.437,305,303,303,306,296,5872,14976,-53,57,-51
2511.317,305,303,304,307,280,5884,14968,-52,9,-19
2516.216,305,303,303,306,280,5884,14968,-52,9,-19
2518.769,305,302,304,306,280,5884,14968,-52,9,-19
2527.787,304,303,304,306,280,5884,14968,-52,9,-19
2527.787,305,303,304,306,280,5884,14968,-52,9,-19
2538.321,305,303,304,306,280,5884,14968,-52,9,-19
2546.325,305,303,304,306,280,5884,14968,-52,9,-19
2549.6569999999997,305,303,304,306,280,5884,14968,-52,9,-19
2549.6569999999997,306,303,304,306,356,5888,14964,-70,22,-25
2560.2599999999998,306,302,304,306,356,5888,14964,-70,22,-25
2564.589,306,302,304,306,356,5888,14964,-70,22,-25
2564.589,305,303,304,306,356,5888,14964,-70,22,-25
2571.875,306,303,304,306,356,5888,14964,-70,22,-25
2582.072,306,303,304,306,356,5888,14964,-70,22,-25
2582.072,306,303,304,306,356,5888,14964,-70,22,-25
2589.617,305,303,305,306,356,5888,14964,-70,22,-25
2593.801,306,303,304,306,332,5964,14944,-22,-16,-20
2600.767,306,303,304,305,332,5964,14944,-22,-16,-20
2605.385,306,303,305,306,332,5964,14944,-22,-16,-20
2615.7819999999997,305,303,305,306,332,5964,14944,-22,-16,-20
2615.7819999999997,305,303,305,306,332,5964,14944,-22,-16,-20
2627.153,305,303,305,305,332,5964,14944,-22,-16,-20
2629.9640000000004,305,303,305,306,332,5964,14944,-22,-16,-20
2629.9640000000004,305,303,305,306,260,5924,15012,-60,-20,-1
2639.277,304,303,306,305,260,5924,15012,-60,-20,-1
2645.9790000000003,304,303,306,305,260,5924,15012,-60,-20,-1
2649.3920000000003,303,303,306,306,260,5924,15012,-60,-20,-1
2660.638,303,303,306,306,260,5924,15012,-60,-20,-1
2660.638,303,303,307,305,260,5924,15012,-60,-20,-1
2669.373,303,302,307,306,260,5924,15012,-60,-20,-1
2671.7369999999996,302,302,307,306,352,5904,14908,1,-1,-5
2674.3920000000003,303,301,307,306,352,5904,14908,1,-1,-5
2682.605,303,302,307,305,352,5904,14908,1,-1,-5
2689.613,303,301,307,306,352,5904,14908,1,-1,-5
2693.696,304,302,308,307,352,5904,14908,1,-1,-5
2702.176,303,302,308,306,352,5904,14908,1,-1,-5
2704.741,303,302,308,306,352,5904,14908,1,-1,-5
2704.741,302,302,308,306,352,5904,14908,1,-1,-5
2712.67,303,302,308,306,316,5836,15008,-59,13,-30
2715.752,303,302,308,306,316,5836,15008,-59,13,-30
2723.801,304,302,308,305,316,5836,15008,-59,13,-30
2726.5899999999997,304,302,308,306,316,5836,15008,-59,13,-30
2726.5899999999997,303,302,308,306,316,5836,15008,-59,13,-30
2738.593,304,302,308,305,316,5836,15008,-59,13,-30
2747.132,304,302,308,305,316,5836,15008,-59,13,-30
2749.216,304,302,307,306,316,5836,15008,-59,13,-30
2758.29,304,302,307,306,344,5948,15008,-5,-7,-6
2758.29,305,302,307,305,344,5948,15008,-5,-7,-6
2766.2909999999997,305,301,307,305,344,5948,15008,-5,-7,-6
2769.772,306,302,307,305,344,5948,15008,-5,-7,-6
2778.143,305,302,307,306,344,5948,15008,-5,-7,-6
2782.1530000000002,305,302,306,305,344,5948,15008,-5,-7,-6
2784.932,305,302,306,305,344,5948,15008,-5,-7,-6
2791.5009999999997,305,302,306,305,340,5856,14940,-33,4,-8
2796.807,306,302,305,305,340,5856,14940,-33,4,-8
2804.23,306,302,305,305,340,5856,14940,-33,4,-8
2804.23,307,302,305,305,340,5856,14940,-33,4,-8
2815.7230000000004,307,302,305,306,340,5856,14940,-33,4,-8
2815.7230000000004,306,302,304,305,340,5856,14940,-33,4,-8
2822.049,308,302,304,305,340,5856,14940,-33,4,-8
2827.2940000000003,306,303,303,305,340,5856,14940,-33,4,-8
2827.2940000000003,306,303,303,305,308,5924,14964,0,2,-28
2838.1479999999997,307,303,302,305,308,5924,14964,0,2,-28
2838.1479999999997,307,303,302,305,308,5924,14964,0,2,-28
2848.291,307,304,302,305,308,5924,14964,0,2,-28
2850.39,308,304,302,306,308,5924,14964,0,2,-28
2861.012,308,304,302,306,308,5924,14964,0,2,-28
2861.012,308,304,301,305,308,5924,14964,0,2,-28
2867.143,307,305,301,305,308,5924,14964,0,2,-28
2871.854,307,305,301,306,348,5920,15012,-68,1,-17
2875.581,307,304,301,305,348,5920,15012,-68,1,-17
2883.591,307,305,301,305,348,5920,15012,-68,1,-17
2883.591,307,304,301,305,348,5920,15012,-68,1,-17
2897.876,306,304,302,306,348,5920,15012,-68,1,-17
2899.7709999999997,307,304,302,305,348,5920,15012,-68,1,-17
2904.703,307,305,302,305,348,5920,15012,-68,1,-17
2904.703,306,305,302,305,348,5920,15012,-68,1,-17
2915.719,306,305,302,305,284,5908,15012,-28,-14,-11
2921.458,306,305,302,305,284,5908,15012,-28,-14,-11
2926.456,305,306,303,305,284,5908,15012,-28,-14,-11
2928.681,305,306,303,305,284,5908,15012,-28,-14,-11
2938.671,305,306,303,305,284,5908,15012,-28,-14,-11
2938.671,306,306,304,305,284,5908,15012,-28,-14,-11
2949.547,305,306,304,305,284,5908,15012,-28,-14,-11
2949.547,304,306,304,306,288,5948,14992,-11,9,-14
2957.5119999999997,305,307,304,305,288,5948,14992,-11,9,-14
2960.4,305,307,304,305,288,5948,14992,-11,9,-14
2971.734,304,307,304,305,288,5948,14992,-11,9,-14
2971.734,304,307,304,306,288,5948,14992,-11,9,-14
2977.9629999999997,305,307,303,305,288,5948,14992,-11,9,-14
2982.847,305,308,304,304,288,5948,14992,-11,9,-14
2991.602,305,308,304,306,288,5948,14992,-11,9,-14
2993.608,305,307,304,305,352,5896,14912,-42,-2,-37
2998.417,305,307,304,305,352,5896,14912,-42,-2,-37
3005.0099999999998,305,307,304,305,352,5896,14912,-42,-2,-37
3011.281,305,307,304,305,352,5896,14912,-42,-2,-37
3015.867,306,307,304,305,352,5896,14912,-42,-2,-37
3022.875,307,307,304,305,352,5896,14912,-42,-2,-37
3027.846,307,308,304,305,352,5896,14912,-42,-2,-37
3036.179,306,308,304,306,332,5912,14976,-62,-6,2
3038.274,305,308,304,305,332,5912,14976,-62,-6,2
3043.155,306,308,304,305,332,5912,14976,-62,-6,2
3049.12,305,308,304,305,332,5912,14976,-62,-6,2
3049.12,305,307,304,306,332,5912,14976,-62,-6,2
3060.3959999999997,305,307,304,305,332,5912,14976,-62,-6,2
3060.3959999999997,305,307,304,305,332,5912,14976,-62,-6,2
3069.1670000000004,305,306,303,306,332,5912,14976,-62,-6,2
3071.4429999999998,305,306,304,306,344,5976,14968,-77,-20,-17
3082.7819999999997,305,306,303,305,344,5976,14968,-77,-20,-17
3082.7819999999997,305,306,303,305,344,5976,14968,-77,-20,-17
3093.337,304,305,303,306,344,5976,14968,-77,-20,-17
3096.289,305,304,303,306,344,5976,14968,-77,-20,-17
3096.289,304,305,302,305,344,5976,14968,-77,-20,-17
3105.684,305,304,302,305,344,5976,14968,-77,-20,-17
3113.772,306,304,302,306,348,5876,14872,-60,23,-6
3115.709,304,305,302,305,348,5876,14872,-60,23,-6
3126.5190000000002,305,306,302,305,348,5876,14872,-60,23,-6
3126.5190000000002,305,307,301,305,348,5876,14872,-60,23,-6
3136.251,304,307,302,306,348,5876,14872,-60,23,-6
3138.755,304,307,301,305,348,5876,14872,-60,23,-6
3147.362,304,308,301,305,348,5876,14872,-60,23,-6
3149.835,304,308,301,305,348,5876,14872,-60,23,-6
3153.552,305,308,300,305,308,5924,14980,-69,26,-18
3160.458,305,308,300,305,308,5924,14980,-69,26,-18
3165.923,305,308,300,305,308,5924,14980,-69,26,-18
3171.4950000000003,304,308,300,305,308,5924,14980,-69,26,-18
3174.3179999999998,305,308,299,305,308,5924,14980,-69,26,-18
3183.333,305,308,299,305,308,5924,14980,-69,26,-18
3183.333,304,308,299,305,308,5924,14980,-69,26,-18
3193.7129999999997,305,308,299,305,312,5964,14956,-81,2,-43
3201.716,304,308,298,305,312,5964,14956,-81,2,-43
3204.641,305,307,299,305,312,5964,14956,-81,2,-43
3206.891,304,308,298,305,312,5964,14956,-81,2,-43
3217.0800000000004,304,307,299,305,312,5964,14956,-81,2,-43
3217.0800000000004,304,307,298,305,312,5964,14956,-81,2,-43
3225.31,304,307,298,305,312,5964,14956,-81,2,-43
3227.8959999999997,304,307,298,305,312,5964,14956,-81,2,-43
3236.1499999999996,305,307,298,306,340,6016,15040,-48,1,-21
3238.642,306,307,298,305,340,6016,15040,-48,1,-21
3244.067,305,307,298,305,340,6016,15040,-48,1,-21
3248.889,305,307,298,305,340,6016,15040,-48,1,-21
3256.589,304,307,298,305,340,6016,15040,-48,1,-21
3260.332,304,307,298,305,340,6016,15040,-48,1,-21
3264.564,304,307,298,305,340,6016,15040,-48,1,-21
3270.916,304,307,298,305,340,6016,15040,-48,1,-21
3276.859,305,307,297,305,380,5884,14948,-115,-5,-30
3282.142,305,307,297,305,380,5884,14948,-115,-5,-30
3291.601,306,307,297,305,380,5884,14948,-115,-5,-30
3291.601,306,307,297,305,380,5884,14948,-115,-5,-30
3297.323,305,307,297,305,380,5884,14948,-115,-5,-30
3304.6169999999997,305,308,297,304,380,5884,14948,-115,-5,-30
3309.9599999999996,305,308,297,304,380,5884,14948,-115,-5,-30
3315.436,305,308,297,305,300,5876,14984,-70,8,-18
3317.7720000000004,306,308,297,304,300,5876,14984,-70,8,-18
3327.855,306,308,297,304,300,5876,14984,-70,8,-18
3327.855,306,308,298,304,300,5876,14984,-70,8,-18
3338.5919999999996,306,308,298,304,300,5876,14984,-70,8,-18
3342.7259999999997,305,308,298,304,300,5876,14984,-70,8,-18
3348.489,305,308,298,304,300,5876,14984,-70,8,-18
3348.489,305,307,298,305,300,5876,14984,-70,8,-18
3360.607,305,308,298,304,324,5888,15012,-92,-13,-29
3363.042,306,307,298,304,324,5888,15012,-92,-13,-29
3372.869,306,307,298,304,324,5888,15012,-92,-13,-29
3372.869,306,307,298,304,324,5888,15012,-92,-13,-29
3382.017,306,306,298,304,324,5888,15012,-92,-13,-29
3382.475,305,307,298,304,324,5888,15012,-92,-13,-29
3393.5,305,306,298,304,324,5888,15012,-92,-13,-29
3393.5,305,306,298,304,300,5932,14952,-70,13,-18
3399.795,304,305,298,304,300,5932,14952,-70,13,-18
3404.687,306,304,298,304,300,5932,14952,-70,13,-18
3412.96,305,304,299,305,300,5932,14952,-70,13,-18
3418.9500000000003,305,303,299,305,300,5932,14952,-70,13,-18
3420.42,305,303,299,304,300,5932,14952,-70,13,-18
3426.933,304,303,299,304,300,5932,14952,-70,13,-18
3433.354,304,303,299,305,312,5896,15052,-104,26,-22
3437.936,305,303,298,304,312,5896,15052,-104,26,-22
3444.92,304,303,299,304,312,5896,15052,-104,26,-22
3449.523,305,303,299,305,312,5896,15052,-104,26,-22
3452.489,305,303,299,305,312,5896,15052,-104,26,-22
3460.355,305,304,299,304,312,5896,15052,-104,26,-22
3471.26,304,304,299,304,312,5896,15052,-104,26,-22
3471.26,304,304,299,305,312,5896,15052,-104,26,-22
3477.014,304,304,299,304,340,5928,14924,-100,-10,0
3482.286,304,304,299,304,340,5928,14924,-100,-10,0
3491.837,304,304,299,304,340,5928,14924,-100,-10,0
3493.938,306,304,299,305,340,5928,14924,-100,-10,0
3498.027,306,304,299,304,340,5928,14924,-100,-10,0
3504.35,306,304,299,304,340,5928,14924,-100,-10,0
3510.046,304,305,299,305,340,5928,14924,-100,-10,0
3515.516,304,305,298,305,272,5908,14956,-66,8,-18
3525.321,305,305,298,304,272,5908,14956,-66,8,-18
3527.8999999999996,305,304,298,305,272,5908,14956,-66,8,-18
3527.8999999999996,305,305,298,305,272,5908,14956,-66,8,-18
3537.57,305,305,298,305,272,5908,14956,-66,8,-18
3538.021,305,305,297,304,272,5908,14956,-66,8,-18
3548.759,306,305,297,305,272,5908,14956,-66,8,-18
3548.759,305,305,297,305,272,5908,14956,-66,8,-18
3560.314,305,305,297,305,284,6016,15008,-62,24,-19
3563.029,305,306,297,304,284,6016,15008,-62,24,-19
3563.029,305,306,297,305,284,6016,15008,-62,24,-19
3572.343,305,305,296,305,284,6016,15008,-62,24,-19
3582.502,305,305,296,304,284,6016,15008,-62,24,-19
3582.502,305,305,296,304,284,6016,15008,-62,24,-19
3593.742,306,305,296,305,284,6016,15008,-62,24,-19
3593.742,305,306,296,305,328,5880,14976,-104,8,11
3599.826,305,306,296,305,328,5880,14976,-104,8,11
3604.822,305,305,296,305,328,5880,14976,-104,8,11
3614.073,305,306,296,305,328,5880,14976,-104,8,11
3616.492,305,306,296,305,328,5880,14976,-104,8,11
3621.555,305,305,296,305,328,5880,14976,-104,8,11
3626.518,306,305,297,305,328,5880,14976,-104,8,11
3633.417,305,305,297,305,328,5880,14976,-104,8,11
3638.2850000000003,305,306,297,305,320,5960,15008,-57,13,-18
3641.5510000000004,305,305,297,304,320,5960,15008,-57,13,-18
3650.443,305,306,297,305,320,5960,15008,-57,13,-18
3650.443,305,305,298,306,320,5960,15008,-57,13,-18
3660.2380000000003,305,305,297,305,320,5960,15008,-57,13,-18
3668.351,306,305,298,305,320,5960,15008,-57,13,-18
3671.093,305,304,298,305,320,5960,15008,-57,13,-18
3671.093,306,304,299,305,356,5884,14972,-62,-1,-15
3683.072,305,304,299,305,356,5884,14972,-62,-1,-15
3683.072,304,304,299,305,356,5884,14972,-62,-1,-15
3692.107,305,304,299,306,356,5884,14972,-62,-1,-15
3693.639,305,304,299,305,356,5884,14972,-62,-1,-15
3704.726,305,303,299,305,356,5884,14972,-62,-1,-15
3704.726,306,303,300,305,356,5884,14972,-62,-1,-15
3715.843,306,303,300,305,356,5884,14972,-62,-1,-15
3718.935,306,302,300,305,348,5912,14948,-51,11,-18
3718.935,306,303,300,305,348,5912,14948,-51,11,-18
3726.939,305,303,300,305,348,5912,14948,-51,11,-18
3731.094,305,302,301,305,348,5912,14948,-51,11,-18
3739.237,305,302,301,304,348,5912,14948,-51,11,-18
3739.237,305,302,300,305,348,5912,14948,-51,11,-18
3749.4719999999998,306,302,301,305,348,5912,14948,-51,11,-18
3756.249,306,302,301,305,312,5900,14960,-123,30,-29
3760.6009999999997,306,302,301,304,312,5900,14960,-123,30,-29
3766.542,304,302,301,305,312,5900,14960,-123,30,-29
3771.966,305,302,301,305,312,5900,14960,-123,30,-29
3779.9700000000003,305,302,301,305,312,5900,14960,-123,30,-29
3785.859,305,302,301,305,312,5900,14960,-123,30,-29
3789.203,305,302,301,305,312,5900,14960,-123,30,-29
3793.897,305,302,301,305,344,5912,14964,-88,12,-10
3800.814,305,302,301,305,344,5912,14964,-88,12,-10
3804.725,305,302,301,305,344,5912,14964,-88,12,-10
3809.406,305,302,301,306,344,5912,14964,-88,12,-10
3819.769,305,302,301,305,344,5912,14964,-88,12,-10
3819.769,305,302,301,305,344,5912,14964,-88,12,-10
3827.417,304,302,301,305,344,5912,14964,-88,12,-10
3835.508,305,302,301,306,344,5912,14964,-88,12,-10
3838.6589999999997,305,303,301,305,284,5940,15040,-48,28,-23
3838.6589999999997,306,303,301,305,284,5940,15040,-48,28,-23
3849.217,305,303,301,305,284,5940,15040,-48,28,-23
3855.477,305,303,301,306,284,5940,15040,-48,28,-23
3860.246,305,303,301,305,284,5940,15040,-48,28,-23
3862.5319999999997,305,303,300,305,284,5940,15040,-48,28,-23
3871.966,304,303,300,306,284,5940,15040,-48,28,-23
3871.966,305,303,301,306,332,5884,14976,-104,-1,-11
3882.8,305,303,300,305,332,5884,14976,-104,-1,-11
3882.8,305,303,300,305,332,5884,14976,-104,-1,-11
3893.691,304,303,300,305,332,5884,14976,-104,-1,-11
3901.756,304,303,300,305,332,5884,14976,-104,-1,-11
3905.046,305,303,300,305,332,5884,14976,-104,-1,-11
3905.046,304,303,301,305,332,5884,14976,-104,-1,-11
3915.82,304,304,300,305,332,5928,15000,-89,1,-36
3920.284,305,303,300,305,332,5928,15000,-89,1,-36
3926.787,305,304,300,304,332,5928,15000,-89,1,-36
3926.787,305,303,300,305,332,5928,15000,-89,1,-36
3938.725,304,303,301,305,332,5928,15000,-89,1,-36
3940.268,304,304,300,305,332,5928,15000,-89,1,-36
3940.268,304,304,300,305,332,5928,15000,-89,1,-36
3950.4049999999997,304,303,301,305,332,5928,15000,-89,1,-36
3956.6349999999998,304,304,301,305,316,5908,14972,-30,10,-12
3960.5139999999997,304,303,301,304,316,5908,14972,-30,10,-12
3971.445,305,303,301,305,316,5908,14972,-30,10,-12
3972.089,304,303,302,305,316,5908,14972,-30,10,-12
3980.161,305,304,301,305,316,5908,14972,-30,10,-12
3983.1569999999997,304,304,301,304,316,5908,14972,-30,10,-12
3989.6910000000003,304,303,302,305,316,5908,14972,-30,10,-12
3993.9320000000002,304,303,302,305,316,5908,14972,-30,10,-12
3998.535,304,304,302,305,336,5872,14960,-47,1,-22
4004.4469999999997,305,304,302,305,336,5872,14960,-47,1,-22
4009.483,305,304,302,306,336,5872,14960,-47,1,-22
4015.6340000000005,305,304,302,305,336,5872,14960,-47,1,-22
4017.8830000000003,305,304,302,305,336,5872,14960,-47,1,-22
4027.8489999999997,304,304,302,305,336,5872,14960,-47,1,-22
4027.8489999999997,304,305,303,305,336,5872,14960,-47,1,-22
4038.2400000000002,304,305,303,305,316,5900,15044,-57,-5,-20
4042.5519999999997,304,305,302,305,316,5900,15044,-57,-5,-20
4048.7419999999997,304,305,302,305,316,5900,15044,-57,-5,-20
4048.7419999999997,304,305,302,305,316,5900,15044,-57,-5,-20
4060.3499999999995,305,305,302,305,316,5900,15044,-57,-5,-20
4062.9,304,305,302,304,316,5900,15044,-57,-5,-20
4062.9,303,305,302,305,316,5900,15044,-57,-5,-20
4072.1610000000005,303,305,302,305,316,5900,15044,-57,-5,-20
4079.223,303,306,302,304,336,5892,14992,-130,-20,18
4082.623,303,306,302,305,336,5892,14992,-130,-20,18
4093.5699999999997,304,306,302,305,336,5892,14992,-130,-20,18
4096.215,304,306,302,305,336,5892,14992,-130,-20,18
4104.216,303,305,301,305,336,5892,14992,-130,-20,18
4106.355,302,306,301,305,336,5892,14992,-130,-20,18
4112.478,302,305,301,305,336,5892,14992,-130,-20,18
4115.931,302,306,301,305,320,5912,14936,-31,29,1
4126.984,302,306,301,304,320,5912,14936,-31,29,1
4126.984,302,306,301,304,320,5912,14936,-31,29,1
4132.768,302,305,301,305,320,5912,14936,-31,29,1
4137.5960000000005,303,305,301,304,320,5912,14936,-31,29,1
4140.697,303,305,300,305,320,5912,14936,-31,29,1
4149.972,302,304,301,305,320,5912,14936,-31,29,1
4149.972,302,304,301,305,320,5912,14936,-31,29,1
4158.148,302,305,301,305,344,5924,15076,-104,3,-31
4160.408,302,305,300,304,344,5924,15076,-104,3,-31
4171.331,301,304,301,305,344,5924,15076,-104,3,-31
4171.331,303,304,301,305,344,5924,15076,-104,3,-31
4182.176,303,304,300,305,344,5924,15076,-104,3,-31
4186.0160000000005,303,305,300,305,344,5924,15076,-104,3,-31
4193.022,303,304,301,305,344,5924,15076,-104,3,-31
4194.536,302,304,301,305,316,5936,14960,-79,-6,-20
4204.671,302,304,300,304,316,5936,14960,-79,-6,-20
4204.671,303,304,300,305,316,5936,14960,-79,-6,-20
4215.606,303,304,300,305,316,5936,14960,-79,-6,-20
4215.606,304,304,300,305,316,5936,14960,-79,-6,-20
4225.389,304,304,299,304,316,5936,14960,-79,-6,-20
4227.708,303,304,299,305,316,5936,14960,-79,-6,-20
4235.258,304,303,298,305,316,5936,14960,-79,-6,-20
4238.081,303,303,298,305,340,5928,14992,-110,36,-35
4248.839,303,304,297,305,340,5928,14992,-110,36,-35
4251.3240000000005,304,303,297,305,340,5928,14992,-110,36,-35
4259.325,303,303,296,305,340,5928,14992,-110,36,-35
4261.8369999999995,304,303,296,304,340,5928,14992,-110,36,-35
4267.946,304,303,296,304,340,5928,14992,-110,36,-35
4271.441000000001,304,303,295,305,340,5928,14992,-110,36,-35
4282.421,304,303,295,305,344,5880,14996,-71,13,-11
4283.253000000001,304,304,295,304,344,5880,14996,-71,13,-11
4291.812,303,304,295,305,344,5880,14996,-71,13,-11
4297.273999999999,304,304,295,305,344,5880,14996,-71,13,-11
4297.273999999999,304,304,294,305,344,5880,14996,-71,13,-11
4305.888999999999,305,305,294,305,344,5880,14996,-71,13,-11
4305.888999999999,305,305,295,305,344,5880,14996,-71,13,-11
4316.062,306,305,295,305,344,5912,14928,-86,-4,-28
4324.138,304,305,294,305,344,5912,14928,-86,-4,-28
4326.282,305,305,295,305,344,5912,14928,-86,-4,-28
4329.128,304,305,295,306,344,5912,14928,-86,-4,-28
4338.8,304,305,295,306,344,5912,14928,-86,-4,-28
4338.8,305,305,295,305,344,5912,14928,-86,-4,-28
4349.518,306,304,296,306,344,5912,14928,-86,-4,-28
4349.518,305,304,296,306,344,5912,14928,-86,-4,-28
4360.462,306,304,296,305,324,5956,15044,-70,11,-17
4369.411999999999,304,304,297,305,324,5956,15044,-70,11,-17
4371.213,304,304,297,306,324,5956,15044,-70,11,-17
4371.213,304,303,298,306,324,5956,15044,-70,11,-17
4382.563,304,303,298,305,324,5956,15044,-70,11,-17
4382.563,304,303,298,306,324,5956,15044,-70,11,-17
4393.383,306,302,300,306,324,5956,15044,-70,11,-17
4401.404,304,302,300,306,308,5896,14960,-52,5,-24
4404.752,306,301,300,305,308,5896,14960,-52,5,-24
4404.752,304,302,300,305,308,5896,14960,-52,5,-24
4413.313999999999,304,302,301,306,308,5896,14960,-52,5,-24
4415.695000000001,304,302,301,306,308,5896,14960,-52,5,-24
4423.9220000000005,304,302,301,305,308,5896,14960,-52,5,-24
4426.89,305,301,302,305,308,5896,14960,-52,5,-24
4437.700000000001,305,302,302,305,308,5896,14960,-52,5,-24
4439.82,305,302,302,305,352,5908,14984,-37,12,-9
4439.82,305,302,302,305,352,5908,14984,-37,12,-9
4450.303,304,303,303,305,352,5908,14984,-37,12,-9
4454.676,304,302,303,305,352,5908,14984,-37,12,-9
4461.017,305,302,303,305,352,5908,14984,-37,12,-9
4461.017,305,303,303,304,352,5908,14984,-37,12,-9
4471.441000000001,304,304,304,306,352,5908,14984,-37,12,-9
4479.53,305,303,304,305,324,5896,14976,-70,-11,-26
4481.625,304,304,304,305,324,5896,14976,-70,-11,-26
4484.691,305,304,304,305,324,5896,14976,-70,-11,-26
4494.696,304,305,305,305,324,5896,14976,-70,-11,-26
4494.696,304,305,304,305,324,5896,14976,-70,-11,-26
4504.905,304,305,304,305,324,5896,14976,-70,-11,-26
4504.905,303,305,305,305,324,5896,14976,-70,-11,-26
4515.961,304,305,305,305,324,5896,14976,-70,-11,-26
4524.062,304,305,304,305,292,5864,14936,-64,-1,-23
4526.987,304,306,305,304,292,5864,14936,-64,-1,-23
4526.987,304,305,305,305,292,5864,14936,-64,-1,-23
4537.968,304,306,305,305,292,5864,14936,-64,-1,-23
4542.222,304,306,305,305,292,5864,14936,-64,-1,-23
4548.909,304,307,305,305,292,5864,14936,-64,-1,-23
4548.909,303,306,305,306,292,5864,14936,-64,-1,-23
4559.9439999999995,304,307,304,305,336,5952,14996,-74,17,-17
4562.715,304,307,304,305,336,5952,14996,-74,17,-17
4570.714,304,308,304,305,336,5952,14996,-74,17,-17
4572.602,304,307,305,305,336,5952,14996,-74,17,-17
4579.513000000001,304,307,304,305,336,5952,14996,-74,17,-17
4582.343,304,308,304,305,336,5952,14996,-74,17,-17
4593.577,304,308,304,305,336,5952,14996,-74,17,-17
4594.592,304,309,304,305,336,5952,14996,-74,17,-17
4599.818,306,308,304,305,328,5932,14972,-44,-10,-40
4604.715999999999,305,308,304,305,328,5932,14972,-44,-10,-40
4611.589999999999,304,308,304,305,328,5932,14972,-44,-10,-40
4616.1,304,308,304,305,328,5932,14972,-44,-10,-40
4626.799,304,308,304,304,328,5932,14972,-44,-10,-40
4626.799,304,308,304,305,328,5932,14972,-44,-10,-40
4632.125,304,308,304,305,328,5932,14972,-44,-10,-40
4637.803,305,308,303,304,336,5868,15024,-98,9,-43
4647.12,305,308,303,304,336,5868,15024,-98,9,-43
4650.1359999999995,304,308,304,305,336,5868,15024,-98,9,-43
4658.259,304,308,303,305,336,5868,15024,-98,9,-43
4660.523999999999,304,308,303,304,336,5868,15024,-98,9,-43
4660.523999999999,304,308,304,304,336,5868,15024,-98,9,-43
4671.697,304,308,304,305,336,5868,15024,-98,9,-43
4671.697,304,308,304,305,352,5848,14956,-99,-7,-36
4680.498,304,308,303,304,352,5848,14956,-99,-7,-36
4688.4980000000005,305,307,304,305,352,5848,14956,-99,-7,-36
4695.168,305,307,304,305,352,5848,14956,-99,-7,-36
4698.787,305,307,304,305,352,5848,14956,-99,-7,-36
4698.787,304,307,304,304,352,5848,14956,-99,-7,-36
4705.879000000001,304,308,304,304,352,5848,14956,-99,-7,-36
4715.861,304,307,305,305,352,5848,14956,-99,-7,-36
4715.861,304,307,304,305,296,5876,14972,-56,49,-27
4727.353,304,307,304,305,296,5876,14972,-56,49,-27
4730.459,304,307,305,305,296,5876,14972,-56,49,-27
4730.459,304,307,305,305,296,5876,14972,-56,49,-27
4738.314,305,307,305,304,296,5876,14972,-56,49,-27
4749.686,304,307,304,304,296,5876,14972,-56,49,-27
4749.686,304,307,305,305,296,5876,14972,-56,49,-27
4760.529,304,308,304,304,356,5924,15008,-41,-2,-31
4760.529,305,308,304,304,356,5924,15008,-41,-2,-31
4768.206,304,307,304,304,356,5924,15008,-41,-2,-31
4771.604,305,308,304,304,356,5924,15008,-41,-2,-31
4782.453,306,308,304,304,356,5924,15008,-41,-2,-31
4782.453,305,308,303,304,356,5924,15008,-41,-2,-31
4788.717000000001,304,308,304,304,356,5924,15008,-41,-2,-31
4796.414000000001,304,309,303,304,356,5924,15008,-41,-2,-31
4800.555,304,309,303,304,300,5916,15004,-97,-25,-23
4805.204,304,309,303,304,300,5916,15004,-97,-25,-23
4809.103,304,309,303,304,300,5916,15004,-97,-25,-23
4816.835,304,309,303,304,300,5916,15004,-97,-25,-23
4816.835,304,309,303,303,300,5916,15004,-97,-25,-23
4826.646000000001,303,309,303,304,300,5916,15004,-97,-25,-23
4832.889,303,309,303,304,300,5916,15004,-97,-25,-23
4838.072999999999,303,309,302,304,336,5960,14920,-68,15,-19
4847.104,303,309,302,304,336,5960,14920,-68,15,-19
4849.261,302,309,303,304,336,5960,14920,-68,15,-19
4854.344,302,309,303,304,336,5960,14920,-68,15,-19
4859.629,303,308,303,304,336,5960,14920,-68,15,-19
4866.385,303,308,303,303,336,5960,14920,-68,15,-19
4871.269,302,307,303,304,336,5960,14920,-68,15,-19
4874.5070000000005,302,307,303,304,308,5916,14984,-69,-11,-21
4883.6449999999995,302,306,302,304,308,5916,14984,-69,-11,-21
4883.6449999999995,302,306,303,304,308,5916,14984,-69,-11,-21
4894.56,302,306,303,304,308,5916,14984,-69,-11,-21
4900.144,302,306,303,304,308,5916,14984,-69,-11,-21
4904.305,302,305,303,304,308,5916,14984,-69,-11,-21
4913.627,302,305,303,305,308,5916,14984,-69,-11,-21
4915.608,302,306,303,304,308,5916,14984,-69,-11,-21
4918.548000000001,302,305,303,304,272,5932,14960,-101,-8,-12
4926.684,302,305,303,304,272,5932,14960,-101,-8,-12
4931.864,302,305,303,304,272,5932,14960,-101,-8,-12
4937.344,302,306,303,304,272,5932,14960,-101,-8,-12
4937.344,303,306,303,304,272,5932,14960,-101,-8,-12
4949.1759999999995,303,305,303,304,272,5932,14960,-101,-8,-12
4958.126,303,306,303,305,272,5932,14960,-101,-8,-12
4962.459,303,306,302,304,376,5932,15008,-74,0,-40
4964.871999999999,303,307,302,304,376,5932,15008,-74,0,-40
4964.871999999999,303,307,302,305,376,5932,15008,-74,0,-40
4971.396000000001,303,308,301,305,376,5932,15008,-74,0,-40
4982.279,303,309,301,304,376,5932,15008,-74,0,-40
4982.279,303,310,301,304,376,5932,15008,-74,0,-40
4994.423000000001,304,310,301,305,376,5932,15008,-74,0,-40
4994.423000000001,304,311,300,305,376,5932,15008,-74,0,-40
5001.628000000001,303,312,300,304,324,5936,14932,-106,-2,-3
5004.665,303,312,299,305,324,5936,14932,-106,-2,-3
5009.52,303,312,299,305,324,5936,14932,-106,-2,-3
5016.022999999999,303,312,299,305,324,5936,14932,-106,-2,-3
5022.191000000001,304,313,298,305,324,5936,14932,-106,-2,-3
5027.243,304,313,298,305,324,5936,14932,-106,-2,-3
5033.522,305,312,298,306,324,5936,14932,-106,-2,-3
5038.48,304,313,298,305,388,5924,14992,-82,31,-24
5041.979,304,312,297,305,388,5924,14992,-82,31,-24
5050.035,304,312,298,306,388,5924,14992,-82,31,-24
5050.035,304,312,298,306,388,5924,14992,-82,31,-24
5060.945000000001,304,312,298,305,388,5924,14992,-82,31,-24
5066.671,305,311,298,305,388,5924,14992,-82,31,-24
5071.597,305,310,298,305,388,5924,14992,-82,31,-24
5074.493,305,310,298,306,388,5924,14992,-82,31,-24
5083.039000000001,306,309,299,305,364,5932,14996,-56,6,-23
5083.039000000001,306,309,299,305,364,5932,14996,-56,6,-23
5093.719,306,308,300,306,364,5932,14996,-56,6,-23
5094.726,305,308,300,306,364,5932,14996,-56,6,-23
5104.977,306,308,300,305,364,5932,14996,-56,6,-23
5104.977,305,307,301,305,364,5932,14996,-56,6,-23
5115.986999999999,305,306,301,306,364,5932,14996,-56,6,-23
5120.308,305,306,301,305,336,5840,14996,-45,23,-23
5126.611,306,306,302,305,336,5840,14996,-45,23,-23
5127.922,305,305,303,306,336,5840,14996,-45,23,-23
5138.326,305,305,303,306,336,5840,14996,-45,23,-23
5138.326,305,304,303,305,336,5840,14996,-45,23,-23
5147.084000000001,305,304,304,305,336,5840,14996,-45,23,-23
5149.269,305,304,304,306,336,5840,14996,-45,23,-23
5158.292,306,303,305,306,336,5840,14996,-45,23,-23
5163.37,306,302,305,305,348,5900,15028,-41,17,-34
5171.037,307,302,305,305,348,5900,15028,-41,17,-34
5175.112999999999,306,302,305,305,348,5900,15028,-41,17,-34
5179.491,306,302,305,305,348,5900,15028,-41,17,-34
5187.134999999999,306,302,305,305,348,5900,15028,-41,17,-34
5189.151,306,301,306,305,348,5900,15028,-41,17,-34
5194.794,306,301,306,306,348,5900,15028,-41,17,-34
5194.794,307,301,306,305,324,5936,14920,-61,1,0
5204.761,306,301,306,305,324,5936,14920,-61,1,0
5212.765,306,301,306,305,324,5936,14920,-61,1,0
5215.078,307,301,307,306,324,5936,14920,-61,1,0
5217.713,307,302,306,305,324,5936,14920,-61,1,0
5227.01,306,302,307,305,324,5936,14920,-61,1,0
5229.851,307,301,307,305,324,5936,14920,-61,1,0
5229.851,306,301,307,306,324,5936,14920,-61,1,0
5238.148,306,301,307,305,344,5876,15016,-2,5,-20
5248.995,307,301,307,305,344,5876,15016,-2,5,-20
5248.995,306,301,308,306,344,5876,15016,-2,5,-20
5255.651,306,301,307,306,344,5876,15016,-2,5,-20
5260.150000000001,306,301,307,305,344,5876,15016,-2,5,-20
5263.46,306,302,308,305,344,5876,15016,-2,5,-20
5272.732999999999,305,302,308,306,344,5876,15016,-2,5,-20
5272.732999999999,305,302,308,306,344,5876,15016,-2,5,-20
5282.653,305,302,308,306,316,5932,14976,-30,16,-25
5282.705,305,302,308,306,316,5932,14976,-30,16,-25
5292.58,306,302,308,306,316,5932,14976,-30,16,-25
5296.914,305,302,309,306,316,5932,14976,-30,16,-25
5304.598,305,302,308,305,316,5932,14976,-30,16,-25
5307.729,305,302,309,306,316,5932,14976,-30,16,-25
5307.729,305,303,309,306,316,5932,14976,-30,16,-25
5315.262,304,303,309,306,300,5916,15024,-36,12,-28
5327.179,305,303,308,305,300,5916,15024,-36,12,-28
5327.179,305,303,309,305,300,5916,15024,-36,12,-28
5337.936,305,303,309,306,300,5916,15024,-36,12,-28
5341.04,305,302,309,305,300,5916,15024,-36,12,-28
5341.04,306,302,309,305,300,5916,15024,-36,12,-28
5350.135,304,303,309,306,300,5916,15024,-36,12,-28
5358.437999999999,304,302,310,306,300,5916,15024,-36,12,-28
5361.0199999999995,305,303,309,305,296,5936,15012,-31,-3,-1
5369.081,305,303,309,305,296,5936,15012,-31,-3,-1
5371.111,305,302,309,306,296,5936,15012,-31,-3,-1
5377.6,305,302,309,305,296,5936,15012,-31,-3,-1
5382.8009999999995,305,302,309,305,296,5936,15012,-31,-3,-1
5391.786,305,302,309,305,296,5936,15012,-31,-3,-1
5394.983,305,302,309,305,296,5936,15012,-31,-3,-1
5397.897000000001,304,301,309,305,300,5916,14964,-33,10,-31
5404.447,305,302,309,305,300,5916,14964,-33,10,-31
5404.447,305,301,309,305,300,5916,14964,-33,10,-31
5415.731,306,301,308,305,300,5916,14964,-33,10,-31
5415.731,306,301,308,305,300,5916,14964,-33,10,-31
5426.773,306,301,308,304,300,5916,14964,-33,10,-31
5431.206999999999,306,302,308,305,300,5916,14964,-33,10,-31
5438.094999999999,306,302,308,305,300,5916,14964,-33,10,-31
5438.094999999999,306,303,308,304,300,5840,14992,-7,2,-13
5449.435,306,303,308,305,300,5840,14992,-7,2,-13
5449.435,306,303,309,305,300,5840,14992,-7,2,-13
5456.151,306,304,308,305,300,5840,14992,-7,2,-13
5460.848999999999,306,304,308,304,300,5840,14992,-7,2,-13
5469.486,306,304,308,305,300,5840,14992,-7,2,-13
5474.723,306,304,309,305,300,5840,14992,-7,2,-13
5476.206999999999,306,305,309,305,300,5840,14992,-7,2,-13
5482.133,306,305,309,305,364,5936,14960,-1,-15,-24
5489.149,306,305,309,305,364,5936,14960,-1,-15,-24
5494.998,306,305,309,305,364,5936,14960,-1,-15,-24
5496.900000000001,308,305,309,305,364,5936,14960,-1,-15,-24
5505.557,307,306,309,305,364,5936,14960,-1,-15,-24
5505.557,307,306,309,305,364,5936,14960,-1,-15,-24
5516.1449999999995,306,306,309,305,364,5936,14960,-1,-15,-24
5524.205,306,307,309,305,400,5908,15008,16,-9,-17
5527.368,307,307,308,305,400,5908,15008,16,-9,-17
5527.368,306,307,309,306,400,5908,15008,16,-9,-17
5537.812,306,307,309,305,400,5908,15008,16,-9,-17
5541.705999999999,306,307,308,305,400,5908,15008,16,-9,-17
5541.705999999999,306,307,309,304,400,5908,15008,16,-9,-17
5549.396,306,308,308,305,400,5908,15008,16,-9,-17
5560.313,307,309,309,305,400,5908,15008,16,-9,-17
5560.313,305,309,308,304,388,5940,14984,10,-22,30
5566.544000000001,305,309,308,305,388,5940,14984,10,-22,30
5571.403,305,309,309,305,388,5940,14984,10,-22,30
5578.523999999999,304,310,308,304,388,5940,14984,10,-22,30
5582.806,305,310,308,304,388,5940,14984,10,-22,30
5587.1089999999995,305,310,308,305,388,5940,14984,10,-22,30
5594.963,305,311,308,305,388,5940,14984,10,-22,30
5594.963,305,310,307,304,336,5944,14968,-15,-5,-17
5605.273999999999,304,311,307,304,336,5944,14968,-15,-5,-17
5614.048000000001,304,311,307,305,336,5944,14968,-15,-5,-17
5616.165,303,311,307,305,336,5944,14968,-15,-5,-17
5616.165,304,310,306,304,336,5944,14968,-15,-5,-17
5626.883000000001,303,311,306,304,336,5944,14968,-15,-5,-17
5631.937,304,310,306,304,336,5944,14968,-15,-5,-17
5637.5830000000005,305,309,306,305,336,5944,14968,-15,-5,-17
5639.849,305,309,305,304,368,5980,14912,-5,-6,-21
5649.871,305,309,305,304,368,5980,14912,-5,-6,-21
5649.871,305,308,305,304,368,5980,14912,-5,-6,-21
5660.533,306,308,305,304,368,5980,14912,-5,-6,-21
5664.083,305,308,304,304,368,5980,14912,-5,-6,-21
5671.264,306,308,305,304,368,5980,14912,-5,-6,-21
5671.264,307,307,304,304,368,5980,14912,-5,-6,-21
5682.398,306,307,304,304,420,5996,14956,-43,0,-10
5685.412,307,307,304,304,420,5996,14956,-43,0,-10
5685.412,306,307,304,304,420,5996,14956,-43,0,-10
5694.9529999999995,306,307,303,304,420,5996,14956,-43,0,-10
5703.069,307,307,303,304,420,5996,14956,-43,0,-10
5705.46,307,306,302,304,420,5996,14956,-43,0,-10
5709.46,307,306,302,304,420,5996,14956,-43,0,-10
5715.555,308,306,302,304,420,5996,14956,-43,0,-10
5721.790999999999,308,306,301,303,364,6004,14908,-25,-25,-38
5727.089,308,306,300,303,364,6004,14908,-25,-25,-38
5729.838,307,306,300,304,364,6004,14908,-25,-25,-38
5738.938,308,306,300,304,364,6004,14908,-25,-25,-38
5738.938,308,305,299,303,364,6004,14908,-25,-25,-38
5749.004,308,305,299,304,364,6004,14908,-25,-25,-38
5757.052,307,305,298,304,364,6004,14908,-25,-25,-38
5759.469,309,305,298,303,364,5972,14928,-69,0,-12
5762.581,308,304,297,304,364,5972,14928,-69,0,-12
5771.637,307,304,297,304,364,5972,14928,-69,0,-12
5771.637,307,304,296,304,364,5972,14928,-69,0,-12
5779.084,307,303,296,303,364,5972,14928,-69,0,-12
5782.45,308,303,295,304,364,5972,14928,-69,0,-12
5791.335,308,303,295,304,364,5972,14928,-69,0,-12
5796.523999999999,308,303,295,304,364,5972,14928,-69,0,-12
5805.088,309,302,294,304,316,5960,14980,-8,-4,-41
5808.122,309,302,295,304,316,5960,14980,-8,-4,-41
5808.122,308,301,294,304,316,5960,14980,-8,-4,-41
5816.521,308,301,294,304,316,5960,14980,-8,-4,-41
5826.547,308,301,294,304,316,5960,14980,-8,-4,-41
5826.547,308,301,294,304,316,5960,14980,-8,-4,-41
5832.259,308,300,294,304,316,5960,14980,-8,-4,-41
5837.871,308,301,293,304,360,5968,14996,-68,7,-16
5844.277,309,300,293,303,360,5968,14996,-68,7,-16
5849.498,309,300,293,304,360,5968,14996,-68,7,-16
5858.469999999999,308,300,293,304,360,5968,14996,-68,7,-16
5860.419,308,299,293,304,360,5968,14996,-68,7,-16
5866.275,308,299,293,303,360,5968,14996,-68,7,-16
5870.948,307,299,294,304,360,5968,14996,-68,7,-16
5870.948,307,299,294,304,360,5968,14996,-68,7,-16
5882.404,307,298,294,304,284,5932,14964,-2,-2,10
5886.538,308,298,294,304,284,5932,14964,-2,-2,10
5886.538,308,297,294,304,284,5932,14964,-2,-2,10
5894.845,307,297,295,304,284,5932,14964,-2,-2,10
5904.775,308,297,295,304,284,5932,14964,-2,-2,10
5904.775,307,297,295,304,284,5932,14964,-2,-2,10
5911.894,307,296,296,305,284,5932,14964,-2,-2,10
5915.989,307,297,295,304,284,5932,14964,-2,-2,10
5924.954,307,296,296,304,404,5992,14964,-24,3,-14
5926.799,307,295,296,304,404,5992,14964,-24,3,-14
5930.397,307,295,296,305,404,5992,14964,-24,3,-14
5937.905,307,295,296,304,404,5992,14964,-24,3,-14
5942.75,308,295,296,304,404,5992,14964,-24,3,-14
5948.959999999999,306,296,296,304,404,5992,14964,-24,3,-14
5951.114,306,297,297,304,404,5992,14964,-24,3,-14
5960.496,306,297,297,304,352,6016,15032,-27,0,-33
5960.496,306,297,297,304,352,6016,15032,-27,0,-33
5971.114,306,297,297,304,352,6016,15032,-27,0,-33
5975.758,306,297,298,305,352,6016,15032,-27,0,-33
5982.1179999999995,306,298,298,305,352,6016,15032,-27,0,-33
5982.1179999999995,307,298,298,304,352,6016,15032,-27,0,-33
5995.189,306,299,298,305,352,6016,15032,-27,0,-33
5996.16,306,299,298,305,352,6016,15032,-27,0,-33
5996.16,306,300,298,304,348,5936,14936,-40,12,-19
6005.722,305,300,298,304,348,5936,14936,-40,12,-19
6013.723,306,300,299,305,348,5936,14936,-40,12,-19
6015.63,305,300,299,305,348,5936,14936,-40,12,-19
6026.582,306,300,299,304,348,5936,14936,-40,12,-19
6026.582,306,301,299,304,348,5936,14936,-40,12,-19
6033.53,306,301,300,306,348,5936,14936,-40,12,-19
6038.289,305,301,300,305,348,5936,14936,-40,12,-19
6041.25,305,301,300,305,392,6028,14944,-2,-7,-28
6049.508000000001,306,301,300,305,392,6028,14944,-2,-7,-28
6049.508000000001,306,301,301,305,392,6028,14944,-2,-7,-28
6060.402,306,301,300,305,392,6028,14944,-2,-7,-28
6067.033,306,302,300,305,392,6028,14944,-2,-7,-28
6071.228,306,302,301,305,392,6028,14944,-2,-7,-28
6075.442,306,302,301,305,392,6028,14944,-2,-7,-28
6083.365,305,303,300,305,372,6048,14956,-67,3,-38
6083.365,305,303,300,305,372,6048,14956,-67,3,-38
6090.758,305,303,300,305,372,6048,14956,-67,3,-38
6095.153,305,303,300,305,372,6048,14956,-67,3,-38
6104.464,305,304,300,305,372,6048,14956,-67,3,-38
6104.464,305,304,300,305,372,6048,14956,-67,3,-38
6111.289,305,304,300,305,372,6048,14956,-67,3,-38
6116.01,304,304,300,305,372,6048,14956,-67,3,-38
6123.313999999999,304,304,299,304,316,5968,14972,-84,-4,-29
6126.984,304,305,299,305,316,5968,14972,-84,-4,-29
6131.947,304,305,300,305,316,5968,14972,-84,-4,-29
6139.049,304,305,299,305,316,5968,14972,-84,-4,-29
6147.4890000000005,305,305,299,305,316,5968,14972,-84,-4,-29
6149.292,304,305,299,305,316,5968,14972,-84,-4,-29
6155.86,304,305,299,305,316,5968,14972,-84,-4,-29
6160.334,304,306,299,305,332,5936,14996,-86,-1,-5
6164.452,304,306,298,305,332,5936,14996,-86,-1,-5
6171.395,303,306,299,305,332,5936,14996,-86,-1,-5
6177.096,304,306,298,305,332,5936,14996,-86,-1,-5
6182.393,303,306,298,305,332,5936,14996,-86,-1,-5
6184.78,304,305,298,305,332,5936,14996,-86,-1,-5
6195.121,304,305,298,305,332,5936,14996,-86,-1,-5
6195.121,304,305,298,305,332,5936,14996,-86,-1,-5
6205.054999999999,304,306,298,305,308,6012,14976,-50,30,-30
6205.054999999999,304,306,298,305,308,6012,14976,-50,30,-30
6216.044,304,305,298,305,308,6012,14976,-50,30,-30
6216.044,304,305,297,305,308,6012,14976,-50,30,-30
6226.705,305,306,297,304,308,6012,14976,-50,30,-30
6229.8859999999995,305,305,297,305,308,6012,14976,-50,30,-30
6229.8859999999995,305,305,297,305,308,6012,14976,-50,30,-30
6238.969,306,305,297,305,412,5976,14972,-92,-28,10
6246.416,306,306,297,305,412,5976,14972,-92,-28,10
6249.193,305,306,297,305,412,5976,14972,-92,-28,10
6259.782999999999,305,305,297,305,412,5976,14972,-92,-28,10
6259.782999999999,305,305,297,304,412,5976,14972,-92,-28,10
6269.445,305,306,297,305,412,5976,14972,-92,-28,10
6276.645,305,305,297,305,412,5976,14972,-92,-28,10
6281.17,305,305,297,305,412,5976,14972,-92,-28,10
6285.517,304,305,297,305,348,6032,15016,-43,-9,-8
6293.322,304,306,297,305,348,6032,15016,-43,-9,-8
6296.42,304,306,298,305,348,6032,15016,-43,-9,-8
6299.296,303,306,298,305,348,6032,15016,-43,-9,-8
6304.642000000001,304,306,298,304,348,6032,15016,-43,-9,-8
6307.862,303,306,298,305,348,6032,15016,-43,-9,-8
6317.469,304,305,299,306,348,6032,15016,-43,-9,-8
6317.469,303,305,299,305,340,6040,14960,-79,7,-21
6327.235,303,305,299,305,340,6040,14960,-79,7,-21
6332.906,302,305,299,305,340,6040,14960,-79,7,-21
6338.108,302,305,300,305,340,6040,14960,-79,7,-21
6338.108,302,305,299,305,340,6040,14960,-79,7,-21
6349.47,302,305,300,304,340,6040,14960,-79,7,-21
6352.749,302,304,301,305,340,6040,14960,-79,7,-21
6352.749,303,304,301,305,340,6040,14960,-79,7,-21
6361.646000000001,303,304,301,305,308,5948,14960,-47,6,-24
6369.645,303,304,301,305,308,5948,14960,-47,6,-24
6372.044,302,304,301,305,308,5948,14960,-47,6,-24
6378.487,302,304,301,305,308,5948,14960,-47,6,-24
6382.450000000001,302,304,301,304,308,5948,14960,-47,6,-24
6389.801,302,304,302,305,308,5948,14960,-47,6,-24
6395.539000000001,302,304,302,305,308,5948,14960,-47,6,-24
6397.775000000001,303,305,301,305,308,5948,14960,-47,6,-24
6404.771000000001,303,304,301,305,388,5948,14988,-78,3,-32
6411.418000000001,303,305,301,305,388,5948,14988,-78,3,-32
6415.414,302,305,302,305,388,5948,14988,-78,3,-32
6418.214,302,305,301,305,388,5948,14988,-78,3,-32
6428.009999999999,302,305,301,305,388,5948,14988,-78,3,-32
6428.009999999999,302,305,301,306,388,5948,14988,-78,3,-32
6438.355,301,305,301,305,388,5948,14988,-78,3,-32
6438.355,302,305,300,304,372,6008,14908,-70,-13,-16
6449.019,302,305,300,305,372,6008,14908,-70,-13,-16
6457.136,302,305,300,305,372,6008,14908,-70,-13,-16
6460.134,302,304,300,305,372,6008,14908,-70,-13,-16
6462.843000000001,302,305,300,305,372,6008,14908,-70,-13,-16
6472.326,302,305,300,305,372,6008,14908,-70,-13,-16
6472.326,301,305,300,305,372,6008,14908,-70,-13,-16
6480.420999999999,302,305,299,305,376,6008,15012,-68,19,-32
6482.756,303,305,299,305,376,6008,15012,-68,19,-32
6493.763000000001,303,305,299,305,376,6008,15012,-68,19,-32
6495.777999999999,302,305,299,306,376,6008,15012,-68,19,-32
6506.777999999999,303,305,299,305,376,6008,15012,-68,19,-32
6507.727,302,305,299,305,376,6008,15012,-68,19,-32
6515.253000000001,303,305,299,305,376,6008,15012,-68,19,-32
6519.4890000000005,303,305,299,305,376,6008,15012,-68,19,-32
6527.116999999999,303,305,299,304,384,5972,14988,-26,-24,-27
6527.116999999999,304,305,299,305,384,5972,14988,-26,-24,-27
6538.201,304,305,299,305,384,5972,14988,-26,-24,-27
6540.753,304,305,299,305,384,5972,14988,-26,-24,-27
6540.753,303,306,300,304,384,5972,14988,-26,-24,-27
6549.773,303,305,300,305,384,5972,14988,-26,-24,-27
6560.435,303,306,300,306,384,5972,14988,-26,-24,-27
6560.435,303,305,300,305,356,5984,14964,-50,-21,0
6560.435,302,305,300,305,356,5984,14964,-50,-21,0
6571.618,303,305,301,306,356,5984,14964,-50,-21,0
6580.487,303,304,301,306,356,5984,14964,-50,-21,0
6582.656,303,304,301,306,356,5984,14964,-50,-21,0
6591.719,302,305,302,306,356,5984,14964,-50,-21,0
6595.907,302,304,303,307,356,5984,14964,-50,-21,0
6595.907,303,304,303,306,356,5984,14964,-50,-21,0
6604.665,303,303,304,306,340,6024,14980,54,-27,17
6604.665,303,303,305,306,340,6024,14980,54,-27,17
6616.314,304,302,305,307,340,6024,14980,54,-27,17
6616.314,304,301,305,306,340,6024,14980,54,-27,17
6626.803,305,301,306,306,340,6024,14980,54,-27,17
6626.803,304,300,306,306,340,6024,14980,54,-27,17
6637.065,305,300,307,306,340,6024,14980,54,-27,17
6639.0599999999995,305,300,307,306,376,6024,14948,55,17,17
6650.011,306,300,308,305,376,6024,14948,55,17,17
6650.011,305,301,308,306,376,6024,14948,55,17,17
6658.400000000001,306,300,309,306,376,6024,14948,55,17,17
6660.969,306,300,309,305,376,6024,14948,55,17,17
6669.446,306,300,310,305,376,6024,14948,55,17,17
6671.769,307,300,310,305,376,6024,14948,55,17,17
6675.713,307,301,310,305,376,6024,14948,55,17,17
6682.218,307,301,310,304,348,5988,15008,37,-15,-11
6688.88,309,302,310,305,348,5988,15008,37,-15,-11
6693.652,308,302,311,305,348,5988,15008,37,-15,-11
6696.941,310,302,310,304,348,5988,15008,37,-15,-11
6706.083,311,302,310,304,348,5988,15008,37,-15,-11
6706.083,310,303,310,304,348,5988,15008,37,-15,-11
6715.806,312,303,309,304,348,5988,15008,37,-15,-11
6724.184,311,303,308,303,348,5988,15008,37,-15,-11
6726.929,313,304,307,302,348,5972,14992,-21,-20,40
6726.929,313,304,306,303,348,5972,14992,-21,-20,40
6738.286999999999,313,305,304,303,348,5972,14992,-21,-20,40
6738.286999999999,314,305,304,302,348,5972,14992,-21,-20,40
6746.991,314,306,303,302,348,5972,14992,-21,-20,40
6749.199,314,306,303,302,348,5972,14992,-21,-20,40
6760.570000000001,315,307,302,301,348,5972,14992,-21,-20,40
6760.570000000001,316,307,301,299,388,5948,15104,-187,-107,108
6771.867,317,308,299,299,388,5948,15104,-187,-107,108
6771.867,318,309,297,299,388,5948,15104,-187,-107,108
6780.811,317,309,295,298,388,5948,15104,-187,-107,108
6786.281,316,309,294,298,388,5948,15104,-187,-107,108
6793.311,315,309,292,298,388,5948,15104,-187,-107,108
6796.866,314,309,291,299,388,5948,15104,-187,-107,108
6804.723,313,309,290,298,480,7048,15652,-733,706,-381
6813.884,311,309,288,297,480,7048,15652,-733,706,-381
6816.1050000000005,308,308,286,297,480,7048,15652,-733,706,-381
6816.1050000000005,304,308,285,296,480,7048,15652,-733,706,-381
6826.97,300,307,285,293,480,7048,15652,-733,706,-381
6835.078,295,308,285,293,480,7048,15652,-733,706,-381
6837.286,293,309,286,293,480,7048,15652,-733,706,-381
6843.99,290,309,286,291,1436,8116,17884,-2856,2339,-1574
6849.054,285,309,288,289,1436,8116,17884,-2856,2339,-1574
6856.099,283,309,289,290,1436,8116,17884,-2856,2339,-1574
6860.862,277,308,291,287,1436,8116,17884,-2856,2339,-1574
6871.464,271,308,293,287,1436,8116,17884,-2856,2339,-1574
6871.464,263,308,295,287,1436,8116,17884,-2856,2339,-1574
6882.702,258,309,299,287,1436,8116,17884,-2856,2339,-1574
6884.9580000000005,251,310,304,287,468,8024,20536,-4004,7348,-4500
6894.443,248,310,313,288,468,8024,20536,-4004,7348,-4500
6902.902,246,307,323,290,468,8024,20536,-4004,7348,-4500
6904.809,240,303,337,294,468,8024,20536,-4004,7348,-4500
6915.156,234,294,350,300,468,8024,20536,-4004,7348,-4500
6915.156,227,284,365,305,468,8024,20536,-4004,7348,-4500
6927.118,219,271,379,311,-328,7180,22460,-2128,13024,-5258
6927.118,208,255,395,318,-328,7180,22460,-2128,13024,-5258
6938.542,204,247,406,321,-328,7180,22460,-2128,13024,-5258
6948.741,207,245,415,324,-328,7180,22460,-2128,13024,-5258
6950.272,214,251,418,326,-328,7180,22460,-2128,13024,-5258
6960.014,226,268,421,331,-328,7180,22460,-2128,13024,-5258
6962.751,241,296,419,338,-228,6888,17972,766,16070,-6543
6971.226,257,318,412,346,-228,6888,17972,766,16070,-6543
6974.813,275,336,413,355,-228,6888,17972,766,16070,-6543
6982.611999999999,296,351,423,363,-228,6888,17972,766,16070,-6543
6988.016,317,363,431,372,-228,6888,17972,766,16070,-6543
6996.3240000000005,340,364,433,382,-228,6888,17972,766,16070,-6543
6999.584,364,353,432,389,-228,6888,17972,766,16070,-6543
7004.881,390,324,433,399,-1840,7748,15988,126,16902,-8361
7013.321999999999,407,290,457,408,-1840,7748,15988,126,16902,-8361
7018.842000000001,418,258,482,417,-1840,7748,15988,126,16902,-8361
7026.983,419,241,504,428,-1840,7748,15988,126,16902,-8361
7035.019,416,233,527,444,-1840,7748,15988,126,16902,-8361
7037.856,410,233,531,455,-1840,7748,15988,126,16902,-8361
7047.024,403,230,520,464,-3224,6056,12484,1851,19944,-10298
7049.387000000001,393,225,497,477,-3224,6056,12484,1851,19944,-10298
7057.391,384,224,467,488,-3224,6056,12484,1851,19944,-10298
7068.276,370,229,420,496,-3224,6056,12484,1851,19944,-10298
7071.633000000001,356,236,375,501,-3224,6056,12484,1851,19944,-10298
7079.974,339,248,322,504,-3224,6056,12484,1851,19944,-10298
7082.925,324,252,274,499,-4496,6168,13656,1212,19005,-10980
7091.775000000001,307,257,226,493,-4496,6168,13656,1212,19005,-10980
7096.593000000001,291,263,198,485,-4496,6168,13656,1212,19005,-10980
7104.6449999999995,274,273,184,477,-4496,6168,13656,1212,19005,-10980
7112.784000000001,261,284,177,476,-4496,6168,13656,1212,19005,-10980
7115.673,250,300,168,482,-4496,6168,13656,1212,19005,-10980
7124.574,242,312,158,488,-4496,6168,13656,1212,19005,-10980
7126.954,233,327,142,500,-7056,5488,11192,-3452,20019,-13147
7137.967,225,340,126,511,-7056,5488,11192,-3452,20019,-13147
7146.059,217,350,113,518,-7056,5488,11192,-3452,20019,-13147
7149.0,209,361,101,524,-7056,5488,11192,-3452,20019,-13147
7155.807000000001,201,371,91,528,-7056,5488,11192,-3452,20019,-13147
7160.845,194,381,82,524,-7056,5488,11192,-3452,20019,-13147
7168.700000000001,189,387,77,516,-8416,3224,10840,-7375,16023,-10356
7171.916,185,394,72,495,-8416,3224,10840,-7375,16023,-10356
7182.732,184,396,68,477,-8416,3224,10840,-7375,16023,-10356
7190.638,182,398,68,456,-8416,3224,10840,-7375,16023,-10356
7198.901,182,400,69,441,-8416,3224,10840,-7375,16023,-10356
7203.008,182,401,72,422,-8416,3224,10840,-7375,16023,-10356
7207.477,181,397,76,408,-9872,916,8260,-4186,12905,-9594
7215.319,177,389,81,392,-9872,916,8260,-4186,12905,-9594
7215.319,172,381,86,380,-9872,916,8260,-4186,12905,-9594
7227.257,166,368,91,362,-9872,916,8260,-4186,12905,-9594
7236.0160000000005,163,354,98,342,-9872,916,8260,-4186,12905,-9594
7237.9619999999995,165,346,103,327,-9872,916,8260,-4186,12905,-9594
7241.304,168,341,108,314,-10980,292,10916,-1226,13363,-9544
7249.234,165,333,114,299,-10980,292,10916,-1226,13363,-9544
7259.967,171,327,120,289,-10980,292,10916,-1226,13363,-9544
7262.107999999999,179,323,124,277,-10980,292,10916,-1226,13363,-9544
7271.756,189,317,132,266,-10980,292,10916,-1226,13363,-9544
7280.389999999999,191,308,136,256,-10980,292,10916,-1226,13363,-9544
7285.610000000001,192,300,144,243,-11744,-876,6048,1559,12853,-8946
7286.428,205,301,152,231,-11744,-876,6048,1559,12853,-8946
7297.032999999999,212,296,159,221,-11744,-876,6048,1559,12853,-8946
7305.579,219,294,164,211,-11744,-876,6048,1559,12853,-8946
7314.3330000000005,220,291,166,204,-11744,-876,6048,1559,12853,-8946
7317.032,222,290,170,196,-11744,-876,6048,1559,12853,-8946
7325.139,233,294,173,187,-11744,-876,6048,1559,12853,-8946
7327.397,242,301,176,179,-13560,-1168,9688,-1187,10167,-5402
7338.0599999999995,241,303,183,175,-13560,-1168,9688,-1187,10167,-5402
7346.426,248,305,189,177,-13560,-1168,9688,-1187,10167,-5402
7349.313999999999,254,303,195,178,-13560,-1168,9688,-1187,10167,-5402
7351.911999999999,262,304,203,185,-13560,-1168,9688,-1187,10167,-5402
7360.909000000001,267,308,211,193,-13560,-1168,9688,-1187,10167,-5402
7369.582,269,309,218,201,-13308,-1720,6200,650,8214,-4352
7371.502,276,311,224,210,-13308,-1720,6200,650,8214,-4352
7382.332,283,313,228,215,-13308,-1720,6200,650,8214,-4352
7391.378,285,313,230,220,-13308,-1720,6200,650,8214,-4352
7393.710999999999,286,309,234,226,-13308,-1720,6200,650,8214,-4352
7399.0070000000005,293,304,238,231,-13308,-1720,6200,650,8214,-4352
7405.486,303,305,237,237,-14136,-680,8500,16,7127,-3136
7416.076999999999,313,305,231,239,-14136,-680,8500,16,7127,-3136
7416.076999999999,321,305,223,241,-14136,-680,8500,16,7127,-3136
7427.16,333,306,215,237,-14136,-680,8500,16,7127,-3136
7427.16,343,307,207,232,-14136,-680,8500,16,7127,-3136
7438.907999999999,355,311,200,230,-14136,-680,8500,16,7127,-3136
7441.652,367,315,194,227,-14136,-680,8500,16,7127,-3136
7449.096,377,321,187,222,-14560,-1280,5708,-1411,7909,-3233
7453.888,382,321,181,216,-14560,-1280,5708,-1411,7909,-3233
7460.137,386,320,177,210,-14560,-1280,5708,-1411,7909,-3233
7467.1849999999995,387,326,175,203,-14560,-1280,5708,-1411,7909,-3233
7472.292,390,333,176,196,-14560,-1280,5708,-1411,7909,-3233
7482.712,396,338,176,188,-14560,-1280,5708,-1411,7909,-3233
7482.712,402,344,174,178,-14880,-1768,6144,-1983,6830,-2083
7497.572,409,351,174,170,-14880,-1768,6144,-1983,6830,-2083
7499.751,414,359,173,160,-14880,-1768,6144,-1983,6830,-2083
7504.562,416,366,176,152,-14880,-1768,6144,-1983,6830,-2083
7512.011,416,370,185,146,-14880,-1768,6144,-1983,6830,-2083
7515.7699999999995,413,370,193,142,-14880,-1768,6144,-1983,6830,-2083
7530.399,408,370,204,139,-15188,-3164,3256,-2752,5596,-1162
7532.7,403,369,214,139,-15188,-3164,3256,-2752,5596,-1162
7537.906999999999,390,365,224,140,-15188,-3164,3256,-2752,5596,-1162
7545.297,386,359,230,138,-15188,-3164,3256,-2752,5596,-1162
7549.688,377,360,237,132,-15188,-3164,3256,-2752,5596,-1162
7560.286,370,341,243,130,-15188,-3164,3256,-2752,5596,-1162
7565.299999999999,357,305,249,129,-15624,-2096,4024,-2696,3187,284
7570.726,348,277,255,136,-15624,-2096,4024,-2696,3187,284
7577.83,338,257,262,146,-15624,-2096,4024,-2696,3187,284
7582.741,328,239,271,156,-15624,-2096,4024,-2696,3187,284
7589.249,319,224,278,164,-15624,-2096,4024,-2696,3187,284
7598.129,315,213,287,171,-15624,-2096,4024,-2696,3187,284
7604.411,308,204,296,175,-15624,-2096,4024,-2696,3187,284
7605.91,302,200,307,177,-15072,-1556,1732,-763,1937,417
7616.629,296,199,316,177,-15072,-1556,1732,-763,1937,417
7625.064,290,200,325,177,-15072,-1556,1732,-763,1937,417
7629.312,285,202,333,180,-15072,-1556,1732,-763,1937,417
7637.031,279,203,341,186,-15072,-1556,1732,-763,1937,417
7641.25,275,204,348,191,-15072,-1556,1732,-763,1937,417
7648.76,272,208,355,194,-15712,-1664,3488,-1750,-126,668
7648.76,268,214,364,196,-15712,-1664,3488,-1750,-126,668
7660.113,260,218,369,197,-15712,-1664,3488,-1750,-126,668
7660.113,257,221,375,196,-15712,-1664,3488,-1750,-126,668
7671.695,259,227,381,193,-15712,-1664,3488,-1750,-126,668
7671.695,258,233,386,188,-15712,-1664,3488,-1750,-126,668
7682.15,256,236,391,182,-15712,-1664,3488,-1750,-126,668
7693.474,257,241,398,180,-15576,-940,4344,-406,-1457,1379
7697.501,255,248,403,177,-15576,-940,4344,-406,-1457,1379
7704.982,255,254,408,175,-15576,-940,4344,-406,-1457,1379
7704.982,254,261,411,169,-15576,-940,4344,-406,-1457,1379
7715.655,255,270,416,170,-15576,-940,4344,-406,-1457,1379
7715.655,256,278,420,169,-15576,-940,4344,-406,-1457,1379
7726.9800000000005,256,287,424,169,-15624,-616,4856,-615,-1113,1102
7735.37,254,293,428,170,-15624,-616,4856,-615,-1113,1102
7739.067999999999,253,302,431,170,-15624,-616,4856,-615,-1113,1102
7747.413,253,310,434,174,-15624,-616,4856,-615,-1113,1102
7749.191,252,318,437,178,-15624,-616,4856,-615,-1113,1102
7760.2570000000005,252,326,439,180,-15624,-616,4856,-615,-1113,1102
7768.601000000001,254,336,441,183,-15440,576,5988,686,-749,570
7771.841,253,344,442,187,-15440,576,5988,686,-749,570
7773.981,254,350,443,189,-15440,576,5988,686,-749,570
7781.990000000001,257,356,444,189,-15440,576,5988,686,-749,570
7786.09,256,363,444,192,-15440,576,5988,686,-749,570
7794.022,258,368,445,195,-15440,576,5988,686,-749,570
7798.559,258,373,444,195,-15440,576,5988,686,-749,570
7804.572,258,378,443,197,-15480,-184,5552,-352,-138,302
7810.405000000001,260,383,444,201,-15480,-184,5552,-352,-138,302
7815.831,260,386,443,203,-15480,-184,5552,-352,-138,302
7822.818,259,388,442,203,-15480,-184,5552,-352,-138,302
7829.679999999999,261,393,441,205,-15480,-184,5552,-352,-138,302
7838.054999999999,261,395,439,207,-15480,-184,5552,-352,-138,302
7838.054999999999,263,398,439,209,-15480,-184,5552,-352,-138,302
7849.044,266,402,438,209,-15664,-432,6640,-1311,250,-75
7851.324,264,402,437,211,-15664,-432,6640,-1311,250,-75
7861.3150000000005,264,404,436,212,-15664,-432,6640,-1311,250,-75
7864.338,267,406,433,214,-15664,-432,6640,-1311,250,-75
7871.188,270,408,432,216,-15664,-432,6640,-1311,250,-75
7876.567,272,408,430,217,-15664,-432,6640,-1311,250,-75
7882.170999999999,273,408,428,216,-15664,-432,6640,-1311,250,-75
7888.394,275,408,425,218,-15624,-880,5164,-1318,218,-44
7897.906,276,408,423,223,-15624,-880,5164,-1318,218,-44
7900.501,276,407,422,223,-15624,-880,5164,-1318,218,-44
7905.1939999999995,278,406,419,226,-15624,-880,5164,-1318,218,-44
7916.009,276,402,417,228,-15624,-880,5164,-1318,218,-44
7924.01,274,400,415,231,-15624,-880,5164,-1318,218,-44
7927.103,275,400,412,231,-15700,-1284,5828,-1287,322,-6
7936.022999999999,275,399,411,234,-15700,-1284,5828,-1287,322,-6
7938.077,276,397,408,234,-15700,-1284,5828,-1287,322,-6
7941.478,278,394,407,235,-15700,-1284,5828,-1287,322,-6
7950.272,279,392,405,238,-15700,-1284,5828,-1287,322,-6
7950.272,280,390,402,241,-15700,-1284,5828,-1287,322,-6
7960.592000000001,282,388,398,243,-15700,-1284,5828,-1287,322,-6
7966.755,283,384,395,244,-15672,-1024,5096,-561,136,-203
7971.776,285,381,393,246,-15672,-1024,5096,-561,136,-203
7979.247,285,378,389,247,-15672,-1024,5096,-561,136,-203
7982.298,285,375,387,249,-15672,-1024,5096,-561,136,-203
7993.601,287,372,385,252,-15672,-1024,5096,-561,136,-203
7998.182,287,371,383,253,-15672,-1024,5096,-561,136,-203
8004.588999999999,285,368,380,252,-15672,-1024,5096,-561,136,-203
8012.642,287,367,380,255,-15696,-456,4944,-611,337,-226
8016.444999999999,284,364,377,256,-15696,-456,4944,-611,337,-226
8019.8769999999995,287,362,376,257,-15696,-456,4944,-611,337,-226
8026.8060000000005,286,360,373,257,-15696,-456,4944,-611,337,-226
8038.344999999999,288,359,372,258,-15696,-456,4944,-611,337,-226
8040.1720000000005,288,359,371,257,-15696,-456,4944,-611,337,-226
8050.369999999999,289,358,370,259,-15588,-880,5216,-248,368,-405
8050.369999999999,290,355,368,258,-15588,-880,5216,-248,368,-405
8060.411,290,354,367,259,-15588,-880,5216,-248,368,-405
8064.665,291,351,366,259,-15588,-880,5216,-248,368,-405
8071.099999999999,291,349,365,261,-15588,-880,5216,-248,368,-405
8077.921,292,346,364,261,-15588,-880,5216,-248,368,-405
8082.281999999999,293,343,363,259,-15588,-880,5216,-248,368,-405
8085.182,292,341,362,257,-15760,-1624,4932,-437,164,-220
8094.101000000001,293,338,361,256,-15760,-1624,4932,-437,164,-220
8102.907999999999,293,336,359,256,-15760,-1624,4932,-437,164,-220
8105.056,293,332,358,255,-15760,-1624,4932,-437,164,-220
8115.373999999999,293,329,357,257,-15760,-1624,4932,-437,164,-220
8115.373999999999,294,328,356,258,-15760,-1624,4932,-437,164,-220
8127.193,295,325,355,259,-15708,-960,5040,-381,96,-21
8127.193,294,325,355,260,-15708,-960,5040,-381,96,-21
8138.005,296,325,354,262,-15708,-960,5040,-381,96,-21
8143.115999999999,296,322,352,263,-15708,-960,5040,-381,96,-21
8148.866,296,322,351,264,-15708,-960,5040,-381,96,-21
8154.46,296,321,351,267,-15708,-960,5040,-381,96,-21
8160.352,296,321,351,267,-15708,-960,5040,-381,96,-21
8162.951,296,321,350,270,-15608,-1464,4896,-125,-141,13
8172.397,297,321,349,273,-15608,-1464,4896,-125,-141,13
8180.99,296,320,347,274,-15608,-1464,4896,-125,-141,13
8183.89,296,319,346,274,-15608,-1464,4896,-125,-141,13
8192.166000000001,295,318,346,278,-15608,-1464,4896,-125,-141,13
8198.034,297,317,346,280,-15608,-1464,4896,-125,-141,13
8204.68,298,316,344,282,-15608,-1464,4896,-125,-141,13
8204.68,297,315,343,285,-15636,-792,5116,-107,-7,-126
8212.823,297,314,342,288,-15636,-792,5116,-107,-7,-126
8215.784,297,313,341,289,-15636,-792,5116,-107,-7,-126
8226.899,297,313,340,291,-15636,-792,5116,-107,-7,-126
8235.95,297,313,340,294,-15636,-792,5116,-107,-7,-126
8237.667,297,312,340,296,-15636,-792,5116,-107,-7,-126
8247.097,298,311,339,297,-15636,-792,5116,-107,-7,-126
8249.359999999999,298,312,338,300,-15672,-1048,5192,147,-141,-293
8258.146999999999,298,311,336,302,-15672,-1048,5192,147,-141,-293
8260.392,298,310,335,303,-15672,-1048,5192,147,-141,-293
8271.106,299,309,334,304,-15672,-1048,5192,147,-141,-293
8271.106,298,308,332,305,-15672,-1048,5192,147,-141,-293
8282.497,297,308,331,306,-15672,-1048,5192,147,-141,-293
8286.006000000001,297,307,329,305,-15656,-1320,4936,-634,-280,-40
8296.689,298,306,328,306,-15656,-1320,4936,-634,-280,-40
8298.194000000001,300,306,328,307,-15656,-1320,4936,-634,-280,-40
8304.938999999998,300,306,326,306,-15656,-1320,4936,-634,-280,-40
8313.917,299,305,325,308,-15656,-1320,4936,-634,-280,-40
8315.673,300,305,324,310,-15656,-1320,4936,-634,-280,-40
8322.612,300,303,324,311,-15656,-1320,4936,-634,-280,-40
8327.527,301,302,324,311,-15724,-760,5332,-352,-264,-6
8337.866,300,302,323,313,-15724,-760,5332,-352,-264,-6
8337.866,301,301,322,314,-15724,-760,5332,-352,-264,-6
8348.769,300,298,321,314,-15724,-760,5332,-352,-264,-6
8348.769,299,296,320,315,-15724,-760,5332,-352,-264,-6
8360.444,298,296,320,316,-15724,-760,5332,-352,-264,-6
8363.994999999999,300,296,320,318,-15724,-760,5332,-352,-264,-6
8372.501,300,293,319,320,-15560,-936,5664,-1255,-250,-128
8372.501,297,291,318,322,-15560,-936,5664,-1255,-250,-128
8382.744999999999,300,293,319,326,-15560,-936,5664,-1255,-250,-128
8389.879,299,292,321,327,-15560,-936,5664,-1255,-250,-128
8398.296,298,292,320,330,-15560,-936,5664,-1255,-250,-128
8399.803,300,293,319,332,-15560,-936,5664,-1255,-250,-128
8404.849,301,293,318,332,-15736,-1124,4968,-1466,-476,255
8413.741,302,293,318,334,-15736,-1124,4968,-1466,-476,255
8416.951,302,294,316,332,-15736,-1124,4968,-1466,-476,255
8426.745,302,294,318,333,-15736,-1124,4968,-1466,-476,255
8436.494,303,293,316,335,-15736,-1124,4968,-1466,-476,255
8438.885,304,293,316,335,-15736,-1124,4968,-1466,-476,255
8445.783000000001,304,293,315,335,-15736,-1124,4968,-1466,-476,255
8449.106,303,291,314,335,-15576,-692,5464,-1451,-776,483
8460.708,303,290,314,337,-15576,-692,5464,-1451,-776,483
8460.708,304,291,315,338,-15576,-692,5464,-1451,-776,483
8471.303,304,292,316,339,-15576,-692,5464,-1451,-776,483
8480.277,304,292,317,341,-15576,-692,5464,-1451,-776,483
8482.916,304,292,315,342,-15576,-692,5464,-1451,-776,483
8486.945,304,293,315,345,-15564,-1132,5460,-1145,-531,604
8493.512,306,293,316,348,-15564,-1132,5460,-1145,-531,604
8504.666000000001,306,293,316,350,-15564,-1132,5460,-1145,-531,604
8507.192,308,294,316,351,-15564,-1132,5460,-1145,-531,604
8516.876,306,293,315,353,-15564,-1132,5460,-1145,-531,604
8516.876,307,294,315,354,-15564,-1132,5460,-1145,-531,604
8527.587000000001,308,294,314,356,-15628,-1112,5892,211,-225,300
8527.587000000001,309,294,314,356,-15628,-1112,5892,211,-225,300
8537.556999999999,309,294,314,357,-15628,-1112,5892,211,-225,300
8544.202000000001,308,293,313,356,-15628,-1112,5892,211,-225,300
8549.13,309,294,313,356,-15628,-1112,5892,211,-225,300
8558.218,310,294,310,355,-15628,-1112,5892,211,-225,300
8561.581,311,294,311,355,-15628,-1112,5892,211,-225,300
8571.189,310,295,310,354,-15564,-508,5548,415,112,-7
8571.189,310,295,309,353,-15564,-508,5548,415,112,-7
8582.85,311,295,307,352,-15564,-508,5548,415,112,-7
8582.85,312,295,307,350,-15564,-508,5548,415,112,-7
8591.682999999999,312,295,306,348,-15564,-508,5548,415,112,-7
8600.066,312,296,305,347,-15564,-508,5548,415,112,-7
8602.839,312,297,304,345,-15564,-508,5548,415,112,-7
8607.761999999999,314,297,304,343,-15568,-736,5232,309,154,-273
8615.882,313,297,303,341,-15568,-736,5232,309,154,-273
8615.882,313,297,303,339,-15568,-736,5232,309,154,-273
8627.449,316,298,301,336,-15568,-736,5232,309,154,-273
8629.823,315,298,300,335,-15568,-736,5232,309,154,-273
8637.964,315,298,299,333,-15568,-736,5232,309,154,-273
8641.875,315,299,298,330,-15568,-736,5232,309,154,-273
8649.082999999999,315,298,297,328,-15592,-1620,5260,-289,144,-177
8654.814999999999,316,299,297,325,-15592,-1620,5260,-289,144,-177
8659.824,315,300,296,324,-15592,-1620,5260,-289,144,-177
8666.550000000001,314,298,296,322,-15592,-1620,5260,-289,144,-177
8673.128,315,299,296,320,-15592,-1620,5260,-289,144,-177
8681.138,316,299,294,318,-15592,-1620,5260,-289,144,-177
8682.077,317,300,295,317,-15592,-1620,5260,-289,144,-177
8693.819,317,299,295,317,-15536,-1056,5020,492,60,-126
8699.401,317,299,293,317,-15536,-1056,5020,492,60,-126
8704.577000000001,317,298,293,315,-15536,-1056,5020,492,60,-126
8704.577000000001,316,298,294,314,-15536,-1056,5020,492,60,-126
8715.617999999999,317,298,294,314,-15536,-1056,5020,492,60,-126
8720.254,318,298,294,313,-15536,-1056,5020,492,60,-126
8726.521999999999,318,297,294,313,-15596,-1252,5400,667,153,-86
8732.043000000001,317,296,294,314,-15596,-1252,5400,667,153,-86
8737.748,318,295,293,314,-15596,-1252,5400,667,153,-86
8744.48,318,295,293,313,-15596,-1252,5400,667,153,-86
8749.704,319,295,293,313,-15596,-1252,5400,667,153,-86
8756.565,318,295,293,312,-15596,-1252,5400,667,153,-86
8760.452000000001,320,294,294,312,-15596,-1252,5400,667,153,-86
8770.75,318,293,293,311,-15604,-1060,5228,963,232,-164
8773.047999999999,318,294,293,311,-15604,-1060,5228,963,232,-164
8781.057999999999,318,294,293,312,-15604,-1060,5228,963,232,-164
8786.154,318,294,292,311,-15604,-1060,5228,963,232,-164
8793.882,319,292,293,311,-15604,-1060,5228,963,232,-164
8799.398,317,292,292,311,-15604,-1060,5228,963,232,-164
8804.511,318,291,292,310,-15604,-1060,5228,963,232,-164
8810.345,318,291,292,310,-15680,-788,5756,1798,297,-184
8815.547,316,290,290,309,-15680,-788,5756,1798,297,-184
8822.95,316,291,291,308,-15680,-788,5756,1798,297,-184
8826.758,318,292,290,307,-15680,-788,5756,1798,297,-184
8835.127,318,293,290,307,-15680,-788,5756,1798,297,-184
8838.08,319,292,288,304,-15680,-788,5756,1798,297,-184
8849.032,319,294,287,303,-15680,-788,5756,1798,297,-184
8849.032,319,294,287,303,-15556,-892,5132,1175,116,-175
8860.279,318,294,286,301,-15556,-892,5132,1175,116,-175
8860.279,319,294,286,299,-15556,-892,5132,1175,116,-175
8871.273000000001,317,294,286,299,-15556,-892,5132,1175,116,-175
8875.978,318,294,286,299,-15556,-892,5132,1175,116,-175
8882.478000000001,319,294,286,298,-15556,-892,5132,1175,116,-175
8888.544,319,293,286,299,-15732,-1356,5164,184,-79,120
8893.547,318,293,286,299,-15732,-1356,5164,184,-79,120
8900.0,318,294,286,299,-15732,-1356,5164,184,-79,120
8904.897,318,294,287,300,-15732,-1356,5164,184,-79,120
8913.038,319,295,288,301,-15732,-1356,5164,184,-79,120
8915.688,318,295,288,303,-15732,-1356,5164,184,-79,120
8926.430999999999,318,294,289,304,-15732,-1356,5164,184,-79,120
8926.430999999999,318,295,290,305,-15648,-1344,5412,-537,-77,150
8938.197,317,295,290,307,-15648,-1344,5412,-537,-77,150
8941.4,316,294,291,306,-15648,-1344,5412,-537,-77,150
8950.124,318,295,292,308,-15648,-1344,5412,-537,-77,150
8950.124,317,294,292,310,-15648,-1344,5412,-537,-77,150
8960.307999999999,318,294,293,311,-15648,-1344,5412,-537,-77,150
8969.371000000001,319,294,294,313,-15648,-1344,5412,-537,-77,150
8971.257,319,292,294,315,-15632,-584,5592,-16,-195,44
8980.413,319,293,294,318,-15632,-584,5592,-16,-195,44
8982.564,318,292,296,320,-15632,-584,5592,-16,-195,44
8993.151,318,291,296,322,-15632,-584,5592,-16,-195,44
8996.662,318,291,296,323,-15632,-584,5592,-16,-195,44
9005.172999999999,318,290,298,323,-15632,-584,5592,-16,-195,44
9008.695,317,289,297,324,-15632,-584,5592,-16,-195,44
9013.802,317,288,297,324,-15580,-588,5484,456,3,-120
9018.226,317,288,297,325,-15580,-588,5484,456,3,-120
9026.239,319,289,298,326,-15580,-588,5484,456,3,-120
9027.127,318,289,298,326,-15580,-588,5484,456,3,-120
9031.274,318,288,298,326,-15580,-588,5484,456,3,-120
9038.221,318,288,297,325,-15580,-588,5484,456,3,-120
9049.009,319,288,298,327,-15580,-588,5484,456,3,-120
9051.525,319,287,298,327,-15608,-972,4992,153,52,-3
9051.525,319,287,299,329,-15608,-972,4992,153,52,-3
9061.334,319,287,299,330,-15608,-972,4992,153,52,-3
9070.775,319,288,298,330,-15608,-972,4992,153,52,-3
9074.631,319,287,299,330,-15608,-972,4992,153,52,-3
9082.387999999999,319,288,299,330,-15608,-972,4992,153,52,-3
9084.592,320,288,298,330,-15608,-972,4992,153,52,-3
9092.595,320,287,298,330,-15644,-932,5160,-233,-9,25
9099.663,320,287,298,331,-15644,-932,5160,-233,-9,25
9101.23,319,287,298,329,-15644,-932,5160,-233,-9,25
9104.785,320,287,297,330,-15644,-932,5160,-233,-9,25
9115.938999999998,320,287,296,330,-15644,-932,5160,-233,-9,25
9115.938999999998,320,288,297,330,-15644,-932,5160,-233,-9,25
9126.687,320,288,298,330,-15644,-932,5160,-233,-9,25
9126.687,320,288,298,331,-15552,-916,5392,-110,11,59
9135.648,319,288,298,331,-15552,-916,5392,-110,11,59
9138.178,321,287,298,329,-15552,-916,5392,-110,11,59
9146.242,320,288,296,329,-15552,-916,5392,-110,11,59
9149.084,321,287,297,328,-15552,-916,5392,-110,11,59
9160.833,320,288,297,329,-15552,-916,5392,-110,11,59
9160.833,320,288,297,328,-15552,-916,5392,-110,11,59
9171.624,320,288,297,328,-15536,-948,5424,272,-36,68
9171.624,320,288,297,329,-15536,-948,5424,272,-36,68
9179.496000000001,320,289,297,328,-15536,-948,5424,272,-36,68
9182.366999999998,321,289,296,327,-15536,-948,5424,272,-36,68
9193.454,320,289,297,327,-15536,-948,5424,272,-36,68
9201.291,319,288,295,327,-15536,-948,5424,272,-36,68
9204.53,319,287,296,327,-15536,-948,5424,272,-36,68
9207.691,318,289,296,327,-15608,-968,5528,-75,144,88
9216.32,318,288,296,327,-15608,-968,5528,-75,144,88
9216.32,318,287,296,327,-15608,-968,5528,-75,144,88
9226.974,318,288,295,326,-15608,-968,5528,-75,144,88
9227.034,319,290,296,327,-15608,-968,5528,-75,144,88
9238.277999999998,318,291,296,326,-15608,-968,5528,-75,144,88
9247.108,317,291,296,327,-15608,-968,5528,-75,144,88
9248.927,318,291,295,326,-15560,-840,5436,207,189,19
9252.145,319,292,296,327,-15560,-840,5436,207,189,19
9259.96,318,292,296,327,-15560,-840,5436,207,189,19
9265.02,319,290,296,326,-15560,-840,5436,207,189,19
9271.073,318,290,296,326,-15560,-840,5436,207,189,19
9273.214,318,290,295,326,-15560,-840,5436,207,189,19
9281.219000000001,317,290,294,325,-15560,-840,5436,207,189,19
9291.844,316,290,294,325,-15560,-840,5436,207,189,19
9293.804,315,289,295,326,-15632,-572,5288,171,222,-39
9300.522,314,290,295,325,-15632,-572,5288,171,222,-39
9304.467,316,290,294,324,-15632,-572,5288,171,222,-39
9313.145999999999,316,290,293,324,-15632,-572,5288,171,222,-39
9315.11,316,292,294,324,-15632,-572,5288,171,222,-39
9321.880000000001,317,292,294,324,-15632,-572,5288,171,222,-39
9326.873000000001,317,292,293,323,-15508,-748,5136,24,178,-22
9330.047,317,292,293,324,-15508,-748,5136,24,178,-22
9338.800000000001,317,292,293,324,-15508,-748,5136,24,178,-22
9349.077,317,292,293,324,-15508,-748,5136,24,178,-22
9350.217,318,291,293,324,-15508,-748,5136,24,178,-22
9358.301000000001,318,291,293,325,-15508,-748,5136,24,178,-22
9360.298,319,291,293,324,-15508,-748,5136,24,178,-22
9367.046,317,290,293,324,-15508,-748,5136,24,178,-22
9371.491,315,291,293,324,-15656,-932,5232,-81,88,23
9375.595000000001,316,291,293,325,-15656,-932,5232,-81,88,23
9382.531,316,292,293,324,-15656,-932,5232,-81,88,23
9382.531,316,291,292,324,-15656,-932,5232,-81,88,23
9393.792,316,291,292,324,-15656,-932,5232,-81,88,23
9401.261999999999,318,291,293,324,-15656,-932,5232,-81,88,23
9405.14,317,291,293,323,-15656,-932,5232,-81,88,23
9412.419999999998,317,291,293,324,-15612,-780,5444,55,100,67
9416.404999999999,317,292,294,324,-15612,-780,5444,55,100,67
9426.525,317,292,294,324,-15612,-780,5444,55,100,67
9428.192,317,292,294,323,-15612,-780,5444,55,100,67
9428.192,317,292,293,322,-15612,-780,5444,55,100,67
9437.857,317,292,293,323,-15612,-780,5444,55,100,67
9444.888,318,292,293,322,-15612,-780,5444,55,100,67
9449.412,317,292,293,323,-15668,-928,5216,-186,10,-18
9454.026,315,291,292,323,-15668,-928,5216,-186,10,-18
9460.501,315,292,292,322,-15668,-928,5216,-186,10,-18
9471.306,315,293,293,322,-15668,-928,5216,-186,10,-18
9471.306,315,293,292,322,-15668,-928,5216,-186,10,-18
9478.738,314,292,292,323,-15668,-928,5216,-186,10,-18
9482.464,314,292,292,323,-15668,-928,5216,-186,10,-18
9490.387999999999,314,293,292,323,-15608,-708,5516,19,146,72
9493.859,315,294,292,323,-15608,-708,5516,19,146,72
9504.354,316,294,292,322,-15608,-708,5516,19,146,72
9506.488,316,294,292,323,-15608,-708,5516,19,146,72
9506.488,316,294,293,323,-15608,-708,5516,19,146,72
9516.475,315,294,293,324,-15608,-708,5516,19,146,72
9523.101999999999,316,294,292,323,-15608,-708,5516,19,146,72
9527.703000000001,316,293,293,323,-15712,-808,5256,358,62,67
9535.43,317,294,293,324,-15712,-808,5256,358,62,67
9538.333,316,294,294,324,-15712,-808,5256,358,62,67
9549.32,316,294,294,324,-15712,-808,5256,358,62,67
9549.32,315,294,293,324,-15712,-808,5256,358,62,67
9556.286,314,292,293,325,-15712,-808,5256,358,62,67
9560.529,315,293,293,324,-15712,-808,5256,358,62,67
9568.154,316,293,293,323,-15712,-808,5256,358,62,67
9571.343,315,294,293,324,-15564,-772,5456,207,150,61
9582.848,316,294,294,325,-15564,-772,5456,207,150,61
9584.35,315,296,294,323,-15564,-772,5456,207,150,61
9584.35,315,296,294,323,-15564,-772,5456,207,150,61
9594.598,314,296,294,322,-15564,-772,5456,207,150,61
9601.122,315,297,295,323,-15564,-772,5456,207,150,61
9604.821,317,297,295,324,-15564,-772,5456,207,150,61
9615.515,316,295,295,326,-15712,-784,5116,398,161,38
9615.515,316,296,295,325,-15712,-784,5116,398,161,38
9626.451,316,296,294,325,-15712,-784,5116,398,161,38
9626.451,316,297,296,326,-15712,-784,5116,398,161,38
9638.324,315,297,296,327,-15712,-784,5116,398,161,38
9638.324,315,297,296,327,-15712,-784,5116,398,161,38
9646.1,316,297,296,327,-15712,-784,5116,398,161,38
9649.196999999998,316,297,296,327,-15656,-996,5168,-126,131,71
9660.109999999999,316,297,296,328,-15656,-996,5168,-126,131,71
9660.109999999999,316,297,297,328,-15656,-996,5168,-126,131,71
9671.253999999999,316,298,296,328,-15656,-996,5168,-126,131,71
9674.462,315,298,297,330,-15656,-996,5168,-126,131,71
9683.273,315,298,297,329,-15656,-996,5168,-126,131,71
9686.318,315,296,296,329,-15656,-996,5168,-126,131,71
9693.465,316,297,297,329,-15672,-660,5592,-64,109,51
9700.993999999999,315,297,297,330,-15672,-660,5592,-64,109,51
9704.615,316,298,297,331,-15672,-660,5592,-64,109,51
9713.728,316,298,297,330,-15672,-660,5592,-64,109,51
9715.981,315,298,297,331,-15672,-660,5592,-64,109,51
9719.863,315,298,298,331,-15672,-660,5592,-64,109,51
9726.87,316,298,298,331,-15672,-660,5592,-64,109,51
9732.234,316,299,298,332,-15608,-728,5212,-19,131,-44
9737.591,315,298,298,333,-15608,-728,5212,-19,131,-44
9743.928,315,298,297,332,-15608,-728,5212,-19,131,-44
9749.057,315,298,298,332,-15608,-728,5212,-19,131,-44
9758.762,315,298,297,333,-15608,-728,5212,-19,131,-44
9760.578000000001,314,298,297,331,-15608,-728,5212,-19,131,-44
9764.349,315,298,297,331,-15608,-728,5212,-19,131,-44
9771.635,315,297,297,331,-15760,-816,5188,-140,146,-41
9771.635,315,297,296,330,-15760,-816,5188,-140,146,-41
9785.368,315,296,296,331,-15760,-816,5188,-140,146,-41
9792.305,315,296,296,330,-15760,-816,5188,-140,146,-41
9794.517000000002,314,296,296,329,-15760,-816,5188,-140,146,-41
9801.653999999999,314,297,295,327,-15760,-816,5188,-140,146,-41
9804.882,315,297,294,326,-15760,-816,5188,-140,146,-41
9815.737000000001,315,297,296,328,-15648,-900,5060,-124,-66,61
9815.737000000001,314,295,295,327,-15648,-900,5060,-124,-66,61
9826.997000000001,314,295,294,325,-15648,-900,5060,-124,-66,61
9826.997000000001,314,295,294,324,-15648,-900,5060,-124,-66,61
9838.211,314,296,293,324,-15648,-900,5060,-124,-66,61
9842.565,312,295,293,323,-15648,-900,5060,-124,-66,61
9849.152,313,295,293,322,-15648,-900,5060,-124,-66,61
9849.152,312,296,294,321,-15708,-984,5376,97,-49,141
9860.189999999999,312,296,293,321,-15708,-984,5376,97,-49,141
9869.427,312,294,293,320,-15708,-984,5376,97,-49,141
9871.623,312,294,292,319,-15708,-984,5376,97,-49,141
9875.462000000001,312,295,293,320,-15708,-984,5376,97,-49,141
9882.118999999999,313,295,293,319,-15708,-984,5376,97,-49,141
9887.483,313,294,293,318,-15708,-984,5376,97,-49,141
9893.256,313,294,293,318,-15608,-736,5404,225,27,-70
9902.737000000001,313,293,293,317,-15608,-736,5404,225,27,-70
9904.947999999999,313,294,293,317,-15608,-736,5404,225,27,-70
9914.167000000001,314,294,292,317,-15608,-736,5404,225,27,-70
9916.22,312,293,292,316,-15608,-736,5404,225,27,-70
9920.251,313,294,294,316,-15608,-736,5404,225,27,-70
9926.413999999999,313,294,293,317,-15608,-736,5404,225,27,-70
9932.291,313,294,294,316,-15660,-752,5184,202,128,-1
9937.516,313,294,294,316,-15660,-752,5184,202,128,-1
9945.130000000001,313,294,294,315,-15660,-752,5184,202,128,-1
9949.107,314,293,294,315,-15660,-752,5184,202,128,-1
9953.27,314,292,293,315,-15660,-752,5184,202,128,-1
9960.46,314,293,293,314,-15660,-752,5184,202,128,-1
9965.823,312,293,293,313,-15660,-752,5184,202,128,-1
9970.841,313,295,294,314,-15604,-728,5264,186,126,-72
9977.33,313,295,294,314,-15604,-728,5264,186,126,-72
9982.481,312,295,293,313,-15604,-728,5264,186,126,-72
9989.806,312,295,293,312,-15604,-728,5264,186,126,-72
9993.52,313,295,294,313,-15604,-728,5264,186,126,-72
10002.098,314,296,293,314,-15604,-728,5264,186,126,-72
10007.083,312,295,293,312,-15604,-728,5264,186,126,-72
10016.128,311,296,293,312,-15676,-912,5180,-184,108,22
10016.128,312,297,293,312,-15676,-912,5180,-184,108,22
10022.639,312,297,294,312,-15676,-912,5180,-184,108,22
10027.044,312,297,293,311,-15676,-912,5180,-184,108,22
10037.901,312,297,293,312,-15676,-912,5180,-184,108,22
10037.901,312,298,294,312,-15676,-912,5180,-184,108,22
10049.36,312,299,293,311,-15676,-912,5180,-184,108,22
10051.202,311,299,295,312,-15596,-688,5280,-41,146,47
10060.822,310,298,294,312,-15596,-688,5280,-41,146,47
10063.324,310,298,295,313,-15596,-688,5280,-41,146,47
10072.288999999999,311,300,295,315,-15596,-688,5280,-41,146,47
10072.288999999999,311,300,295,316,-15596,-688,5280,-41,146,47
10082.715,311,301,296,317,-15596,-688,5280,-41,146,47
10091.039,311,301,296,317,-15596,-688,5280,-41,146,47
10094.842999999999,311,300,295,317,-15736,-632,5212,-20,131,-25
10102.64,310,301,296,317,-15736,-632,5212,-20,131,-25
10104.862000000001,311,302,296,318,-15736,-632,5212,-20,131,-25
10104.862000000001,311,302,296,319,-15736,-632,5212,-20,131,-25
10115.645,310,301,296,320,-15736,-632,5212,-20,131,-25
10120.798999999999,310,300,295,321,-15736,-632,5212,-20,131,-25
10126.552,311,301,296,320,-15736,-632,5212,-20,131,-25
10132.994999999999,311,301,296,322,-15612,-716,5248,64,140,8
10138.458,310,301,295,320,-15612,-716,5248,64,140,8
10147.062,310,301,295,320,-15612,-716,5248,64,140,8
10148.872000000001,310,301,295,320,-15612,-716,5248,64,140,8
10152.943000000001,311,301,295,321,-15612,-716,5248,64,140,8
10160.098,309,300,295,321,-15612,-716,5248,64,140,8
10165.598,310,300,295,320,-15612,-716,5248,64,140,8
10171.939,309,300,294,319,-15828,-648,5256,44,62,-35
10171.939,310,299,293,320,-15828,-648,5256,44,62,-35
10182.374,309,297,293,320,-15828,-648,5256,44,62,-35
10186.783,309,297,293,319,-15828,-648,5256,44,62,-35
10194.783,309,298,292,318,-15828,-648,5256,44,62,-35
10198.195,310,298,293,318,-15828,-648,5256,44,62,-35
10204.466,310,298,293,318,-15828,-648,5256,44,62,-35
10206.929,310,297,292,316,-15828,-648,5256,44,62,-35
10216.825,310,297,292,316,-15648,-776,5120,48,135,9
10216.825,310,297,292,316,-15648,-776,5120,48,135,9
10226.92,310,296,292,315,-15648,-776,5120,48,135,9
10231.985,310,296,292,314,-15648,-776,5120,48,135,9
10237.837000000001,311,297,293,314,-15648,-776,5120,48,135,9
10239.624,311,298,293,314,-15648,-776,5120,48,135,9
10249.794,311,297,292,313,-15648,-776,5120,48,135,9
10249.794,312,296,291,312,-15680,-564,5128,181,57,-8
10260.246000000001,310,297,292,312,-15680,-564,5128,181,57,-8
10264.866,310,297,292,311,-15680,-564,5128,181,57,-8
10264.866,311,297,292,310,-15680,-564,5128,181,57,-8
10272.994999999999,311,297,292,308,-15680,-564,5128,181,57,-8
10280.468,311,297,291,309,-15680,-564,5128,181,57,-8
10285.876999999999,312,297,292,308,-15680,-564,5128,181,57,-8
10294.432999999999,312,297,292,309,-15704,-728,5008,370,133,-99
10294.432999999999,312,296,292,308,-15704,-728,5008,370,133,-99
10302.469000000001,312,296,292,307,-15704,-728,5008,370,133,-99
10304.893,312,296,293,308,-15704,-728,5008,370,133,-99
10315.78,312,297,293,308,-15704,-728,5008,370,133,-99
10323.817000000001,311,297,294,307,-15704,-728,5008,370,133,-99
10326.888,310,296,293,306,-15704,-728,5008,370,133,-99
10329.091,311,296,293,307,-15656,-812,5172,255,113,-98
10338.483,311,296,294,307,-15656,-812,5172,255,113,-98
10341.697999999999,310,296,294,307,-15656,-812,5172,255,113,-98
10348.876,311,296,294,306,-15656,-812,5172,255,113,-98
10357.124,310,295,294,306,-15656,-812,5172,255,113,-98
10364.603000000001,310,295,294,306,-15656,-812,5172,255,113,-98
10369.0,310,296,294,306,-15656,-812,5172,255,113,-98
10373.583,311,296,295,307,-15620,-788,5128,7,156,-102
10380.891,312,296,295,307,-15620,-788,5128,7,156,-102
10383.601999999999,311,296,295,308,-15620,-788,5128,7,156,-102
10383.601999999999,309,294,295,307,-15620,-788,5128,7,156,-102
10393.637,311,295,296,308,-15620,-788,5128,7,156,-102
10399.719,310,295,296,309,-15620,-788,5128,7,156,-102
10404.788,311,295,297,309,-15620,-788,5128,7,156,-102
10411.638,311,295,297,310,-15772,-704,5092,-86,49,-69
10415.886999999999,311,295,297,311,-15772,-704,5092,-86,49,-69
10420.391,312,295,298,311,-15772,-704,5092,-86,49,-69
10427.431,312,295,298,310,-15772,-704,5092,-86,49,-69
10431.854,311,295,297,310,-15772,-704,5092,-86,49,-69
10437.784000000001,311,295,298,312,-15772,-704,5092,-86,49,-69
10444.553000000002,311,295,298,312,-15772,-704,5092,-86,49,-69
10449.701,312,296,299,312,-15624,-1008,4932,-183,-39,-65
10456.318,311,297,299,312,-15624,-1008,4932,-183,-39,-65
10460.579,311,296,299,311,-15624,-1008,4932,-183,-39,-65
10471.007,311,296,300,312,-15624,-1008,4932,-183,-39,-65
10471.007,312,298,300,312,-15624,-1008,4932,-183,-39,-65
10483.539,312,299,301,313,-15624,-1008,4932,-183,-39,-65
10483.539,313,299,300,313,-15624,-1008,4932,-183,-39,-65
10495.259,311,299,301,313,-15740,-800,5256,156,18,-78
10495.259,312,300,301,314,-15740,-800,5256,156,18,-78
10505.26,312,300,302,314,-15740,-800,5256,156,18,-78
10505.26,312,299,300,312,-15740,-800,5256,156,18,-78
10515.945,313,298,301,314,-15740,-800,5256,156,18,-78
10515.945,312,300,301,314,-15740,-800,5256,156,18,-78
10527.362000000001,312,301,301,314,-15740,-800,5256,156,18,-78
10536.222,312,301,302,315,-15600,-584,5108,185,97,-108
10540.55,312,302,301,314,-15600,-584,5108,185,97,-108
10545.204,311,302,301,315,-15600,-584,5108,185,97,-108
10549.097,312,302,301,314,-15600,-584,5108,185,97,-108
10554.679,311,302,301,314,-15600,-584,5108,185,97,-108
10559.955,311,303,302,314,-15600,-584,5108,185,97,-108
10566.996,311,303,301,314,-15600,-584,5108,185,97,-108
10571.923999999999,311,303,301,314,-15812,-836,5068,-123,-33,-27
10582.252,310,303,300,313,-15812,-836,5068,-123,-33,-27
10583.436000000002,311,303,299,312,-15812,-836,5068,-123,-33,-27
10593.34,312,304,300,312,-15812,-836,5068,-123,-33,-27
10596.221,311,304,299,313,-15812,-836,5068,-123,-33,-27
10606.715,312,305,300,312,-15812,-836,5068,-123,-33,-27
10609.762,311,305,299,311,-15812,-836,5068,-123,-33,-27
10609.762,310,305,299,311,-15616,-628,5360,-36,-95,-34
10615.724,309,305,299,311,-15616,-628,5360,-36,-95,-34
10627.281,309,304,299,312,-15616,-628,5360,-36,-95,-34
10635.628,309,304,298,311,-15616,-628,5360,-36,-95,-34
10637.82,310,304,299,311,-15616,-628,5360,-36,-95,-34
10637.82,309,304,298,311,-15616,-628,5360,-36,-95,-34
10649.087,310,304,299,311,-15616,-628,5360,-36,-95,-34
10653.717999999999,310,304,299,313,-15760,-736,5216,-21,52,-19
10660.3,309,304,299,313,-15760,-736,5216,-21,52,-19
10665.161,309,304,299,311,-15760,-736,5216,-21,52,-19
10671.08,310,304,299,312,-15760,-736,5216,-21,52,-19
10673.949,309,303,298,311,-15760,-736,5216,-21,52,-19
10683.405999999999,309,303,299,312,-15760,-736,5216,-21,52,-19
10691.791000000001,308,302,298,311,-15760,-736,5216,-21,52,-19
10694.375,308,302,298,311,-15736,-740,5072,-40,18,-57
10698.26,309,303,298,312,-15736,-740,5072,-40,18,-57
10704.344000000001,309,303,298,311,-15736,-740,5072,-40,18,-57
10710.586,309,301,298,312,-15736,-740,5072,-40,18,-57
10715.668000000001,308,301,297,312,-15736,-740,5072,-40,18,-57
10718.856,310,301,298,312,-15736,-740,5072,-40,18,-57
10726.800000000001,309,301,298,311,-15736,-740,5072,-40,18,-57
10731.216,310,300,298,312,-15664,-764,5280,-130,79,49
10738.172999999999,308,301,298,311,-15664,-764,5280,-130,79,49
10743.072,309,301,297,310,-15664,-764,5280,-130,79,49
10748.935,308,300,297,309,-15664,-764,5280,-130,79,49
10756.164999999999,309,300,297,311,-15664,-764,5280,-130,79,49
10760.574,308,299,298,311,-15664,-764,5280,-130,79,49
10769.535,309,298,297,310,-15664,-764,5280,-130,79,49
10771.685,308,298,296,310,-15616,-700,5148,46,19,-23
10782.482999999998,309,299,297,311,-15616,-700,5148,46,19,-23
10783.834,308,299,297,311,-15616,-700,5148,46,19,-23
10791.836,308,298,297,310,-15616,-700,5148,46,19,-23
10797.078000000001,308,298,297,310,-15616,-700,5148,46,19,-23
10803.093,308,298,296,309,-15616,-700,5148,46,19,-23
10804.996,309,297,297,309,-15616,-700,5148,46,19,-23
10809.006,309,296,297,310,-15616,-700,5148,46,19,-23
10815.989,309,296,297,309,-15692,-572,5168,104,100,-96
10821.285,308,297,297,309,-15692,-572,5168,104,100,-96
10827.005,307,296,297,309,-15692,-572,5168,104,100,-96
10833.396,307,296,297,309,-15692,-572,5168,104,100,-96
10838.211,307,296,297,309,-15692,-572,5168,104,100,-96
10846.392,307,296,297,308,-15692,-572,5168,104,100,-96
10849.077,308,297,298,310,-15692,-572,5168,104,100,-96
10860.315,307,296,298,311,-15768,-596,5036,448,114,-74
10860.315,308,296,298,310,-15768,-596,5036,448,114,-74
10871.361,308,296,297,310,-15768,-596,5036,448,114,-74
10874.612000000001,308,296,298,310,-15768,-596,5036,448,114,-74
10874.612000000001,307,296,298,311,-15768,-596,5036,448,114,-74
10883.402,307,296,298,309,-15768,-596,5036,448,114,-74
10893.819000000001,307,296,297,309,-15768,-596,5036,448,114,-74
10893.819000000001,307,296,298,310,-15684,-724,4740,58,-14,37
10904.795,305,294,297,310,-15684,-724,4740,58,-14,37
10907.163,305,294,297,309,-15684,-724,4740,58,-14,37
10917.168,305,295,297,309,-15684,-724,4740,58,-14,37
10917.168,306,297,297,310,-15684,-724,4740,58,-14,37
10925.171,306,297,296,309,-15684,-724,4740,58,-14,37
10927.696,306,296,297,309,-15684,-724,4740,58,-14,37
10938.347,307,296,297,308,-15660,-660,5184,-47,-55,-27
10938.347,306,296,297,308,-15660,-660,5184,-47,-55,-27
10949.442,306,297,297,309,-15660,-660,5184,-47,-55,-27
10949.442,305,297,298,310,-15660,-660,5184,-47,-55,-27
10960.146,305,297,297,308,-15660,-660,5184,-47,-55,-27
10964.66,304,297,297,308,-15660,-660,5184,-47,-55,-27
10971.379,304,297,296,309,-15660,-660,5184,-47,-55,-27
10977.052,304,297,297,309,-15752,-724,4896,431,-90,-6
10982.047,306,297,296,309,-15752,-724,4896,431,-90,-6
10984.975,306,297,296,307,-15752,-724,4896,431,-90,-6
10994.486,306,298,295,307,-15752,-724,4896,431,-90,-6
10994.486,306,299,296,308,-15752,-724,4896,431,-90,-6
11004.721,306,298,296,308,-15752,-724,4896,431,-90,-6
11010.281,304,297,297,307,-15752,-724,4896,431,-90,-6
11015.036,304,298,296,308,-15768,-664,5204,564,-69,-143
11022.458,306,298,296,308,-15768,-664,5204,564,-69,-143
11027.264000000001,308,299,297,308,-15768,-664,5204,564,-69,-143
11034.419,307,299,296,308,-15768,-664,5204,564,-69,-143
11039.166,307,299,296,307,-15768,-664,5204,564,-69,-143
11042.069,308,300,297,307,-15768,-664,5204,564,-69,-143
11049.393,308,300,297,308,-15768,-664,5204,564,-69,-143
11060.307999999999,308,299,297,309,-15616,-708,4948,729,53,-173
11060.307999999999,307,299,297,308,-15616,-708,4948,729,53,-173
11067.019,307,299,297,307,-15616,-708,4948,729,53,-173
11072.14,308,299,297,308,-15616,-708,4948,729,53,-173
11078.995,308,300,297,308,-15616,-708,4948,729,53,-173
11082.96,309,301,297,308,-15616,-708,4948,729,53,-173
11093.579,309,300,298,309,-15616,-708,4948,729,53,-173
11093.579,309,300,298,310,-15708,-784,4860,405,-78,-177
11105.105,310,301,298,310,-15708,-784,4860,405,-78,-177
11108.469,310,301,296,308,-15708,-784,4860,405,-78,-177
11117.108999999999,310,301,299,311,-15708,-784,4860,405,-78,-177
11122.838,308,300,298,310,-15708,-784,4860,405,-78,-177
11126.975,308,300,298,310,-15708,-784,4860,405,-78,-177
11132.861,308,301,299,310,-15784,-640,5252,-48,2,-205
11137.967,308,300,298,310,-15784,-640,5252,-48,2,-205
11140.68,308,300,298,311,-15784,-640,5252,-48,2,-205
11149.789,307,300,299,311,-15784,-640,5252,-48,2,-205
11158.487,308,299,299,311,-15784,-640,5252,-48,2,-205
11160.69,307,299,298,310,-15784,-640,5252,-48,2,-205
11167.12,308,300,299,310,-15784,-640,5252,-48,2,-205
11171.303,308,300,298,311,-15784,-640,5252,-48,2,-205
11177.442,307,300,299,310,-15648,-484,5204,207,65,-217
11182.875,308,301,298,310,-15648,-484,5204,207,65,-217
11189.872,310,300,298,310,-15648,-484,5204,207,65,-217
11193.508,308,300,297,310,-15648,-484,5204,207,65,-217
11204.342999999999,308,300,298,310,-15648,-484,5204,207,65,-217
11204.342999999999,309,300,297,310,-15648,-484,5204,207,65,-217
11215.822,308,299,297,310,-15648,-484,5204,207,65,-217
11218.795,309,299,297,309,-15792,-872,5068,35,-24,-225
11218.795,308,300,295,307,-15792,-872,5068,35,-24,-225
11228.194,309,300,296,307,-15792,-872,5068,35,-24,-225
11235.234,308,299,296,308,-15792,-872,5068,35,-24,-225
11237.99,307,298,295,306,-15792,-872,5068,35,-24,-225
11249.022,309,299,296,307,-15792,-872,5068,35,-24,-225
11249.022,308,299,296,307,-15768,-840,5016,1,8,-80
11260.623000000001,308,298,296,307,-15768,-840,5016,1,8,-80
11260.623000000001,308,300,296,306,-15768,-840,5016,1,8,-80
11269.897,309,301,296,306,-15768,-840,5016,1,8,-80
11272.610999999999,309,301,296,305,-15768,-840,5016,1,8,-80
11280.716999999999,308,301,295,304,-15768,-840,5016,1,8,-80
11286.784000000001,309,301,295,303,-15768,-840,5016,1,8,-80
11287.822,309,302,296,303,-15768,-840,5016,1,8,-80
11293.426,309,303,297,304,-15712,-724,4960,97,-42,-90
11300.382000000001,308,303,297,304,-15712,-724,4960,97,-42,-90
11305.17,309,304,297,304,-15712,-724,4960,97,-42,-90
11309.207,309,304,297,304,-15712,-724,4960,97,-42,-90
11317.067,311,304,297,304,-15712,-724,4960,97,-42,-90
11326.502,309,304,298,304,-15712,-724,4960,97,-42,-90
11328.855000000001,310,304,298,304,-15712,-724,4960,97,-42,-90
11328.855000000001,310,305,299,304,-15708,-996,4812,26,-81,17
11338.693,309,305,299,304,-15708,-996,4812,26,-81,17
11345.81,309,305,300,304,-15708,-996,4812,26,-81,17
11349.341,309,306,299,305,-15708,-996,4812,26,-81,17
11359.909,310,306,300,305,-15708,-996,4812,26,-81,17
11360.601,309,305,299,305,-15708,-996,4812,26,-81,17
11366.249,309,304,299,305,-15708,-996,4812,26,-81,17
11371.069,309,305,300,306,-15680,-512,5140,91,-18,-114
11377.884999999998,309,305,300,306,-15680,-512,5140,91,-18,-114
11382.784,308,303,300,306,-15680,-512,5140,91,-18,-114
11390.623,309,304,302,307,-15680,-512,5140,91,-18,-114
11393.57,308,304,301,309,-15680,-512,5140,91,-18,-114
11405.165,308,305,301,308,-15680,-512,5140,91,-18,-114
11405.165,308,304,301,308,-15680,-512,5140,91,-18,-114
11416.029,308,304,300,308,-15712,-536,5284,81,-31,-133
11419.336,308,304,301,310,-15712,-536,5284,81,-31,-133
11419.336,308,305,301,310,-15712,-536,5284,81,-31,-133
11428.126,308,304,301,310,-15712,-536,5284,81,-31,-133
11438.198999999999,307,304,301,310,-15712,-536,5284,81,-31,-133
11446.5,306,303,301,311,-15712,-536,5284,81,-31,-133
11450.312,306,302,301,310,-15712,-536,5284,81,-31,-133
11458.552,306,303,301,310,-15696,-900,5176,-130,-26,42
11460.536,308,303,301,311,-15696,-900,5176,-130,-26,42
11460.536,307,303,301,311,-15696,-900,5176,-130,-26,42
11471.152999999998,306,303,301,311,-15696,-900,5176,-130,-26,42
11476.31,306,303,300,312,-15696,-900,5176,-130,-26,42
11482.132,306,304,300,313,-15696,-900,5176,-130,-26,42
11484.787,307,304,300,313,-15696,-900,5176,-130,-26,42
11494.272,306,303,300,314,-15696,-552,5080,-41,-62,75
11502.848,306,303,301,316,-15696,-552,5080,-41,-62,75
11505.222,306,301,301,315,-15696,-552,5080,-41,-62,75
11509.128999999999,305,300,301,316,-15696,-552,5080,-41,-62,75
11515.554,305,301,301,315,-15696,-552,5080,-41,-62,75
11522.131,306,302,301,316,-15696,-552,5080,-41,-62,75
11526.961,306,302,300,315,-15696,-552,5080,-41,-62,75
11534.08,306,301,301,316,-15728,-768,5188,-48,-26,-39
11538.323999999999,306,301,300,316,-15728,-768,5188,-48,-26,-39
11542.48,306,301,300,316,-15728,-768,5188,-48,-26,-39
11549.561000000002,306,300,300,315,-15728,-768,5188,-48,-26,-39
11560.193,306,300,300,315,-15728,-768,5188,-48,-26,-39
11560.193,306,300,300,315,-15728,-768,5188,-48,-26,-39
11567.687,307,300,301,315,-15728,-768,5188,-48,-26,-39
11571.220000000001,307,300,300,315,-15664,-924,5088,-31,21,26
11579.173,306,299,299,314,-15664,-924,5088,-31,21,26
11582.848,307,299,299,313,-15664,-924,5088,-31,21,26
11593.219,306,299,300,314,-15664,-924,5088,-31,21,26
11595.387999999999,306,299,301,314,-15664,-924,5088,-31,21,26
11605.534,306,298,301,314,-15664,-924,5088,-31,21,26
11605.534,306,298,300,313,-15664,-924,5088,-31,21,26
11611.962,306,298,299,313,-15664,-924,5088,-31,21,26
11616.144,306,297,300,313,-15652,-564,5484,-307,57,-45
11626.774,305,298,300,313,-15652,-564,5484,-307,57,-45
11630.392,307,298,300,313,-15652,-564,5484,-307,57,-45
11637.946,305,297,300,314,-15652,-564,5484,-307,57,-45
11637.946,304,296,300,313,-15652,-564,5484,-307,57,-45
11649.108999999999,305,296,300,313,-15652,-564,5484,-307,57,-45
11652.763,306,297,300,313,-15652,-564,5484,-307,57,-45
11652.763,305,297,301,314,-15692,-632,5068,-92,101,15
11661.718,306,297,301,314,-15692,-632,5068,-92,101,15
11671.6,307,297,300,312,-15692,-632,5068,-92,101,15
11679.71,306,297,300,314,-15692,-632,5068,-92,101,15
11683.052,305,296,300,313,-15692,-632,5068,-92,101,15
11685.280999999999,304,296,299,311,-15692,-632,5068,-92,101,15
11694.097,305,296,301,311,-15692,-632,5068,-92,101,15
11694.097,305,297,300,312,-15792,-712,5184,73,-13,-52
11704.815,306,297,300,312,-15792,-712,5184,73,-13,-52
11705.828,305,295,299,312,-15792,-712,5184,73,-13,-52
11716.538,305,296,300,312,-15792,-712,5184,73,-13,-52
11724.814999999999,305,296,300,312,-15792,-712,5184,73,-13,-52
11728.24,305,296,300,311,-15792,-712,5184,73,-13,-52
11733.471,305,296,299,312,-15792,-712,5184,73,-13,-52
11740.762,305,296,300,312,-15624,-748,5024,-56,65,-5
11742.961,305,296,300,312,-15624,-748,5024,-56,65,-5
11748.541,306,297,300,312,-15624,-748,5024,-56,65,-5
11748.541,305,297,300,312,-15624,-748,5024,-56,65,-5
11760.24,306,297,299,313,-15624,-748,5024,-56,65,-5
11760.24,305,297,298,311,-15624,-748,5024,-56,65,-5
11771.134999999998,305,297,299,312,-15624,-748,5024,-56,65,-5
11775.899000000001,305,297,299,312,-15680,-816,4872,-50,-86,5
11782.237000000001,305,298,299,312,-15680,-816,4872,-50,-86,5
11782.237000000001,305,298,299,312,-15680,-816,4872,-50,-86,5
11792.161,305,297,298,311,-15680,-816,4872,-50,-86,5
11796.562,305,297,298,310,-15680,-816,4872,-50,-86,5
11806.206,306,298,298,310,-15680,-816,4872,-50,-86,5
11806.206,305,299,298,310,-15680,-816,4872,-50,-86,5
11815.661,305,299,298,310,-15676,-788,5144,-62,-105,133
11820.881,305,298,299,310,-15676,-788,5144,-62,-105,133
11826.672999999999,305,298,298,310,-15676,-788,5144,-62,-105,133
11828.846,306,299,299,310,-15676,-788,5144,-62,-105,133
11836.852,307,299,298,311,-15676,-788,5144,-62,-105,133
11841.293,306,299,299,311,-15676,-788,5144,-62,-105,133
11849.969,306,300,298,311,-15676,-788,5144,-62,-105,133
11859.471,306,301,299,311,-15716,-448,5264,78,-26,52
11860.809,306,302,299,311,-15716,-448,5264,78,-26,52
11865.837000000001,306,301,299,311,-15716,-448,5264,78,-26,52
11870.999,306,301,299,310,-15716,-448,5264,78,-26,52
11878.361,306,301,299,311,-15716,-448,5264,78,-26,52
11883.008,306,301,299,310,-15716,-448,5264,78,-26,52
11886.421,306,301,299,310,-15716,-448,5264,78,-26,52
11894.701,306,302,300,311,-15664,-516,5084,-198,-81,-59
11905.011999999999,307,302,299,311,-15664,-516,5084,-198,-81,-59
11906.527,306,301,298,309,-15664,-516,5084,-198,-81,-59
11912.642,307,302,300,309,-15664,-516,5084,-198,-81,-59
11915.787999999999,308,302,299,310,-15664,-516,5084,-198,-81,-59
11923.517,307,303,299,309,-15664,-516,5084,-198,-81,-59
11926.884,308,303,300,308,-15664,-516,5084,-198,-81,-59
11937.811,307,303,299,309,-15700,-716,5160,-348,-90,65
11945.888,306,303,299,308,-15700,-716,5160,-348,-90,65
11949.151,306,304,299,307,-15700,-716,5160,-348,-90,65
11949.151,306,303,299,307,-15700,-716,5160,-348,-90,65
11960.158,307,304,298,307,-15700,-716,5160,-348,-90,65
11964.26,308,304,298,306,-15700,-716,5160,-348,-90,65
11971.385,307,303,298,306,-15700,-716,5160,-348,-90,65
11976.252,307,302,298,306,-15672,-728,5180,-102,-33,-101
11982.161,306,303,298,306,-15672,-728,5180,-102,-33,-101
11988.037,306,303,299,307,-15672,-728,5180,-102,-33,-101
11993.312,304,303,299,306,-15672,-728,5180,-102,-33,-101
11996.877,306,303,299,307,-15672,-728,5180,-102,-33,-101
12006.717,307,303,298,307,-15672,-728,5180,-102,-33,-101
12014.73,307,302,299,307,-15672,-728,5180,-102,-33,-101
12016.803,307,302,298,307,-15728,-752,5156,50,-21,-53
12026.989,306,303,299,307,-15728,-752,5156,50,-21,-53
12026.989,307,303,299,309,-15728,-752,5156,50,-21,-53
12033.804999999998,306,302,299,310,-15728,-752,5156,50,-21,-53
12038.338,306,301,299,310,-15728,-752,5156,50,-21,-53
12046.188,307,302,300,310,-15728,-752,5156,50,-21,-53
12049.172,306,301,299,310,-15728,-752,5156,50,-21,-53
12059.714,306,302,300,311,-15712,-656,4892,-70,-143,62
12059.714,306,303,299,310,-15712,-656,4892,-70,-143,62
12071.517,307,303,300,310,-15712,-656,4892,-70,-143,62
12075.045,307,303,299,310,-15712,-656,4892,-70,-143,62
12083.162,307,304,299,310,-15712,-656,4892,-70,-143,62
12083.162,307,304,299,308,-15712,-656,4892,-70,-143,62
12093.694,308,303,299,308,-15712,-656,4892,-70,-143,62
12102.065,308,304,299,309,-15756,-976,4976,-145,-354,342
12104.917000000001,309,304,299,308,-15756,-976,4976,-145,-354,342
12106.939,308,304,299,307,-15756,-976,4976,-145,-354,342
12116.543,308,304,299,308,-15756,-976,4976,-145,-354,342
12125.154,308,304,300,308,-15756,-976,4976,-145,-354,342
12127.753999999999,309,304,299,307,-15756,-976,4976,-145,-354,342
12138.688999999998,309,303,300,308,-15756,-976,4976,-145,-354,342
12142.425,308,303,299,309,-15752,-684,4816,90,-1172,832
12144.261,308,303,300,309,-15752,-684,4816,90,-1172,832
12149.188,308,303,299,310,-15752,-684,4816,90,-1172,832
12157.176,307,303,299,310,-15752,-684,4816,90,-1172,832
12160.39,307,303,298,310,-15752,-684,4816,90,-1172,832
12171.485999999999,307,303,298,310,-15752,-684,4816,90,-1172,832
12179.96,307,302,299,311,-15632,-2056,3824,-536,-2364,1937
12182.517,305,302,299,311,-15632,-2056,3824,-536,-2364,1937
12191.53,305,302,300,312,-15632,-2056,3824,-536,-2364,1937
12193.842,303,301,301,314,-15632,-2056,3824,-536,-2364,1937
12202.769999999999,303,300,302,316,-15632,-2056,3824,-536,-2364,1937
12206.804,302,299,304,315,-15632,-2056,3824,-536,-2364,1937
12215.778,300,298,306,317,-15632,-2056,3824,-536,-2364,1937
12225.455,300,297,308,319,-15796,-4484,736,-2270,-4967,4617
12228.803,298,295,311,321,-15796,-4484,736,-2270,-4967,4617
12236.166000000001,297,293,315,324,-15796,-4484,736,-2270,-4967,4617
12240.938,294,291,320,328,-15796,-4484,736,-2270,-4967,4617
12249.108,293,290,323,332,-15796,-4484,736,-2270,-4967,4617
12251.419,291,288,327,338,-15796,-4484,736,-2270,-4967,4617
12260.312,288,286,330,345,-15176,-3928,200,-2182,-8874,6634
12269.567000000001,285,285,334,351,-15176,-3928,200,-2182,-8874,6634
12271.546,282,284,336,360,-15176,-3928,200,-2182,-8874,6634
12275.539,276,283,339,371,-15176,-3928,200,-2182,-8874,6634
12286.124,271,283,340,379,-15176,-3928,200,-2182,-8874,6634
12294.117999999999,267,281,342,386,-15176,-3928,200,-2182,-8874,6634
12294.117999999999,263,281,344,392,-14008,-3108,1140,-70,-12684,9135
12304.875,260,281,346,398,-14008,-3108,1140,-70,-12684,9135
12314.932999999999,259,282,348,401,-14008,-3108,1140,-70,-12684,9135
12316.412,258,284,347,403,-14008,-3108,1140,-70,-12684,9135
12327.096,257,288,345,403,-14008,-3108,1140,-70,-12684,9135
12327.096,259,311,341,411,-14008,-3108,1140,-70,-12684,9135
12338.09,262,335,339,420,-14008,-3108,1140,-70,-12684,9135
12341.1,267,357,337,426,-11924,-2600,2632,2963,-16128,11772
12350.157,272,375,335,426,-11924,-2600,2632,2963,-16128,11772
12358.85,278,389,335,425,-11924,-2600,2632,2963,-16128,11772
12361.239,286,404,338,419,-11924,-2600,2632,2963,-16128,11772
12371.228000000001,304,424,343,407,-11924,-2600,2632,2963,-16128,11772
12371.228000000001,331,439,353,398,-11924,-2600,2632,2963,-16128,11772
12383.037,358,446,360,396,-9324,2932,8420,1264,-19878,13861
12391.535,392,452,363,399,-9324,2932,8420,1264,-19878,13861
12393.475,419,455,361,407,-9324,2932,8420,1264,-19878,13861
12402.737000000001,443,454,355,420,-9324,2932,8420,1264,-19878,13861
12406.747,469,448,345,439,-9324,2932,8420,1264,-19878,13861
12414.14,490,438,332,458,-9324,2932,8420,1264,-19878,13861
12422.142,515,423,314,482,-8176,4648,10336,-1477,-20075,14517
12427.241,542,403,302,508,-8176,4648,10336,-1477,-20075,14517
12437.163999999999,562,384,292,532,-8176,4648,10336,-1477,-20075,14517
12441.662,584,365,282,557,-8176,4648,10336,-1477,-20075,14517
12447.682999999999,607,343,274,584,-8176,4648,10336,-1477,-20075,14517
12451.074,626,323,266,609,-8176,4648,10336,-1477,-20075,14517
12459.788,641,307,263,628,-6580,5528,11104,-4953,-20370,13011
12470.213,655,293,256,644,-6580,5528,11104,-4953,-20370,13011
12470.837,667,279,258,658,-6580,5528,11104,-4953,-20370,13011
12481.268,674,268,264,667,-6580,5528,11104,-4953,-20370,13011
12481.268,680,259,277,671,-6580,5528,11104,-4953,-20370,13011
12493.426,683,254,288,673,-6580,5528,11104,-4953,-20370,13011
12502.022,684,254,303,674,-5708,8416,14500,-5158,-18203,10196
12506.807999999999,682,251,318,672,-5708,8416,14500,-5158,-18203,10196
12515.469,678,242,332,670,-5708,8416,14500,-5158,-18203,10196
12523.979000000001,674,226,347,670,-5708,8416,14500,-5158,-18203,10196
12526.017,670,205,356,669,-5708,8416,14500,-5158,-18203,10196
12534.874,666,187,345,669,-5708,8416,14500,-5158,-18203,10196
12537.356000000002,659,165,345,671,-5304,5564,16464,-4349,-15860,7546
12548.619999999999,657,144,358,670,-5304,5564,16464,-4349,-15860,7546
12556.755000000001,660,125,354,667,-5304,5564,16464,-4349,-15860,7546
12559.787999999999,668,112,352,665,-5304,5564,16464,-4349,-15860,7546
12562.176,678,107,348,661,-5304,5564,16464,-4349,-15860,7546
12569.956,679,105,343,654,-5304,5564,16464,-4349,-15860,7546
12580.857,679,105,339,646,-4064,5464,13816,-901,-15389,6690
12581.585000000001,674,112,331,633,-4064,5464,13816,-901,-15389,6690
12593.197,665,121,321,617,-4064,5464,13816,-901,-15389,6690
12601.295,650,128,313,597,-4064,5464,13816,-901,-15389,6690
12603.767,633,133,312,574,-4064,5464,13816,-901,-15389,6690
12606.923,618,141,309,547,-4064,5464,13816,-901,-15389,6690
12614.669,610,149,302,523,-2440,5320,16436,-3427,-12582,4144
12625.966,603,158,287,494,-2440,5320,16436,-3427,-12582,4144
12634.351999999999,598,165,267,470,-2440,5320,16436,-3427,-12582,4144
12637.095000000001,593,166,250,444,-2440,5320,16436,-3427,-12582,4144
12646.558,586,153,242,418,-2440,5320,16436,-3427,-12582,4144
12652.361,574,140,241,387,-2440,5320,16436,-3427,-12582,4144
12659.008,559,140,250,360,-2440,5320,16436,-3427,-12582,4144
12659.67,541,116,259,318,-936,5344,18648,-4361,-11225,2942
12670.836,529,98,254,274,-936,5344,18648,-4361,-11225,2942
12678.998,519,90,241,240,-936,5344,18648,-4361,-11225,2942
12681.767,506,82,223,217,-936,5344,18648,-4361,-11225,2942
12691.306,482,68,205,195,-936,5344,18648,-4361,-11225,2942
12693.151,461,60,198,180,-936,5344,18648,-4361,-11225,2942
12703.572,439,57,198,165,-448,6132,18092,-2176,-10380,679
12707.081,415,60,206,148,-448,6132,18092,-2176,-10380,679
12715.780999999999,398,68,218,140,-448,6132,18092,-2176,-10380,679
12715.780999999999,376,84,242,131,-448,6132,18092,-2176,-10380,679
12726.248,358,99,267,126,-448,6132,18092,-2176,-10380,679
12729.979,339,113,291,122,-448,6132,18092,-2176,-10380,679
12737.244999999999,319,130,320,118,-728,2404,17964,-6270,-8168,294
12742.598,293,153,361,114,-728,2404,17964,-6270,-8168,294
12747.713,272,170,393,110,-728,2404,17964,-6270,-8168,294
12754.372,250,191,431,105,-728,2404,17964,-6270,-8168,294
12758.854,224,217,465,99,-728,2404,17964,-6270,-8168,294
12767.007,202,242,489,91,-728,2404,17964,-6270,-8168,294
12770.932999999999,182,264,508,82,-728,2404,17964,-6270,-8168,294
12781.637,164,284,523,74,-448,3632,18916,-182,-7726,360
12789.726,147,302,530,63,-448,3632,18916,-182,-7726,360
12792.107,134,317,533,55,-448,3632,18916,-182,-7726,360
12795.9,121,334,536,48,-448,3632,18916,-182,-7726,360
12804.079,111,347,541,40,-448,3632,18916,-182,-7726,360
12807.585,101,360,543,33,-448,3632,18916,-182,-7726,360
12815.238000000001,92,371,547,28,-448,3632,18916,-182,-7726,360
12823.328,83,382,550,22,-396,3360,24844,351,-5184,411
12826.041,75,392,551,17,-396,3360,24844,351,-5184,411
12832.68,69,399,553,15,-396,3360,24844,351,-5184,411
12836.596,63,407,553,12,-396,3360,24844,351,-5184,411
12840.234,56,416,553,10,-396,3360,24844,351,-5184,411
12848.524,50,424,549,9,-396,3360,24844,351,-5184,411
12848.524,43,431,544,9,-396,3360,24844,351,-5184,411
12860.082999999999,38,438,540,9,812,1008,12364,8018,-1247,1210
12868.157,30,445,536,10,812,1008,12364,8018,-1247,1210
12870.414999999999,24,449,530,11,812,1008,12364,8018,-1247,1210
12877.724,16,454,526,15,812,1008,12364,8018,-1247,1210
12882.167000000001,10,457,518,19,812,1008,12364,8018,-1247,1210
12886.871,6,458,509,21,812,1008,12364,8018,-1247,1210
12893.646,2,458,495,26,812,1008,12364,8018,-1247,1210
12904.126,0,458,478,31,-544,6652,17088,2764,-1135,742
12907.635,0,458,459,36,-544,6652,17088,2764,-1135,742
12910.257,1,457,443,41,-544,6652,17088,2764,-1135,742
12914.345000000001,7,456,427,47,-544,6652,17088,2764,-1135,742
12922.439,16,455,407,54,-544,6652,17088,2764,-1135,742
12927.178,31,453,385,60,-544,6652,17088,2764,-1135,742
12937.144999999999,49,450,365,68,-544,6652,17088,2764,-1135,742
12938.815999999999,66,447,349,75,-80,3968,15200,-384,-204,888
12947.53,93,443,326,82,-80,3968,15200,-384,-204,888
12950.663,108,440,311,88,-80,3968,15200,-384,-204,888
12950.663,131,434,286,97,-80,3968,15200,-384,-204,888
12959.318,153,426,255,104,-80,3968,15200,-384,-204,888
12969.767,171,413,228,110,-80,3968,15200,-384,-204,888
12970.454,191,394,197,120,-80,3968,15200,-384,-204,888
12981.693,209,373,165,130,380,5092,14868,1213,-1905,1085
12981.693,226,349,132,139,380,5092,14868,1213,-1905,1085
12993.376,239,322,101,148,380,5092,14868,1213,-1905,1085
12996.432,246,289,66,160,380,5092,14868,1213,-1905,1085
13004.284,251,252,31,171,380,5092,14868,1213,-1905,1085
13008.016,251,214,0,181,380,5092,14868,1213,-1905,1085
13014.695,244,184,0,189,380,5092,14868,1213,-1905,1085
13020.251999999999,233,148,0,200,244,4364,15392,806,-1239,625
13025.494999999999,222,111,0,211,244,4364,15392,806,-1239,625
13029.303,212,79,0,220,244,4364,15392,806,-1239,625
13038.021,202,35,0,229,244,4364,15392,806,-1239,625
13038.021,191,0,0,239,244,4364,15392,806,-1239,625
13048.329000000002,184,0,0,246,244,4364,15392,806,-1239,625
13056.489,179,0,0,253,244,4364,15392,806,-1239,625
13059.692000000001,174,0,0,261,552,4344,15444,353,-4,315
13059.692000000001,170,0,0,268,552,4344,15444,353,-4,315
13067.869999999999,168,0,0,271,552,4344,15444,353,-4,315
13070.633000000002,164,0,0,277,552,4344,15444,353,-4,315
13080.527,161,0,0,282,552,4344,15444,353,-4,315
13085.048,157,0,0,286,552,4344,15444,353,-4,315
13089.17,152,0,0,288,552,4344,15444,353,-4,315
13093.349,147,0,0,288,552,4344,15444,353,-4,315
13100.752,142,1,0,289,1024,4136,15308,812,218,80
13104.566,136,8,0,289,1024,4136,15308,812,218,80
13108.11,132,12,0,289,1024,4136,15308,812,218,80
13111.457,126,19,0,289,1024,4136,15308,812,218,80
13115.071,122,26,2,288,1024,4136,15308,812,218,80
13125.382,118,32,7,286,1024,4136,15308,812,218,80
13126.17,113,38,14,285,1024,4136,15308,812,218,80
13131.786,109,44,26,285,1024,4136,15308,812,218,80
13136.547999999999,104,53,43,285,448,5252,15280,1564,485,-201
13143.084,100,65,63,284,448,5252,15280,1564,485,-201
13147.846,96,76,80,282,448,5252,15280,1564,485,-201
13151.602,91,91,97,281,448,5252,15280,1564,485,-201
13160.822,84,109,114,279,448,5252,15280,1564,485,-201
13167.139000000001,74,130,132,275,448,5252,15280,1564,485,-201
13170.632,58,152,149,271,448,5252,15280,1564,485,-201
13177.48,44,172,163,269,448,5252,15280,1564,485,-201
13181.727,24,197,176,264,548,4540,15716,395,1075,-524
13189.214,0,226,188,258,548,4540,15716,395,1075,-524
13193.049,0,255,196,254,548,4540,15716,395,1075,-524
13203.442000000001,0,284,200,250,548,4540,15716,395,1075,-524
13208.204,0,321,197,244,548,4540,15716,395,1075,-524
13209.312,0,353,189,239,548,4540,15716,395,1075,-524
13215.947,0,389,176,234,548,4540,15716,395,1075,-524
13224.548,0,417,166,231,424,5312,15188,743,763,-416
13227.109,0,450,154,227,424,5312,15188,743,763,-416
13235.953,0,468,152,225,424,5312,15188,743,763,-416
13237.387,0,491,151,225,424,5312,15188,743,763,-416
13242.437,0,509,152,224,424,5312,15188,743,763,-416
13248.832999999999,0,527,157,223,424,5312,15188,743,763,-416
13254.362000000001,0,545,166,223,424,5312,15188,743,763,-416
13258.776,0,559,175,224,280,4908,14992,-329,-228,50
13262.291,1,572,191,223,280,4908,14992,-329,-228,50
13270.961,4,580,205,224,280,4908,14992,-329,-228,50
13270.961,11,586,221,226,280,4908,14992,-329,-228,50
13281.688,19,590,240,227,280,4908,14992,-329,-228,50
13288.224,28,591,257,229,280,4908,14992,-329,-228,50
13292.253,41,590,278,231,280,4908,14992,-329,-228,50
13296.965,51,586,295,235,280,4908,14992,-329,-228,50
13304.658,65,576,315,238,-188,4668,15536,-590,-388,392
13308.175000000001,80,562,332,242,-188,4668,15536,-590,-388,392
13314.691,92,550,347,247,-188,4668,15536,-590,-388,392
13319.916,107,538,364,251,-188,4668,15536,-590,-388,392
13325.293,121,527,380,255,-188,4668,15536,-590,-388,392
13332.382000000001,136,516,393,258,-188,4668,15536,-590,-388,392
13337.127,150,504,405,260,0,4644,15584,766,-42,43
13340.661,163,494,414,260,0,4644,15584,766,-42,43
13348.352,171,488,420,259,0,4644,15584,766,-42,43
13348.352,182,480,428,259,0,4644,15584,766,-42,43
13359.332999999999,192,473,436,259,0,4644,15584,766,-42,43
13360.313,204,466,444,259,0,4644,15584,766,-42,43
13371.028,214,463,453,259,0,4644,15584,766,-42,43
13371.028,225,459,462,259,0,4644,15584,766,-42,43
13381.987000000001,237,456,474,261,612,5216,15196,1401,81,-223
13384.520999999999,249,454,485,260,612,5216,15196,1401,81,-223
13393.203,260,453,495,261,612,5216,15196,1401,81,-223
13394.265000000001,272,452,504,262,612,5216,15196,1401,81,-223
13403.682,285,450,515,262,612,5216,15196,1401,81,-223
13409.751999999999,299,448,526,262,612,5216,15196,1401,81,-223
13414.353000000001,310,447,536,263,612,5216,15196,1401,81,-223
13417.765,324,445,548,264,260,4972,15200,630,317,-211
13426.546999999999,337,442,558,265,260,4972,15200,630,317,-211
13426.546999999999,348,440,566,265,260,4972,15200,630,317,-211
13437.188,359,436,576,267,260,4972,15200,630,317,-211
13445.244999999999,368,434,584,267,260,4972,15200,630,317,-211
13448.203,377,432,593,266,260,4972,15200,630,317,-211
13448.203,385,427,602,264,260,4972,15200,630,317,-211
13459.025,391,424,610,264,260,4972,15200,630,317,-211
13462.795,398,422,618,262,324,5164,15148,61,-13,96
13470.372,404,420,627,261,324,5164,15148,61,-13,96
13470.372,407,417,632,260,324,5164,15148,61,-13,96
13481.793,411,413,639,259,324,5164,15148,61,-13,96
13481.793,414,410,644,257,324,5164,15148,61,-13,96
13489.736,417,408,648,255,324,5164,15148,61,-13,96
13492.714,420,405,652,253,324,5164,15148,61,-13,96
13500.341,422,402,655,251,392,5248,15272,-218,-94,109
13508.519,422,399,656,248,392,5248,15272,-218,-94,109
13515.008,424,397,656,245,392,5248,15272,-218,-94,109
13515.008,425,394,655,243,392,5248,15272,-218,-94,109
13526.009,425,392,653,242,392,5248,15272,-218,-94,109
13526.009,426,391,650,239,392,5248,15272,-218,-94,109
13533.154,426,390,647,237,392,5248,15272,-218,-94,109
13537.181999999999,427,388,641,236,400,5124,15204,155,95,-55
13547.654,426,389,635,235,400,5124,15204,155,95,-55
13548.244999999999,426,388,630,235,400,5124,15204,155,95,-55
13558.997,425,389,624,235,400,5124,15204,155,95,-55
13558.997,423,390,616,236,400,5124,15204,155,95,-55
13558.997,421,390,609,236,400,5124,15204,155,95,-55
13570.213000000002,419,392,604,237,400,5124,15204,155,95,-55
13578.007,416,393,596,239,400,5124,15204,155,95,-55
13582.035,412,395,589,240,260,5300,15308,309,78,41
13587.786,408,396,579,242,260,5300,15308,309,78,41
13592.813,404,396,572,245,260,5300,15308,309,78,41
13598.089999999998,399,396,565,251,260,5300,15308,309,78,41
13603.187,394,396,556,255,260,5300,15308,309,78,41
13608.762999999999,388,396,547,260,260,5300,15308,309,78,41
13615.641,383,395,536,267,260,5300,15308,309,78,41
13615.641,379,394,526,272,388,5220,15348,74,56,-39
13625.966,375,394,513,278,388,5220,15348,74,56,-39
13625.966,372,394,505,282,388,5220,15348,74,56,-39
13637.206,368,393,491,289,388,5220,15348,74,56,-39
13637.206,365,392,480,294,388,5220,15348,74,56,-39
13648.402,361,391,468,299,388,5220,15348,74,56,-39
13651.613,357,390,456,303,388,5220,15348,74,56,-39
13651.613,353,387,441,309,388,5220,15348,74,56,-39
13660.814,351,386,428,313,332,5044,15308,-328,43,-159
13670.577,349,383,412,317,332,5044,15308,-328,43,-159
13674.347,347,382,401,321,332,5044,15308,-328,43,-159
13681.471,345,378,387,324,332,5044,15308,-328,43,-159
13683.935,340,375,376,326,332,5044,15308,-328,43,-159
13683.935,336,370,363,329,332,5044,15308,-328,43,-159
13693.654,332,363,350,332,332,5044,15308,-328,43,-159
13703.110999999999,328,357,339,333,412,5240,15296,-187,-18,-30
13709.26,325,349,328,333,412,5240,15296,-187,-18,-30
13715.104,323,344,321,334,412,5240,15296,-187,-18,-30
13715.104,322,337,315,335,412,5240,15296,-187,-18,-30
13726.132,320,330,309,336,412,5240,15296,-187,-18,-30
13729.350999999999,319,327,304,335,412,5240,15296,-187,-18,-30
