Time (ms),EMG,AccX,AccY,AccZ,GyroX,GyroY,GyroZ
1.046,280,-556,14064,8128,-116,-39,-12
2.016,279,-548,14060,8264,-304,-46,-6
3.0,280,-548,14060,8264,-304,-46,-6
4.001,280,-556,14064,8128,-116,-39,-12
5.001,279,-548,14060,8264,-304,-46,-6
5.999,280,-548,14060,8264,-304,-46,-6
1544.815,0,0,0,0,0,0,0
1549.758,118,0,0,0,0,0,0
1549.758,118,0,0,0,0,0,0
1550.759,117,0,0,0,0,0,0
1553.763,119,0,0,0,0,0,0
1554.758,118,0,0,0,0,0,0
1557.765,120,0,0,0,0,0,0
1558.76,120,0,0,0,0,0,0
1559.764,121,0,0,0,0,0,0
1561.76,121,0,0,0,0,0,0
1562.76,123,0,0,0,0,0,0
1562.76,121,0,0,0,0,0,0
1565.771,122,0,0,0,0,0,0
1566.76,124,0,0,0,0,0,0
1566.76,126,0,0,0,0,0,0
1569.763,125,0,0,0,0,0,0
1570.76,125,0,0,0,0,0,0
1573.76,127,0,0,0,0,0,0
1575.759,130,-552,14064,8212,31,-50,-16
1578.779,131,-552,14064,8212,31,-50,-16
1581.759,131,-552,14064,8212,31,-50,-16
1582.7610000000002,134,-552,14064,8212,31,-50,-16
1586.763,137,-552,14064,8212,31,-50,-16
1590.7649999999999,139,-552,14064,8212,31,-50,-16
1591.765,140,-552,14064,8212,31,-50,-16
1594.762,143,-552,14064,8212,31,-50,-16
1598.7610000000002,143,-528,14156,8248,-82,-43,-18
1599.766,146,-528,14156,8248,-82,-43,-18
1602.768,146,-528,14156,8248,-82,-43,-18
1606.76,149,-528,14156,8248,-82,-43,-18
1607.777,150,-528,14156,8248,-82,-43,-18
1611.778,154,-528,14156,8248,-82,-43,-18
1615.315,156,-528,14156,8248,-82,-43,-18
1615.861,157,-556,14092,8224,18,-25,-2
1619.392,159,-556,14092,8224,18,-25,-2
1622.948,161,-556,14092,8224,18,-25,-2
1623.949,164,-556,14092,8224,18,-25,-2
1626.9450000000002,166,-556,14092,8224,18,-25,-2
1631.0,168,-556,14092,8224,18,-25,-2
1631.946,171,-556,14092,8224,18,-25,-2
1635.963,175,-568,14048,8192,4,-50,-20
1639.945,180,-568,14048,8192,4,-50,-20
1639.945,183,-568,14048,8192,4,-50,-20
1643.9470000000001,186,-568,14048,8192,4,-50,-20
1647.9470000000001,191,-568,14048,8192,4,-50,-20
1647.9470000000001,194,-568,14048,8192,4,-50,-20
1651.953,197,-568,14048,8192,4,-50,-20
1655.943,202,-568,14048,8192,4,-50,-20
1656.944,206,-528,14056,8216,-40,-25,-18
1659.9479999999999,212,-528,14056,8216,-40,-25,-18
1663.948,215,-528,14056,8216,-40,-25,-18
1664.943,219,-528,14056,8216,-40,-25,-18
1667.945,221,-528,14056,8216,-40,-25,-18
1671.945,226,-528,14056,8216,-40,-25,-18
1672.944,227,-528,14056,8216,-40,-25,-18
1676.948,231,-540,14068,8240,-55,-38,-32
1680.943,236,-540,14068,8240,-55,-38,-32
1680.943,236,-540,14068,8240,-55,-38,-32
1684.945,242,-540,14068,8240,-55,-38,-32
1688.9479999999999,243,-540,14068,8240,-55,-38,-32
1692.9479999999999,245,-540,14068,8240,-55,-38,-32
1693.945,250,-540,14068,8240,-55,-38,-32
1696.949,251,-520,14048,8248,-49,-35,-12
1700.944,255,-520,14048,8248,-49,-35,-12
1701.944,255,-520,14048,8248,-49,-35,-12
1704.944,260,-520,14048,8248,-49,-35,-12
1708.949,262,-520,14048,8248,-49,-35,-12
1709.948,265,-520,14048,8248,-49,-35,-12
1713.944,268,-520,14048,8248,-49,-35,-12
1716.9460000000001,270,-552,14040,8224,-67,-50,-12
1717.9450000000002,274,-552,14040,8224,-67,-50,-12
1721.994,276,-552,14040,8224,-67,-50,-12
1725.944,278,-552,14040,8224,-67,-50,-12
1729.943,279,-552,14040,8224,-67,-50,-12
1729.943,281,-552,14040,8224,-67,-50,-12
1733.946,284,-552,14040,8224,-67,-50,-12
1737.944,283,-544,14096,8248,-29,-37,-18
1738.943,286,-544,14096,8248,-29,-37,-18
1741.948,288,-544,14096,8248,-29,-37,-18
1745.995,288,-544,14096,8248,-29,-37,-18
1746.943,290,-544,14096,8248,-29,-37,-18
1749.985,293,-544,14096,8248,-29,-37,-18
1753.946,293,-544,14096,8248,-29,-37,-18
1754.945,295,-508,14132,8208,45,-43,-14
1758.949,296,-508,14132,8208,45,-43,-14
1762.9470000000001,297,-508,14132,8208,45,-43,-14
1762.9470000000001,300,-508,14132,8208,45,-43,-14
1766.946,300,-508,14132,8208,45,-43,-14
1770.621,300,-508,14132,8208,45,-43,-14
1771.62,306,-508,14132,8208,45,-43,-14
1774.6280000000002,304,-536,14104,8260,-26,-39,-8
1778.638,310,-536,14104,8260,-26,-39,-8
1782.3439999999998,309,-536,14104,8260,-26,-39,-8
1783.3609999999999,314,-536,14104,8260,-26,-39,-8
1787.358,315,-536,14104,8260,-26,-39,-8
1791.463,319,-536,14104,8260,-26,-39,-8
1792.463,322,-536,14104,8260,-26,-39,-8
1795.463,325,-584,14012,8216,-36,-47,1
1799.458,329,-584,14012,8216,-36,-47,1
1799.458,333,-584,14012,8216,-36,-47,1
1803.785,340,-584,14012,8216,-36,-47,1
1804.4579999999999,344,-584,14012,8216,-36,-47,1
1807.4589999999998,349,-584,14012,8216,-36,-47,1
1811.464,358,-584,14012,8216,-36,-47,1
1812.485,361,-584,14012,8216,-36,-47,1
1816.4579999999999,365,-560,14020,8192,-44,-28,-13
1819.458,375,-560,14020,8192,-44,-28,-13
1820.4579999999999,379,-560,14020,8192,-44,-28,-13
1824.461,380,-560,14020,8192,-44,-28,-13
1828.4640000000002,388,-560,14020,8192,-44,-28,-13
1832.4609999999998,391,-560,14020,8192,-44,-28,-13
1832.4609999999998,392,-560,14020,8192,-44,-28,-13
1836.459,398,-528,14120,8244,-57,-24,6
1840.4579999999999,402,-528,14120,8244,-57,-24,6
1841.463,403,-528,14120,8244,-57,-24,6
1844.479,405,-528,14120,8244,-57,-24,6
1848.4579999999999,406,-528,14120,8244,-57,-24,6
1849.46,408,-528,14120,8244,-57,-24,6
1852.4959999999999,408,-528,14120,8244,-57,-24,6
1853.4569999999999,410,-528,14120,8244,-57,-24,6
1856.4560000000001,411,-524,14064,8244,-7,-41,-17
1860.459,412,-524,14064,8244,-7,-41,-17
1861.4630000000002,413,-524,14064,8244,-7,-41,-17
1865.458,415,-524,14064,8244,-7,-41,-17
1868.571,422,-524,14064,8244,-7,-41,-17
1873.383,429,-524,14064,8244,-7,-41,-17
1874.073,438,-524,14064,8244,-7,-41,-17
1877.071,447,-588,14052,8184,11,-38,-5
1878.0710000000001,459,-588,14052,8184,11,-38,-5
1881.105,465,-588,14052,8184,11,-38,-5
1885.067,471,-588,14052,8184,11,-38,-5
1886.066,477,-588,14052,8184,11,-38,-5
1889.6409999999998,483,-588,14052,8184,11,-38,-5
1893.654,489,-588,14052,8184,11,-38,-5
1894.663,493,-516,14072,8212,4,-16,-4
1897.651,496,-516,14072,8212,4,-16,-4
1902.312,498,-516,14072,8212,4,-16,-4
1902.946,501,-516,14072,8212,4,-16,-4
1905.945,500,-516,14072,8212,4,-16,-4
1909.989,503,-516,14072,8212,4,-16,-4
1910.944,504,-516,14072,8212,4,-16,-4
1913.9440000000002,504,-516,14072,8212,4,-16,-4
1914.943,507,-532,14040,8272,-47,-49,-43
1918.0040000000001,508,-532,14040,8272,-47,-49,-43
1923.381,509,-532,14040,8272,-47,-49,-43
1927.391,509,-532,14040,8272,-47,-49,-43
1935.381,509,-532,14040,8272,-47,-49,-43
1943.364,509,-532,14040,8272,-47,-49,-43
1946.369,510,-532,14040,8272,-47,-49,-43
1949.362,508,-500,14116,8236,-27,-49,-19
1951.364,506,-500,14116,8236,-27,-49,-19
1952.375,508,-500,14116,8236,-27,-49,-19
1954.359,504,-500,14116,8236,-27,-49,-19
1956.364,504,-500,14116,8236,-27,-49,-19
1957.362,502,-500,14116,8236,-27,-49,-19
1959.364,500,-500,14116,8236,-27,-49,-19
1961.366,499,-564,14024,8216,-35,-48,-20
1962.361,496,-564,14024,8216,-35,-48,-20
1963.3609999999999,494,-564,14024,8216,-35,-48,-20
1964.355,492,-564,14024,8216,-35,-48,-20
1967.356,488,-564,14024,8216,-35,-48,-20
1971.3560000000002,485,-564,14024,8216,-35,-48,-20
1972.355,483,-564,14024,8216,-35,-48,-20
1975.398,478,-512,14088,8264,-62,-32,-16
1979.3529999999998,473,-512,14088,8264,-62,-32,-16
1980.36,471,-512,14088,8264,-62,-32,-16
1983.357,466,-512,14088,8264,-62,-32,-16
1987.244,463,-512,14088,8264,-62,-32,-16
1991.263,457,-512,14088,8264,-62,-32,-16
1992.258,454,-512,14088,8264,-62,-32,-16
1996.263,452,-528,14048,8272,-53,-30,10
2000.255,445,-528,14048,8272,-53,-30,10
2000.255,444,-528,14048,8272,-53,-30,10
2004.2559999999999,438,-528,14048,8272,-53,-30,10
2008.258,434,-528,14048,8272,-53,-30,10
2009.258,427,-528,14048,8272,-53,-30,10
2012.2589999999998,426,-528,14048,8272,-53,-30,10
2016.473,418,-528,14048,8272,-53,-30,10
2017.4699999999998,415,-532,14052,8268,2,-56,-19
2020.47,408,-532,14052,8268,2,-56,-19
2024.991,404,-532,14052,8268,2,-56,-19
2024.991,401,-532,14052,8268,2,-56,-19
2029.0349999999999,395,-532,14052,8268,2,-56,-19
2029.9879999999998,392,-532,14052,8268,2,-56,-19
2033.2400000000002,387,-532,14052,8268,2,-56,-19
2037.239,382,-560,14076,8236,21,-29,7
2037.239,375,-560,14076,8236,21,-29,7
2041.2400000000002,373,-560,14076,8236,21,-29,7
2045.2400000000002,366,-560,14076,8236,21,-29,7
2046.2440000000001,362,-560,14076,8236,21,-29,7
2049.2400000000002,360,-560,14076,8236,21,-29,7
2053.3,356,-560,14076,8236,21,-29,7
2054.3019999999997,351,-560,14076,8236,21,-29,7
2057.302,346,-536,14060,8236,-53,-40,-15
2061.3199999999997,341,-536,14060,8236,-53,-40,-15
2062.305,338,-536,14060,8236,-53,-40,-15
2065.301,332,-536,14060,8236,-53,-40,-15
2069.674,329,-536,14060,8236,-53,-40,-15
2070.292,323,-536,14060,8236,-53,-40,-15
2074.308,320,-536,14060,8236,-53,-40,-15
2078.315,316,-544,14020,8248,-36,-27,-8
2079.31,311,-544,14020,8248,-36,-27,-8
2082.306,308,-544,14020,8248,-36,-27,-8
2086.355,304,-544,14020,8248,-36,-27,-8
2087.3149999999996,300,-544,14020,8248,-36,-27,-8
2089.963,294,-544,14020,8248,-36,-27,-8
2093.975,293,-544,14020,8248,-36,-27,-8
2094.9779999999996,288,-512,14112,8244,-12,-39,-6
2097.975,286,-512,14112,8244,-12,-39,-6
2102.0919999999996,283,-512,14112,8244,-12,-39,-6
2102.975,278,-512,14112,8244,-12,-39,-6
2106.328,276,-512,14112,8244,-12,-39,-6
2110.2219999999998,273,-512,14112,8244,-12,-39,-6
2111.228,270,-512,14112,8244,-12,-39,-6
2115.224,266,-512,14112,8244,-12,-39,-6
2119.299,265,-516,14052,8288,-30,-29,-13
2122.224,259,-516,14052,8288,-30,-29,-13
2123.221,257,-516,14052,8288,-30,-29,-13
2127.2259999999997,258,-516,14052,8288,-30,-29,-13
2130.973,254,-516,14052,8288,-30,-29,-13
2131.983,254,-516,14052,8288,-30,-29,-13
2135.0820000000003,250,-516,14052,8288,-30,-29,-13
2139.9230000000002,250,-540,14040,8240,-12,-65,-11
2140.94,247,-540,14040,8240,-12,-65,-11
2143.936,246,-540,14040,8240,-12,-65,-11
2147.936,244,-540,14040,8240,-12,-65,-11
2147.936,243,-540,14040,8240,-12,-65,-11
2151.94,241,-540,14040,8240,-12,-65,-11
2155.933,239,-540,14040,8240,-12,-65,-11
2159.977,238,-524,14088,8208,-30,-21,-11
2160.936,239,-524,14088,8208,-30,-21,-11
2163.935,238,-524,14088,8208,-30,-21,-11
2167.933,237,-524,14088,8208,-30,-21,-11
2168.936,236,-524,14088,8208,-30,-21,-11
2171.935,236,-524,14088,8208,-30,-21,-11
2175.937,239,-524,14088,8208,-30,-21,-11
2176.9379999999996,236,-532,14044,8320,-29,-24,-24
2179.936,237,-532,14044,8320,-29,-24,-24
2183.973,238,-532,14044,8320,-29,-24,-24
2184.935,242,-532,14044,8320,-29,-24,-24
2188.973,241,-532,14044,8320,-29,-24,-24
2192.995,242,-532,14044,8320,-29,-24,-24
2196.993,242,-532,14044,8320,-29,-24,-24
2196.993,244,-508,14052,8176,23,-47,11
2201.421,247,-508,14052,8176,23,-47,11
2204.8109999999997,247,-508,14052,8176,23,-47,11
2205.42,246,-508,14052,8176,23,-47,11
2209.421,249,-508,14052,8176,23,-47,11
2209.421,249,-508,14052,8176,23,-47,11
2213.419,250,-508,14052,8176,23,-47,11
2217.664,252,-536,14116,8284,-10,-26,-24
2221.6209999999996,253,-536,14116,8284,-10,-26,-24
2221.9509999999996,253,-536,14116,8284,-10,-26,-24
2225.963,256,-536,14116,8284,-10,-26,-24
2228.9629999999997,255,-536,14116,8284,-10,-26,-24
2229.964,258,-536,14116,8284,-10,-26,-24
2233.964,259,-536,14116,8284,-10,-26,-24
2238.08,262,-532,14040,8216,-70,-20,1
2238.9649999999997,263,-532,14040,8216,-70,-20,1
2241.965,263,-532,14040,8216,-70,-20,1
2245.96,264,-532,14040,8216,-70,-20,1
2245.96,264,-532,14040,8216,-70,-20,1
2250.345,265,-532,14040,8216,-70,-20,1
2254.331,265,-532,14040,8216,-70,-20,1
2254.331,264,-532,14040,8216,-70,-20,1
2258.3419999999996,266,-568,14068,8268,-18,-23,-19
2262.409,264,-568,14068,8268,-18,-23,-19
2263.3399999999997,265,-568,14068,8268,-18,-23,-19
2266.344,262,-568,14068,8268,-18,-23,-19
2270.933,264,-568,14068,8268,-18,-23,-19
2271.971,262,-568,14068,8268,-18,-23,-19
2274.982,264,-568,14068,8268,-18,-23,-19
2278.984,261,-584,14080,8244,41,-21,1
2278.984,263,-584,14080,8244,41,-21,1
2282.5319999999997,263,-584,14080,8244,41,-21,1
2286.541,263,-584,14080,8244,41,-21,1
2287.54,264,-584,14080,8244,41,-21,1
2290.54,263,-584,14080,8244,41,-21,1
2291.547,261,-584,14080,8244,41,-21,1
2295.544,264,-584,14080,8244,41,-21,1
2298.581,262,-568,14052,8184,-30,-40,-9
2299.5429999999997,263,-568,14052,8184,-30,-40,-9
2303.546,262,-568,14052,8184,-30,-40,-9
2306.911,264,-568,14052,8184,-30,-40,-9
2307.925,266,-568,14052,8184,-30,-40,-9
2311.9269999999997,264,-568,14052,8184,-30,-40,-9
2316.3140000000003,267,-568,14052,8184,-30,-40,-9
2316.3140000000003,267,-568,14076,8240,-59,-24,-21
2319.3320000000003,268,-568,14076,8240,-59,-24,-21
2323.3250000000003,269,-568,14076,8240,-59,-24,-21
2327.368,267,-568,14076,8240,-59,-24,-21
2328.3239999999996,270,-568,14076,8240,-59,-24,-21
2332.326,271,-568,14076,8240,-59,-24,-21
2336.587,272,-568,14076,8240,-59,-24,-21
2336.587,271,-556,14124,8272,-34,-31,12
2340.592,273,-556,14124,8272,-34,-31,12
2343.643,273,-556,14124,8272,-34,-31,12
2344.591,275,-556,14124,8272,-34,-31,12
2348.162,277,-556,14124,8272,-34,-31,12
2352.1740000000004,275,-556,14124,8272,-34,-31,12
2353.176,278,-556,14124,8272,-34,-31,12
2357.176,279,-488,14084,8288,0,-49,-10
2360.179,279,-488,14084,8288,0,-49,-10
2361.173,280,-488,14084,8288,0,-49,-10
2365.174,280,-488,14084,8288,0,-49,-10
2369.217,283,-488,14084,8288,0,-49,-10
2369.6389999999997,282,-488,14084,8288,0,-49,-10
2373.982,283,-488,14084,8288,0,-49,-10
2377.034,286,-488,14084,8288,0,-49,-10
2377.034,288,-572,14200,8324,-148,-54,-5
2380.992,289,-572,14200,8324,-148,-54,-5
2385.53,289,-572,14200,8324,-148,-54,-5
2385.53,294,-572,14200,8324,-148,-54,-5
2389.539,294,-572,14200,8324,-148,-54,-5
2393.5409999999997,298,-572,14200,8324,-148,-54,-5
2393.5409999999997,299,-572,14200,8324,-148,-54,-5
2397.54,301,-488,14108,8268,117,-56,0
2401.826,303,-488,14108,8268,117,-56,0
2402.547,304,-488,14108,8268,117,-56,0
2405.9300000000003,306,-488,14108,8268,117,-56,0
2409.544,308,-488,14108,8268,117,-56,0
2410.5409999999997,306,-488,14108,8268,117,-56,0
2413.539,310,-488,14108,8268,117,-56,0
2418.011,308,-500,14008,8140,-8,-29,-28
2418.011,308,-500,14008,8140,-8,-29,-28
2422.024,308,-500,14008,8140,-8,-29,-28
2426.024,308,-500,14008,8140,-8,-29,-28
2427.022,308,-500,14008,8140,-8,-29,-28
2430.0730000000003,304,-500,14008,8140,-8,-29,-28
2434.058,305,-500,14008,8140,-8,-29,-28
2435.025,303,-500,14008,8140,-8,-29,-28
2438.064,303,-572,14012,8264,-181,-42,-2
2442.054,303,-572,14012,8264,-181,-42,-2
2444.0240000000003,303,-572,14012,8264,-181,-42,-2
2447.024,301,-572,14012,8264,-181,-42,-2
2451.024,301,-572,14012,8264,-181,-42,-2
2454.024,299,-572,14012,8264,-181,-42,-2
2455.024,296,-572,14012,8264,-181,-42,-2
2459.022,298,-544,14036,8260,-22,-46,5
2463.041,294,-544,14036,8260,-22,-46,5
2463.041,295,-544,14036,8260,-22,-46,5
2467.0589999999997,293,-544,14036,8260,-22,-46,5
2468.0209999999997,292,-544,14036,8260,-22,-46,5
2471.063,292,-544,14036,8260,-22,-46,5
2475.023,288,-544,14036,8260,-22,-46,5
2476.023,288,-552,14088,8264,81,-23,-16
2479.024,288,-552,14088,8264,81,-23,-16
2484.0170000000003,286,-552,14088,8264,81,-23,-16
2484.581,284,-552,14088,8264,81,-23,-16
2488.069,282,-552,14088,8264,81,-23,-16
2492.073,281,-552,14088,8264,81,-23,-16
2492.073,275,-552,14088,8264,81,-23,-16
2496.069,275,-552,14088,8264,81,-23,-16
2500.069,269,-556,13932,8092,-32,-10,-25
2504.0879999999997,268,-556,13932,8092,-32,-10,-25
2504.0879999999997,265,-556,13932,8092,-32,-10,-25
2508.07,263,-556,13932,8092,-32,-10,-25
2512.07,260,-556,13932,8092,-32,-10,-25
2513.072,259,-556,13932,8092,-32,-10,-25
2516.0719999999997,255,-556,13932,8092,-32,-10,-25
2520.0710000000004,255,-528,14112,8268,-58,-37,-9
2521.0699999999997,253,-528,14112,8268,-58,-37,-9
2525.071,252,-528,14112,8268,-58,-37,-9
2528.076,250,-528,14112,8268,-58,-37,-9
2529.077,249,-528,14112,8268,-58,-37,-9
2533.074,250,-528,14112,8268,-58,-37,-9
2537.072,248,-528,14112,8268,-58,-37,-9
2538.073,249,-512,14080,8268,208,-25,-11
2541.073,246,-512,14080,8268,208,-25,-11
2545.076,245,-512,14080,8268,208,-25,-11
2549.0719999999997,245,-512,14080,8268,208,-25,-11
2549.0719999999997,245,-512,14080,8268,208,-25,-11
2553.096,244,-512,14080,8268,208,-25,-11
2557.069,243,-512,14080,8268,208,-25,-11
2558.0699999999997,242,-500,14120,8148,-90,-48,-12
2561.073,242,-500,14120,8148,-90,-48,-12
2565.069,244,-500,14120,8148,-90,-48,-12
2566.071,243,-500,14120,8148,-90,-48,-12
2569.069,244,-500,14120,8148,-90,-48,-12
2573.0719999999997,243,-500,14120,8148,-90,-48,-12
2574.072,242,-500,14120,8148,-90,-48,-12
2578.069,243,-496,14104,8236,-226,-47,-18
2581.7709999999997,241,-496,14104,8236,-226,-47,-18
2585.787,243,-496,14104,8236,-226,-47,-18
2585.787,244,-496,14104,8236,-226,-47,-18
2590.0769999999998,245,-496,14104,8236,-226,-47,-18
2593.971,246,-496,14104,8236,-226,-47,-18
2594.973,247,-496,14104,8236,-226,-47,-18
2597.966,246,-496,14076,8236,-130,-49,-6
2601.991,248,-496,14076,8236,-130,-49,-6
2605.967,252,-496,14076,8236,-130,-49,-6
2606.9680000000003,251,-496,14076,8236,-130,-49,-6
2609.969,254,-496,14076,8236,-130,-49,-6
2613.971,255,-496,14076,8236,-130,-49,-6
2614.9680000000003,255,-496,14076,8236,-130,-49,-6
2618.9680000000003,258,-508,14064,8244,98,-26,-20
2621.969,258,-508,14064,8244,98,-26,-20
2623.967,258,-508,14064,8244,98,-26,-20
2626.9700000000003,262,-508,14064,8244,98,-26,-20
2630.969,261,-508,14064,8244,98,-26,-20
2631.9680000000003,263,-508,14064,8244,98,-26,-20
2634.969,264,-508,14064,8244,98,-26,-20
2638.9649999999997,267,-516,14108,8288,61,-28,-2
2639.9680000000003,270,-516,14108,8288,61,-28,-2
2642.9939999999997,269,-516,14108,8288,61,-28,-2
2647.0,273,-516,14108,8288,61,-28,-2
2648.087,273,-516,14108,8288,61,-28,-2
2651.249,277,-516,14108,8288,61,-28,-2
2655.2509999999997,278,-516,14108,8288,61,-28,-2
2656.21,281,-516,14108,8288,61,-28,-2
2659.212,284,-540,14076,8196,163,-35,-29
2663.215,288,-540,14076,8196,163,-35,-29
2664.215,288,-540,14076,8196,163,-35,-29
2667.21,291,-540,14076,8196,163,-35,-29
2671.214,293,-540,14076,8196,163,-35,-29
2672.212,297,-540,14076,8196,163,-35,-29
2676.214,303,-540,14076,8196,163,-35,-29
2680.23,304,-516,14056,8028,-123,-52,-12
2684.212,308,-516,14056,8028,-123,-52,-12
2685.2149999999997,312,-516,14056,8028,-123,-52,-12
2688.211,316,-516,14056,8028,-123,-52,-12
2692.2160000000003,319,-516,14056,8028,-123,-52,-12
2693.2140000000004,326,-516,14056,8028,-123,-52,-12
2696.211,331,-516,14056,8028,-123,-52,-12
2700.252,337,-516,14148,8320,-373,-69,-22
2704.2549999999997,345,-516,14148,8320,-373,-69,-22
2705.216,348,-516,14148,8320,-373,-69,-22
2709.212,350,-516,14148,8320,-373,-69,-22
2712.147,356,-516,14148,8320,-373,-69,-22
2713.159,361,-516,14148,8320,-373,-69,-22
2717.159,362,-500,14052,8372,62,-39,-6
2721.166,368,-500,14052,8372,62,-39,-6
2722.1600000000003,371,-500,14052,8372,62,-39,-6
2725.216,372,-500,14052,8372,62,-39,-6
2729.1620000000003,377,-500,14052,8372,62,-39,-6
2730.161,380,-500,14052,8372,62,-39,-6
2733.201,381,-500,14052,8372,62,-39,-6
2737.199,382,-500,14052,8372,62,-39,-6
2738.1600000000003,385,-540,14052,8212,245,-40,-38
2741.159,386,-540,14052,8212,245,-40,-38
2745.158,388,-540,14052,8212,245,-40,-38
2746.1639999999998,391,-540,14052,8212,245,-40,-38
2750.161,388,-540,14052,8212,245,-40,-38
2754.1600000000003,391,-540,14052,8212,245,-40,-38
2754.1600000000003,392,-540,14052,8212,245,-40,-38
2758.159,390,-556,14052,8148,-132,-54,-11
2762.161,390,-556,14052,8148,-132,-54,-11
2766.1600000000003,390,-556,14052,8148,-132,-54,-11
2766.1600000000003,391,-556,14052,8148,-132,-54,-11
2770.161,388,-556,14052,8148,-132,-54,-11
2774.161,390,-556,14052,8148,-132,-54,-11
2775.159,386,-556,14052,8148,-132,-54,-11
2778.158,385,-536,14064,8324,-283,-54,9
2782.2,384,-536,14064,8324,-283,-54,9
2783.158,383,-536,14064,8324,-283,-54,9
2786.157,379,-536,14064,8324,-283,-54,9
2790.162,378,-536,14064,8324,-283,-54,9
2791.166,378,-536,14064,8324,-283,-54,9
2795.1670000000004,374,-536,14064,8324,-283,-54,9
2799.1600000000003,374,-552,14056,8300,223,-33,-18
2803.158,372,-552,14056,8300,223,-33,-18
2803.158,370,-552,14056,8300,223,-33,-18
2807.1600000000003,370,-552,14056,8300,223,-33,-18
2811.164,370,-552,14056,8300,223,-33,-18
2812.167,368,-552,14056,8300,223,-33,-18
2815.202,368,-552,14056,8300,223,-33,-18
2819.196,365,-572,14072,8128,87,-24,-19
2820.163,365,-572,14072,8128,87,-24,-19
2823.1820000000002,367,-572,14072,8128,87,-24,-19
2827.884,363,-572,14072,8128,87,-24,-19
2828.989,364,-572,14072,8128,87,-24,-19
2831.235,363,-572,14072,8128,87,-24,-19
2835.428,363,-572,14072,8128,87,-24,-19
2836.539,362,-572,14072,8128,87,-24,-19
2839.711,363,-512,14096,8200,-166,-43,-6
2844.1040000000003,363,-512,14096,8200,-166,-43,-6
2845.1749999999997,362,-512,14096,8200,-166,-43,-6
2848.396,364,-512,14096,8200,-166,-43,-6
2851.765,361,-512,14096,8200,-166,-43,-6
2855.975,363,-512,14096,8200,-166,-43,-6
2857.009,361,-512,14096,8200,-166,-43,-6
2860.016,363,-552,14072,8244,-29,-24,-29
2864.019,363,-552,14072,8244,-29,-24,-29
2865.0190000000002,364,-552,14072,8244,-29,-24,-29
2868.018,364,-552,14072,8244,-29,-24,-29
2872.016,363,-552,14072,8244,-29,-24,-29
2873.024,364,-552,14072,8244,-29,-24,-29
2877.026,364,-552,14072,8244,-29,-24,-29
2881.02,366,-512,14076,8192,-26,-41,-44
2882.022,366,-512,14076,8192,-26,-41,-44
2885.02,366,-512,14076,8192,-26,-41,-44
2889.02,364,-512,14076,8192,-26,-41,-44
2893.0229999999997,367,-512,14076,8192,-26,-41,-44
2894.0209999999997,366,-512,14076,8192,-26,-41,-44
2897.0220000000004,365,-512,14076,8192,-26,-41,-44
2901.185,368,-464,14096,8260,-117,-32,-15
2902.024,366,-464,14096,8260,-117,-32,-15
2905.021,368,-464,14096,8260,-117,-32,-15
2909.0220000000004,367,-464,14096,8260,-117,-32,-15
2913.537,369,-464,14096,8260,-117,-32,-15
2914.539,366,-464,14096,8260,-117,-32,-15
2917.542,370,-464,14096,8260,-117,-32,-15
2921.5879999999997,369,-512,14036,8304,1,-51,-15
2922.545,368,-512,14036,8304,1,-51,-15
2925.544,369,-512,14036,8304,1,-51,-15
2929.5860000000002,367,-512,14036,8304,1,-51,-15
2930.583,368,-512,14036,8304,1,-51,-15
2933.54,367,-512,14036,8304,1,-51,-15
2937.576,366,-512,14036,8304,1,-51,-15
2938.5370000000003,367,-488,14088,8248,78,-24,-4
2942.54,366,-488,14088,8248,78,-24,-4
2943.542,365,-488,14088,8248,78,-24,-4
2946.539,365,-488,14088,8248,78,-24,-4
2950.5460000000003,362,-488,14088,8248,78,-24,-4
2950.5460000000003,363,-488,14088,8248,78,-24,-4
2954.542,362,-488,14088,8248,78,-24,-4
2958.542,360,-488,14088,8248,78,-24,-4
2959.5389999999998,359,-564,14080,8224,-138,-41,-23
2962.5370000000003,356,-564,14080,8224,-138,-41,-23
2966.539,356,-564,14080,8224,-138,-41,-23
2970.551,355,-564,14080,8224,-138,-41,-23
2972.556,353,-564,14080,8224,-138,-41,-23
2975.546,352,-564,14080,8224,-138,-41,-23
2978.547,351,-528,14036,8252,-44,-25,8
2979.542,351,-528,14036,8252,-44,-25,8
2983.538,352,-528,14036,8252,-44,-25,8
2986.543,349,-528,14036,8252,-44,-25,8
2987.542,350,-528,14036,8252,-44,-25,8
2991.542,349,-528,14036,8252,-44,-25,8
2995.5409999999997,348,-528,14036,8252,-44,-25,8
2995.5409999999997,348,-528,14036,8252,-44,-25,8
2999.5389999999998,348,-500,14040,8204,66,-27,-6
3003.542,348,-500,14040,8204,66,-27,-6
3004.541,350,-500,14040,8204,66,-27,-6
3007.5440000000003,348,-500,14040,8204,66,-27,-6
3008.541,349,-500,14040,8204,66,-27,-6
3011.5389999999998,350,-500,14040,8204,66,-27,-6
3015.543,349,-500,14040,8204,66,-27,-6
3017.553,352,-500,14040,8204,66,-27,-6
3019.5460000000003,351,-520,14120,8180,-25,-24,-1
3023.5389999999998,354,-520,14120,8180,-25,-24,-1
3024.542,354,-520,14120,8180,-25,-24,-1
3028.5370000000003,353,-520,14120,8180,-25,-24,-1
3032.5370000000003,355,-520,14120,8180,-25,-24,-1
3032.5370000000003,356,-520,14120,8180,-25,-24,-1
3036.54,355,-520,14120,8180,-25,-24,-1
3040.6040000000003,357,-512,14120,8236,-91,-28,1
3041.539,361,-512,14120,8236,-91,-28,1
3044.5449999999996,360,-512,14120,8236,-91,-28,1
3048.551,362,-512,14120,8236,-91,-28,1
3050.54,362,-512,14120,8236,-91,-28,1
3052.5389999999998,362,-512,14120,8236,-91,-28,1
3057.543,365,-512,14120,8236,-91,-28,1
3057.543,365,-564,14012,8208,-31,-44,-29
3060.576,367,-564,14012,8208,-31,-44,-29
3064.541,367,-564,14012,8208,-31,-44,-29
3065.541,367,-564,14012,8208,-31,-44,-29
3069.541,368,-564,14012,8208,-31,-44,-29
3073.54,368,-564,14012,8208,-31,-44,-29
3077.544,369,-564,14012,8208,-31,-44,-29
3078.542,368,-540,14124,8252,-17,-55,-3
3081.5769999999998,369,-540,14124,8252,-17,-55,-3
3085.54,369,-540,14124,8252,-17,-55,-3
3085.54,371,-540,14124,8252,-17,-55,-3
3089.542,371,-540,14124,8252,-17,-55,-3
3093.538,368,-540,14124,8252,-17,-55,-3
3094.5429999999997,370,-540,14124,8252,-17,-55,-3
3098.546,369,-540,14124,8252,-17,-55,-3
3101.543,369,-540,14036,8180,35,-31,-18
3102.541,370,-540,14036,8180,35,-31,-18
3106.538,371,-540,14036,8180,35,-31,-18
3109.616,372,-540,14036,8180,35,-31,-18
3110.541,370,-540,14036,8180,35,-31,-18
3114.538,368,-540,14036,8180,35,-31,-18
3118.538,369,-540,14036,8180,35,-31,-18
3118.538,370,-564,14084,8220,-11,-49,-28
3122.546,370,-564,14084,8220,-11,-49,-28
3126.5969999999998,370,-564,14084,8220,-11,-49,-28
3127.539,368,-564,14084,8220,-11,-49,-28
3130.585,368,-564,14084,8220,-11,-49,-28
3134.567,365,-564,14084,8220,-11,-49,-28
3135.539,365,-564,14084,8220,-11,-49,-28
3138.569,365,-516,14064,8240,-128,-38,-11
3142.574,364,-516,14064,8240,-128,-38,-11
3146.575,364,-516,14064,8240,-128,-38,-11
3147.537,363,-516,14064,8240,-128,-38,-11
3151.537,360,-516,14064,8240,-128,-38,-11
3155.543,359,-516,14064,8240,-128,-38,-11
3155.543,358,-516,14064,8240,-128,-38,-11
3159.538,357,-500,14060,8272,-54,-52,-4
3163.545,355,-500,14060,8272,-54,-52,-4
3167.541,354,-500,14060,8272,-54,-52,-4
3168.5460000000003,354,-500,14060,8272,-54,-52,-4
3171.706,351,-500,14060,8272,-54,-52,-4
3175.59,348,-500,14060,8272,-54,-52,-4
3176.587,348,-500,14060,8272,-54,-52,-4
3179.5860000000002,347,-508,14088,8248,70,-44,-7
3180.585,345,-508,14088,8248,70,-44,-7
3183.5860000000002,345,-508,14088,8248,70,-44,-7
3187.774,344,-508,14088,8248,70,-44,-7
3188.7819999999997,342,-508,14088,8248,70,-44,-7
3191.786,340,-508,14088,8248,70,-44,-7
3195.785,339,-508,14088,8248,70,-44,-7
3196.7850000000003,338,-508,14088,8248,70,-44,-7
3200.781,337,-580,14088,8188,76,-44,-9
3203.808,335,-580,14088,8188,76,-44,-9
3204.7799999999997,335,-580,14088,8188,76,-44,-9
3208.781,333,-580,14088,8188,76,-44,-9
3212.785,334,-580,14088,8188,76,-44,-9
3212.785,332,-580,14088,8188,76,-44,-9
3216.785,330,-580,14088,8188,76,-44,-9
3220.792,332,-492,14000,8200,-57,-32,-18
3221.797,330,-492,14000,8200,-57,-32,-18
3224.783,330,-492,14000,8200,-57,-32,-18
3228.7889999999998,328,-492,14000,8200,-57,-32,-18
3229.787,325,-492,14000,8200,-57,-32,-18
3232.8100000000004,326,-492,14000,8200,-57,-32,-18
3236.7819999999997,325,-492,14000,8200,-57,-32,-18
3240.819,324,-552,14124,8228,-141,-49,15
3241.786,324,-552,14124,8228,-141,-49,15
3245.782,323,-552,14124,8228,-141,-49,15
3248.785,322,-552,14124,8228,-141,-49,15
3249.788,319,-552,14124,8228,-141,-49,15
3253.782,317,-552,14124,8228,-141,-49,15
3257.783,319,-552,14124,8228,-141,-49,15
3257.783,318,-484,14104,8300,-18,-42,-19
3261.791,317,-484,14104,8300,-18,-42,-19
3265.781,317,-484,14104,8300,-18,-42,-19
3266.7830000000004,314,-484,14104,8300,-18,-42,-19
3269.781,315,-484,14104,8300,-18,-42,-19
3273.596,312,-484,14104,8300,-18,-42,-19
3277.598,311,-484,14104,8300,-18,-42,-19
3278.597,311,-544,14040,8208,68,-38,-29
3282.5989999999997,310,-544,14040,8208,68,-38,-29
3285.598,309,-544,14040,8208,68,-38,-29
3286.596,306,-544,14040,8208,68,-38,-29
3290.5989999999997,305,-544,14040,8208,68,-38,-29
3294.602,304,-544,14040,8208,68,-38,-29
3295.6,302,-544,14040,8208,68,-38,-29
3298.639,303,-544,14040,8208,68,-38,-29
3302.594,302,-552,14116,8248,-109,-49,-16
3303.596,300,-552,14116,8248,-109,-49,-16
3306.7090000000003,300,-552,14116,8248,-109,-49,-16
3310.739,297,-552,14116,8248,-109,-49,-16
3311.735,297,-552,14116,8248,-109,-49,-16
3314.7540000000004,295,-552,14116,8248,-109,-49,-16
3318.735,294,-552,14116,8248,-109,-49,-16
3323.331,293,-508,14068,8248,-81,-51,16
3323.985,293,-508,14068,8248,-81,-51,16
3326.998,292,-508,14068,8248,-81,-51,16
3332.0150000000003,291,-508,14068,8248,-81,-51,16
3333.017,288,-508,14068,8248,-81,-51,16
3335.005,290,-508,14068,8248,-81,-51,16
3338.9959999999996,290,-508,14068,8248,-81,-51,16
3339.996,285,-532,14044,8252,51,-29,-16
3343.998,286,-532,14044,8252,51,-29,-16
3348.0029999999997,288,-532,14044,8252,51,-29,-16
3349.0099999999998,287,-532,14044,8252,51,-29,-16
3351.844,286,-532,14044,8252,51,-29,-16
3356.1299999999997,283,-532,14044,8252,51,-29,-16
3357.138,284,-532,14044,8252,51,-29,-16
3360.403,282,-520,14096,8220,70,-20,-25
3363.709,284,-520,14096,8220,70,-20,-25
3364.718,282,-520,14096,8220,70,-20,-25
3368.636,283,-520,14096,8220,70,-20,-25
3372.268,282,-520,14096,8220,70,-20,-25
3373.279,278,-520,14096,8220,70,-20,-25
3376.455,282,-520,14096,8220,70,-20,-25
3380.696,280,-504,14112,8216,-61,-44,-3
3380.696,282,-504,14112,8216,-61,-44,-3
3384.216,284,-504,14112,8216,-61,-44,-3
3388.469,281,-504,14112,8216,-61,-44,-3
3389.4829999999997,282,-504,14112,8216,-61,-44,-3
3392.524,282,-504,14112,8216,-61,-44,-3
3396.535,285,-504,14112,8216,-61,-44,-3
3397.4809999999998,286,-504,14112,8216,-61,-44,-3
3400.892,289,-520,14104,8216,-71,-41,-19
3405.525,288,-520,14104,8216,-71,-41,-19
3408.5420000000004,290,-520,14104,8216,-71,-41,-19
3409.484,292,-520,14104,8216,-71,-41,-19
3413.4809999999998,292,-520,14104,8216,-71,-41,-19
3417.779,294,-520,14104,8216,-71,-41,-19
3418.8010000000004,294,-520,14104,8216,-71,-41,-19
3421.162,295,-548,14080,8188,-60,-39,-5
3425.227,297,-548,14080,8188,-60,-39,-5
3426.174,299,-548,14080,8188,-60,-39,-5
3429.244,299,-548,14080,8188,-60,-39,-5
3434.218,302,-548,14080,8188,-60,-39,-5
3435.175,300,-548,14080,8188,-60,-39,-5
3438.393,302,-548,14080,8188,-60,-39,-5
3442.0009999999997,303,-512,14084,8288,-33,-56,-16
3442.931,308,-512,14084,8288,-33,-56,-16
3445.9300000000003,307,-512,14084,8288,-33,-56,-16
3449.9300000000003,305,-512,14084,8288,-33,-56,-16
3450.929,309,-512,14084,8288,-33,-56,-16
3453.928,308,-512,14084,8288,-33,-56,-16
3457.928,311,-512,14084,8288,-33,-56,-16
3461.97,312,-544,14164,8272,33,-49,-29
3463.953,314,-544,14164,8272,33,-49,-29
3466.934,314,-544,14164,8272,33,-49,-29
3469.9249999999997,311,-544,14164,8272,33,-49,-29
3470.929,311,-544,14164,8272,33,-49,-29
3474.941,312,-544,14164,8272,33,-49,-29
3478.9300000000003,312,-544,14164,8272,33,-49,-29
3479.946,315,-560,14036,8204,20,-45,-10
3482.932,313,-560,14036,8204,20,-45,-10
3487.504,314,-560,14036,8204,20,-45,-10
3487.8140000000003,315,-560,14036,8204,20,-45,-10
3490.831,314,-560,14036,8204,20,-45,-10
3494.838,313,-560,14036,8204,20,-45,-10
3495.835,314,-560,14036,8204,20,-45,-10
3498.831,312,-560,14036,8204,20,-45,-10
3503.21,316,-552,14088,8244,-130,-54,-17
3503.825,315,-552,14088,8244,-130,-54,-17
3507.895,315,-552,14088,8244,-130,-54,-17
3511.896,314,-552,14088,8244,-130,-54,-17
3515.378,315,-552,14088,8244,-130,-54,-17
3516.391,313,-552,14088,8244,-130,-54,-17
3519.5539999999996,315,-508,14068,8312,-81,-34,-18
3523.569,315,-508,14068,8312,-81,-34,-18
3524.5730000000003,315,-508,14068,8312,-81,-34,-18
3527.6139999999996,312,-508,14068,8312,-81,-34,-18
3531.568,312,-508,14068,8312,-81,-34,-18
3532.565,313,-508,14068,8312,-81,-34,-18
3536.0269999999996,313,-508,14068,8312,-81,-34,-18
3541.073,310,-556,14064,8224,61,-31,-16
3546.046,314,-556,14064,8224,61,-31,-16
3548.0499999999997,312,-556,14064,8224,61,-31,-16
3550.0440000000003,312,-556,14064,8224,61,-31,-16
3552.0480000000002,312,-556,14064,8224,61,-31,-16
3553.0409999999997,313,-556,14064,8224,61,-31,-16
3557.0409999999997,312,-556,14064,8224,61,-31,-16
3558.042,312,-556,14064,8224,61,-31,-16
3561.045,314,-572,14040,8252,-81,-37,-6
3565.043,314,-572,14040,8252,-81,-37,-6
3565.043,313,-572,14040,8252,-81,-37,-6
3569.065,314,-572,14040,8252,-81,-37,-6
3573.099,313,-572,14040,8252,-81,-37,-6
3574.04,317,-572,14040,8252,-81,-37,-6
3577.039,318,-572,14040,8252,-81,-37,-6
3581.044,321,-560,14096,8224,-57,-33,-22
3585.042,326,-560,14096,8224,-57,-33,-22
3586.0409999999997,325,-560,14096,8224,-57,-33,-22
3590.044,327,-560,14096,8224,-57,-33,-22
3593.0460000000003,330,-560,14096,8224,-57,-33,-22
3594.045,333,-560,14096,8224,-57,-33,-22
3598.04,334,-560,14096,8224,-57,-33,-22
3601.039,339,-544,14084,8244,28,-34,-14
3602.0370000000003,343,-544,14084,8244,28,-34,-14
3606.039,345,-544,14084,8244,28,-34,-14
3610.043,347,-544,14084,8244,28,-34,-14
3611.04,348,-544,14084,8244,28,-34,-14
3614.045,352,-544,14084,8244,28,-34,-14
3618.0409999999997,355,-544,14084,8244,28,-34,-14
3619.0389999999998,357,-532,14080,8224,-15,-51,-17
3622.082,364,-532,14080,8224,-15,-51,-17
3626.049,365,-532,14080,8224,-15,-51,-17
3627.0389999999998,371,-532,14080,8224,-15,-51,-17
3631.042,372,-532,14080,8224,-15,-51,-17
3634.0409999999997,373,-532,14080,8224,-15,-51,-17
3638.049,380,-532,14080,8224,-15,-51,-17
3639.038,381,-568,14052,8228,-23,-37,-22
3643.0440000000003,384,-568,14052,8228,-23,-37,-22
3646.094,387,-568,14052,8228,-23,-37,-22
3647.041,388,-568,14052,8228,-23,-37,-22
3651.0370000000003,390,-568,14052,8228,-23,-37,-22
3655.04,390,-568,14052,8228,-23,-37,-22
3655.04,391,-568,14052,8228,-23,-37,-22
3659.073,392,-568,14052,8228,-23,-37,-22
3663.0980000000004,396,-492,14108,8224,2,-39,-27
3664.045,397,-492,14108,8224,2,-39,-27
3667.038,397,-492,14108,8224,2,-39,-27
3671.143,398,-492,14108,8224,2,-39,-27
3672.038,396,-492,14108,8224,2,-39,-27
3675.042,397,-492,14108,8224,2,-39,-27
3679.045,396,-492,14108,8224,2,-39,-27
3680.04,396,-520,14096,8268,-98,-37,-5
3684.0389999999998,396,-520,14096,8268,-98,-37,-5
3687.3269999999998,396,-520,14096,8268,-98,-37,-5
3688.603,394,-520,14096,8268,-98,-37,-5
3692.1330000000003,393,-520,14096,8268,-98,-37,-5
3696.236,391,-520,14096,8268,-98,-37,-5
3697.403,391,-520,14096,8268,-98,-37,-5
3699.554,389,-504,14100,8280,-53,-55,-8
3703.56,388,-504,14100,8280,-53,-55,-8
3704.5620000000004,388,-504,14100,8280,-53,-55,-8
3708.605,384,-504,14100,8280,-53,-55,-8
3712.602,384,-504,14100,8280,-53,-55,-8
3713.609,380,-504,14100,8280,-53,-55,-8
3716.603,377,-504,14100,8280,-53,-55,-8
3720.237,376,-504,14100,8280,-53,-55,-8
3721.248,373,-536,14036,8256,34,-40,-6
3724.25,373,-536,14036,8256,34,-40,-6
3729.2529999999997,370,-536,14036,8256,34,-40,-6
3730.25,369,-536,14036,8256,34,-40,-6
3732.249,365,-536,14036,8256,34,-40,-6
3736.6150000000002,363,-536,14036,8256,34,-40,-6
3737.216,360,-536,14036,8256,34,-40,-6
3741.2309999999998,361,-508,14052,8192,-10,-46,-26
3745.234,358,-508,14052,8192,-10,-46,-26
3746.2360000000003,356,-508,14052,8192,-10,-46,-26
3749.226,352,-508,14052,8192,-10,-46,-26
3753.368,351,-508,14052,8192,-10,-46,-26
3757.2999999999997,346,-508,14052,8192,-10,-46,-26
3759.3,344,-508,14052,8192,-10,-46,-26
3762.312,343,-544,14068,8256,-70,-34,-7
3765.364,342,-544,14068,8256,-70,-34,-7
3766.295,339,-544,14068,8256,-70,-34,-7
3769.2960000000003,338,-544,14068,8256,-70,-34,-7
3773.294,335,-544,14068,8256,-70,-34,-7
3774.295,333,-544,14068,8256,-70,-34,-7
3778.305,331,-544,14068,8256,-70,-34,-7
3781.327,329,-508,14064,8236,-34,-31,-12
3782.294,327,-508,14064,8236,-34,-31,-12
3786.29,327,-508,14064,8236,-34,-31,-12
3790.295,324,-508,14064,8236,-34,-31,-12
3791.2940000000003,321,-508,14064,8236,-34,-31,-12
3794.302,316,-508,14064,8236,-34,-31,-12
3798.34,316,-508,14064,8236,-34,-31,-12
3798.34,316,-528,14072,8208,-12,-38,-14
3802.8469999999998,315,-528,14072,8208,-12,-38,-14
3805.8559999999998,314,-528,14072,8208,-12,-38,-14
3810.873,309,-528,14072,8208,-12,-38,-14
3811.861,309,-528,14072,8208,-12,-38,-14
3814.892,306,-528,14072,8208,-12,-38,-14
3818.8909999999996,303,-528,14072,8208,-12,-38,-14
3818.8909999999996,302,-540,14088,8248,-38,-33,-1
3822.858,301,-540,14088,8248,-38,-33,-1
3826.857,300,-540,14088,8248,-38,-33,-1
3827.88,296,-540,14088,8248,-38,-33,-1
3830.857,293,-540,14088,8248,-38,-33,-1
3835.33,294,-540,14088,8248,-38,-33,-1
3835.33,289,-540,14088,8248,-38,-33,-1
3839.397,290,-540,14088,8248,-38,-33,-1
3843.41,289,-512,14096,8276,-38,-50,-4
3844.426,288,-512,14096,8276,-38,-50,-4
3847.407,285,-512,14096,8276,-38,-50,-4
3851.435,284,-512,14096,8276,-38,-50,-4
3852.033,282,-512,14096,8276,-38,-50,-4
3855.263,278,-512,14096,8276,-38,-50,-4
3860.045,280,-512,14096,8276,-38,-50,-4
3861.059,279,-476,14032,8220,-40,-39,-6
3864.076,278,-476,14032,8220,-40,-39,-6
3868.363,277,-476,14032,8220,-40,-39,-6
3868.822,273,-476,14032,8220,-40,-39,-6
3872.527,274,-476,14032,8220,-40,-39,-6
3876.525,274,-476,14032,8220,-40,-39,-6
3876.525,271,-476,14032,8220,-40,-39,-6
3880.5260000000003,271,-512,14084,8288,-34,-42,-9
3884.5260000000003,271,-512,14084,8288,-34,-42,-9
3885.525,271,-512,14084,8288,-34,-42,-9
3888.806,272,-512,14084,8288,-34,-42,-9
3892.5519999999997,271,-512,14084,8288,-34,-42,-9
3893.544,269,-512,14084,8288,-34,-42,-9
3896.599,270,-512,14084,8288,-34,-42,-9
3900.578,269,-512,14084,8288,-34,-42,-9
3901.544,269,-520,14052,8256,8,-49,-5
3904.857,271,-520,14052,8256,8,-49,-5
3908.424,271,-520,14052,8256,8,-49,-5
3909.424,271,-520,14052,8256,8,-49,-5
3913.421,272,-520,14052,8256,8,-49,-5
3916.418,272,-520,14052,8256,8,-49,-5
3917.417,273,-520,14052,8256,8,-49,-5
3921.525,273,-564,14080,8232,31,-48,-25
3925.424,275,-564,14080,8232,31,-48,-25
3926.425,275,-564,14080,8232,31,-48,-25
3929.42,276,-564,14080,8232,31,-48,-25
3933.4190000000003,277,-564,14080,8232,31,-48,-25
3933.4190000000003,276,-564,14080,8232,31,-48,-25
3937.422,276,-564,14080,8232,31,-48,-25
3941.42,277,-564,14080,8232,31,-48,-25
3942.431,279,-580,14016,8216,-63,-51,-9
3945.4280000000003,282,-580,14016,8216,-63,-51,-9
3949.424,282,-580,14016,8216,-63,-51,-9
3950.422,281,-580,14016,8216,-63,-51,-9
3954.377,281,-580,14016,8216,-63,-51,-9
3957.3999999999996,284,-580,14016,8216,-63,-51,-9
3958.4049999999997,285,-580,14016,8216,-63,-51,-9
3962.425,288,-532,14092,8244,-93,-22,-13
3966.396,289,-532,14092,8244,-93,-22,-13
3966.396,288,-532,14092,8244,-93,-22,-13
3970.401,291,-532,14092,8244,-93,-22,-13
3973.8349999999996,289,-532,14092,8244,-93,-22,-13
3975.843,291,-532,14092,8244,-93,-22,-13
3978.838,291,-532,14092,8244,-93,-22,-13
3982.8329999999996,295,-508,14084,8236,49,-45,-14
3982.8329999999996,293,-508,14084,8236,49,-45,-14
3987.144,294,-508,14084,8236,49,-45,-14
3990.781,296,-508,14084,8236,49,-45,-14
3994.785,295,-508,14084,8236,49,-45,-14
3995.7799999999997,297,-508,14084,8236,49,-45,-14
3998.826,300,-508,14084,8236,49,-45,-14
4003.1230000000005,299,-540,14096,8252,-2,-18,-6
4003.787,301,-540,14096,8252,-2,-18,-6
4006.7839999999997,303,-540,14096,8252,-2,-18,-6
4007.7809999999995,303,-540,14096,8252,-2,-18,-6
4011.786,304,-540,14096,8252,-2,-18,-6
4014.78,303,-540,14096,8252,-2,-18,-6
4015.777,306,-540,14096,8252,-2,-18,-6
4019.9809999999998,307,-540,14096,8252,-2,-18,-6
4023.454,308,-536,14080,8220,-80,-35,-18
4024.4549999999995,309,-536,14080,8220,-80,-35,-18
4027.503,310,-536,14080,8220,-80,-35,-18
4031.4550000000004,311,-536,14080,8220,-80,-35,-18
4035.674,311,-536,14080,8220,-80,-35,-18
4036.455,310,-536,14080,8220,-80,-35,-18
4040.471,314,-536,14080,8220,-80,-35,-18
4043.489,315,-544,14100,8236,-48,-50,-9
4044.491,315,-544,14100,8236,-48,-50,-9
4048.4869999999996,318,-544,14100,8236,-48,-50,-9
4052.443,315,-544,14100,8236,-48,-50,-9
4052.443,317,-544,14100,8236,-48,-50,-9
4056.64,315,-544,14100,8236,-48,-50,-9
4060.4509999999996,317,-544,14100,8236,-48,-50,-9
4061.447,320,-504,14132,8280,-5,-52,-10
4064.5290000000005,322,-504,14132,8280,-5,-52,-10
4068.8430000000003,319,-504,14132,8280,-5,-52,-10
4069.323,320,-504,14132,8280,-5,-52,-10
4073.3379999999997,320,-504,14132,8280,-5,-52,-10
4076.4139999999998,322,-504,14132,8280,-5,-52,-10
4077.343,321,-504,14132,8280,-5,-52,-10
4081.335,324,-508,14096,8208,-15,-48,-11
4085.4359999999997,325,-508,14096,8208,-15,-48,-11
4086.4469999999997,327,-508,14096,8208,-15,-48,-11
4089.494,328,-508,14096,8208,-15,-48,-11
4093.446,326,-508,14096,8208,-15,-48,-11
4096.4980000000005,330,-508,14096,8208,-15,-48,-11
4097.448,331,-508,14096,8208,-15,-48,-11
4101.449,333,-580,14052,8256,-61,-23,4
4105.875,335,-580,14052,8256,-61,-23,4
4106.465,335,-580,14052,8256,-61,-23,4
4109.507,335,-580,14052,8256,-61,-23,4
4110.485,335,-580,14052,8256,-61,-23,4
4113.4800000000005,338,-580,14052,8256,-61,-23,4
4117.473,337,-580,14052,8256,-61,-23,4
4118.475,339,-580,14052,8256,-61,-23,4
4121.475,341,-556,14060,8260,-35,-41,-13
4126.482,342,-556,14060,8260,-35,-41,-13
4127.4800000000005,343,-556,14060,8260,-35,-41,-13
4130.483,343,-556,14060,8260,-35,-41,-13
4134.473,343,-556,14060,8260,-35,-41,-13
4137.473,343,-556,14060,8260,-35,-41,-13
4138.472,346,-556,14060,8260,-35,-41,-13
4142.485,346,-588,14012,8236,-6,-34,-19
4146.474,345,-588,14012,8236,-6,-34,-19
4146.474,348,-588,14012,8236,-6,-34,-19
4150.476000000001,347,-588,14012,8236,-6,-34,-19
4154.474999999999,347,-588,14012,8236,-6,-34,-19
4155.472,346,-588,14012,8236,-6,-34,-19
4158.52,348,-588,14012,8236,-6,-34,-19
4162.473999999999,349,-568,14048,8276,37,-43,1
4163.473,349,-568,14048,8276,37,-43,1
4166.472,350,-568,14048,8276,37,-43,1
4170.472,348,-568,14048,8276,37,-43,1
4171.475,346,-568,14048,8276,37,-43,1
4174.972000000001,346,-568,14048,8276,37,-43,1
4176.091,345,-568,14048,8276,37,-43,1
4179.208,346,-568,14048,8276,37,-43,1
4183.42,346,-512,14052,8232,-2,-47,-17
4183.42,341,-512,14052,8232,-2,-47,-17
4187.6720000000005,343,-512,14052,8232,-2,-47,-17
4190.812,341,-512,14052,8232,-2,-47,-17
4192.882,339,-512,14052,8232,-2,-47,-17
4195.207,337,-512,14052,8232,-2,-47,-17
4199.4,338,-512,14052,8232,-2,-47,-17
4200.42,336,-560,14092,8228,-35,-49,-10
4203.485,335,-560,14092,8228,-35,-49,-10
4207.8550000000005,333,-560,14092,8228,-35,-49,-10
4208.363,331,-560,14092,8228,-35,-49,-10
4211.591,329,-560,14092,8228,-35,-49,-10
4216.326999999999,326,-560,14092,8228,-35,-49,-10
4220.382,326,-560,14092,8228,-35,-49,-10
4220.382,326,-520,14100,8236,2,-30,-14
4224.268999999999,322,-520,14100,8236,2,-30,-14
4228.328,323,-520,14100,8236,2,-30,-14
4229.2699999999995,320,-520,14100,8236,2,-30,-14
4232.2699999999995,319,-520,14100,8236,2,-30,-14
4233.268,318,-520,14100,8236,2,-30,-14
4237.276,316,-520,14100,8236,2,-30,-14
4240.011,316,-520,14100,8236,2,-30,-14
4241.027,316,-532,14048,8196,1,-23,-20
4245.024,313,-532,14048,8196,1,-23,-20
4248.820000000001,311,-532,14048,8196,1,-23,-20
4249.834,308,-532,14048,8196,1,-23,-20
4252.838,305,-532,14048,8196,1,-23,-20
4256.832,306,-532,14048,8196,1,-23,-20
4257.833,302,-532,14048,8196,1,-23,-20
4260.884,302,-556,14080,8292,-57,-34,-26
4264.8330000000005,300,-556,14080,8292,-57,-34,-26
4265.831,300,-556,14080,8292,-57,-34,-26
4269.873,298,-556,14080,8292,-57,-34,-26
4273.842000000001,294,-556,14080,8292,-57,-34,-26
4276.853,292,-556,14080,8292,-57,-34,-26
4278.85,292,-556,14080,8292,-57,-34,-26
4281.905,289,-488,14100,8268,-63,-54,-18
4285.855,288,-488,14100,8268,-63,-54,-18
4285.855,289,-488,14100,8268,-63,-54,-18
4290.294,286,-488,14100,8268,-63,-54,-18
4293.342,284,-488,14100,8268,-63,-54,-18
4295.297,280,-488,14100,8268,-63,-54,-18
4298.295999999999,281,-488,14100,8268,-63,-54,-18
4302.289,279,-488,14100,8268,-63,-54,-18
4303.287,279,-548,14044,8252,16,-50,-1
4306.58,277,-548,14044,8252,16,-50,-1
4310.302,278,-548,14044,8252,16,-50,-1
4311.295,274,-548,14044,8252,16,-50,-1
4314.312,273,-548,14044,8252,16,-50,-1
4319.038,272,-548,14044,8252,16,-50,-1
4319.982000000001,272,-548,14044,8252,16,-50,-1
4322.994,270,-560,14104,8200,-58,-40,4
4326.9929999999995,269,-560,14104,8200,-58,-40,4
4326.9929999999995,268,-560,14104,8200,-58,-40,4
4330.999000000001,268,-560,14104,8200,-58,-40,4
4335.271,266,-560,14104,8200,-58,-40,4
4335.594,264,-560,14104,8200,-58,-40,4
4339.502,263,-560,14104,8200,-58,-40,4
4342.519,265,-544,14140,8256,-44,-45,-22
4343.514,265,-544,14140,8256,-44,-45,-22
4347.512,263,-544,14140,8256,-44,-45,-22
4351.778,260,-544,14140,8256,-44,-45,-22
4352.791,257,-544,14140,8256,-44,-45,-22
4354.825,260,-544,14140,8256,-44,-45,-22
4359.7919999999995,257,-544,14140,8256,-44,-45,-22
4360.794,262,-544,14140,8256,-44,-45,-22
4363.792,257,-520,14052,8264,19,-39,-23
4367.7919999999995,255,-520,14052,8264,19,-39,-23
4367.7919999999995,257,-520,14052,8264,19,-39,-23
4371.813999999999,256,-520,14052,8264,19,-39,-23
4375.992,254,-520,14052,8264,19,-39,-23
4376.977,254,-520,14052,8264,19,-39,-23
4379.984,256,-520,14052,8264,19,-39,-23
4384.331,255,-580,14088,8228,-48,-30,-25
4388.188999999999,255,-580,14088,8228,-48,-30,-25
4388.851,252,-580,14088,8228,-48,-30,-25
4391.902,253,-580,14088,8228,-48,-30,-25
4395.844,253,-580,14088,8228,-48,-30,-25
4396.851,250,-580,14088,8228,-48,-30,-25
4400.848,252,-580,14088,8228,-48,-30,-25
4403.85,254,-556,14048,8240,-56,-54,-6
4404.847,253,-556,14048,8240,-56,-54,-6
4408.846,254,-556,14048,8240,-56,-54,-6
4412.8460000000005,251,-556,14048,8240,-56,-54,-6
4412.8460000000005,250,-556,14048,8240,-56,-54,-6
4416.845,250,-556,14048,8240,-56,-54,-6
4420.8460000000005,252,-556,14048,8240,-56,-54,-6
4421.844,252,-540,14088,8244,-19,-37,-6
4424.848,251,-540,14088,8244,-19,-37,-6
4428.847,253,-540,14088,8244,-19,-37,-6
4429.848,250,-540,14088,8244,-19,-37,-6
4432.892,251,-540,14088,8244,-19,-37,-6
4437.315,252,-540,14088,8244,-19,-37,-6
4437.614,251,-540,14088,8244,-19,-37,-6
4441.665999999999,254,-500,14116,8244,9,-47,-4
4445.626,256,-500,14116,8244,9,-47,-4
4445.626,253,-500,14116,8244,9,-47,-4
4449.628,254,-500,14116,8244,9,-47,-4
4453.9929999999995,255,-500,14116,8244,9,-47,-4
4454.628,253,-500,14116,8244,9,-47,-4
4457.669,255,-500,14116,8244,9,-47,-4
4458.628,256,-500,14116,8244,9,-47,-4
4461.684,257,-524,14108,8272,-28,-40,-24
4466.014,258,-524,14108,8272,-28,-40,-24
4470.0470000000005,257,-524,14108,8272,-28,-40,-24
4470.6320000000005,259,-524,14108,8272,-28,-40,-24
4473.631,257,-524,14108,8272,-28,-40,-24
4477.688999999999,261,-524,14108,8272,-28,-40,-24
4478.628,261,-524,14108,8272,-28,-40,-24
4482.6269999999995,264,-564,14104,8196,-8,-45,-4
4486.628,264,-564,14104,8196,-8,-45,-4
4486.628,265,-564,14104,8196,-8,-45,-4
4490.145,265,-564,14104,8196,-8,-45,-4
4494.206,266,-564,14104,8196,-8,-45,-4
4495.16,266,-564,14104,8196,-8,-45,-4
4498.441,267,-564,14104,8196,-8,-45,-4
4502.453,271,-564,14104,8196,-8,-45,-4
4503.4619999999995,270,-552,14044,8200,-60,-51,-23
4506.695,273,-552,14044,8200,-60,-51,-23
4510.5,272,-552,14044,8200,-60,-51,-23
4511.455,272,-552,14044,8200,-60,-51,-23
4515.452,274,-552,14044,8200,-60,-51,-23
4518.455999999999,274,-552,14044,8200,-60,-51,-23
4519.456,278,-552,14044,8200,-60,-51,-23
4523.452,279,-548,14096,8208,-45,-42,-1
4527.460999999999,280,-548,14096,8208,-45,-42,-1
4527.460999999999,282,-548,14096,8208,-45,-42,-1
4531.452,281,-548,14096,8208,-45,-42,-1
4535.840999999999,282,-548,14096,8208,-45,-42,-1
4536.346,284,-548,14096,8208,-45,-42,-1
4539.358,284,-548,14096,8208,-45,-42,-1
4543.374,288,-520,14048,8272,-17,-37,-4
4544.367,290,-520,14048,8272,-17,-37,-4
4547.359,290,-520,14048,8272,-17,-37,-4
4552.433,290,-520,14048,8272,-17,-37,-4
4552.433,289,-520,14048,8272,-17,-37,-4
4556.457,292,-520,14048,8272,-17,-37,-4
4559.491999999999,293,-520,14048,8272,-17,-37,-4
4560.450000000001,293,-520,14028,8236,-12,-49,-21
4564.443,296,-520,14028,8236,-12,-49,-21
4568.444,293,-520,14028,8236,-12,-49,-21
4572.857,295,-520,14028,8236,-12,-49,-21
4573.877,297,-520,14028,8236,-12,-49,-21
4576.88,296,-520,14028,8236,-12,-49,-21
4579.917,300,-520,14028,8236,-12,-49,-21
4580.8730000000005,299,-508,14036,8224,-46,-39,-16
4585.351000000001,302,-508,14036,8224,-46,-39,-16
4588.444,300,-508,14036,8224,-46,-39,-16
4589.358,301,-508,14036,8224,-46,-39,-16
4593.353999999999,301,-508,14036,8224,-46,-39,-16
4596.353,302,-508,14036,8224,-46,-39,-16
4598.351,302,-508,14036,8224,-46,-39,-16
4601.35,304,-508,14036,8224,-46,-39,-16
4605.634,306,-512,14128,8252,-26,-38,-2
4608.731,306,-512,14128,8252,-26,-38,-2
4610.649,306,-512,14128,8252,-26,-38,-2
4613.664,303,-512,14128,8252,-26,-38,-2
4617.952,305,-512,14128,8252,-26,-38,-2
4617.952,304,-512,14128,8252,-26,-38,-2
4621.963,307,-512,14128,8252,-26,-38,-2
4625.972,307,-560,14060,8276,25,-21,-20
4626.973999999999,306,-560,14060,8276,25,-21,-20
4629.97,307,-560,14060,8276,25,-21,-20
4633.966,307,-560,14060,8276,25,-21,-20
4634.965,305,-560,14060,8276,25,-21,-20
4637.9619999999995,307,-560,14060,8276,25,-21,-20
4641.579,309,-560,14060,8276,25,-21,-20
4642.54,307,-516,14080,8240,-2,-47,-17
4645.534,308,-516,14080,8240,-2,-47,-17
4650.605,308,-516,14080,8240,-2,-47,-17
4651.541,306,-516,14080,8240,-2,-47,-17
4654.741,306,-516,14080,8240,-2,-47,-17
4658.5380000000005,307,-516,14080,8240,-2,-47,-17
4659.557000000001,308,-516,14080,8240,-2,-47,-17
4662.536,308,-564,14064,8200,-63,-34,-5
4666.9400000000005,308,-564,14064,8200,-63,-34,-5
4667.536,311,-564,14064,8200,-63,-34,-5
4671.052000000001,310,-564,14064,8200,-63,-34,-5
4674.974999999999,310,-564,14064,8200,-63,-34,-5
4674.974999999999,309,-564,14064,8200,-63,-34,-5
4678.979,311,-564,14064,8200,-63,-34,-5
4683.298,309,-564,14064,8200,-63,-34,-5
4683.976000000001,312,-512,14068,8228,-31,-50,-19
4686.9800000000005,311,-512,14068,8228,-31,-50,-19
4690.974999999999,310,-512,14068,8228,-31,-50,-19
4691.982999999999,311,-512,14068,8228,-31,-50,-19
4694.976,311,-512,14068,8228,-31,-50,-19
4700.0599999999995,312,-512,14068,8228,-31,-50,-19
4703.407,313,-512,14068,8228,-31,-50,-19
4704.061000000001,312,-488,14076,8284,-20,-41,-8
4707.0650000000005,312,-488,14076,8284,-20,-41,-8
4711.071,312,-488,14076,8284,-20,-41,-8
4712.063,312,-488,14076,8284,-20,-41,-8
4716.0599999999995,312,-488,14076,8284,-20,-41,-8
4720.079,312,-488,14076,8284,-20,-41,-8
4720.761,314,-488,14076,8284,-20,-41,-8
4724.016,315,-480,14072,8168,-42,-43,-1
4728.081,314,-480,14072,8168,-42,-43,-1
4728.081,314,-480,14072,8168,-42,-43,-1
4732.082,312,-480,14072,8168,-42,-43,-1
4736.207,314,-480,14072,8168,-42,-43,-1
4736.207,314,-480,14072,8168,-42,-43,-1
4740.222,314,-480,14072,8168,-42,-43,-1
4744.221,316,-492,14148,8296,-36,-45,-1
4745.221,315,-492,14148,8296,-36,-45,-1
4748.222,315,-492,14148,8296,-36,-45,-1
4753.221,312,-492,14148,8296,-36,-45,-1
4753.221,313,-492,14148,8296,-36,-45,-1
4757.236,313,-492,14148,8296,-36,-45,-1
4761.222,313,-492,14148,8296,-36,-45,-1
4761.222,315,-516,14128,8312,-1,-31,-13
4765.218,315,-516,14128,8312,-1,-31,-13
4769.384,314,-516,14128,8312,-1,-31,-13
4770.251,315,-516,14128,8312,-1,-31,-13
4773.352,312,-516,14128,8312,-1,-31,-13
4777.319,314,-516,14128,8312,-1,-31,-13
4778.251,312,-516,14128,8312,-1,-31,-13
4781.289,314,-516,14128,8312,-1,-31,-13
4785.293000000001,315,-544,14088,8184,-16,-46,1
4786.249,315,-544,14088,8184,-16,-46,1
4789.839,311,-544,14088,8184,-16,-46,1
4793.883,311,-544,14088,8184,-16,-46,1
4793.883,310,-544,14088,8184,-16,-46,1
4797.841,310,-544,14088,8184,-16,-46,1
4802.241,312,-544,14088,8184,-16,-46,1
4802.487,314,-540,14044,8212,-28,-39,2
4805.851,314,-540,14044,8212,-28,-39,2
4809.57,313,-540,14044,8212,-28,-39,2
4810.5,311,-540,14044,8212,-28,-39,2
4813.564,312,-540,14044,8212,-28,-39,2
4818.545,312,-540,14044,8212,-28,-39,2
4818.545,312,-540,14044,8212,-28,-39,2
4822.665,314,-540,14044,8212,-28,-39,2
4826.599,316,-500,14096,8240,-7,-54,-22
4827.591,316,-500,14096,8240,-7,-54,-22
4830.591,315,-500,14096,8240,-7,-54,-22
4834.653,316,-500,14096,8240,-7,-54,-22
4835.243,315,-500,14096,8240,-7,-54,-22
4838.79,316,-500,14096,8240,-7,-54,-22
4842.701,317,-500,14096,8240,-7,-54,-22
4843.672,320,-512,14112,8232,-25,-44,-31
4846.725,319,-512,14112,8232,-25,-44,-31
4851.057,320,-512,14112,8232,-25,-44,-31
4851.672,317,-512,14112,8232,-25,-44,-31
4855.076,320,-512,14112,8232,-25,-44,-31
4859.153,321,-512,14112,8232,-25,-44,-31
4860.157,321,-512,14112,8232,-25,-44,-31
4863.155,323,-520,14092,8220,-53,-44,-20
4867.152,323,-520,14092,8220,-53,-44,-20
4868.151,322,-520,14092,8220,-53,-44,-20
4871.155,320,-520,14092,8220,-53,-44,-20
4875.206,320,-520,14092,8220,-53,-44,-20
4879.152999999999,323,-520,14092,8220,-53,-44,-20
4880.155000000001,323,-520,14092,8220,-53,-44,-20
4884.165999999999,326,-564,14132,8216,-49,-49,-20
4887.151,324,-564,14132,8216,-49,-49,-20
4888.153,322,-564,14132,8216,-49,-49,-20
4892.158,324,-564,14132,8216,-49,-49,-20
4896.152,322,-564,14132,8216,-49,-49,-20
4897.160000000001,324,-564,14132,8216,-49,-49,-20
4900.1720000000005,323,-564,14132,8216,-49,-49,-20
4904.413,326,-492,14064,8312,-31,-51,-31
4905.426,325,-492,14064,8312,-31,-51,-31
4908.433,325,-492,14064,8312,-31,-51,-31
4912.423000000001,321,-492,14064,8312,-31,-51,-31
4916.420999999999,323,-492,14064,8312,-31,-51,-31
4916.420999999999,323,-492,14064,8312,-31,-51,-31
4920.676,326,-492,14064,8312,-31,-51,-31
4924.152999999999,324,-540,14044,8232,-17,-41,-2
4926.168,325,-540,14044,8232,-17,-41,-2
4929.156,325,-540,14044,8232,-17,-41,-2
4932.407,322,-540,14044,8232,-17,-41,-2
4933.409000000001,322,-540,14044,8232,-17,-41,-2
4937.452,323,-540,14044,8232,-17,-41,-2
4940.417,323,-540,14044,8232,-17,-41,-2
4941.41,323,-540,14044,8232,-17,-41,-2
4945.412,324,-524,14056,8288,-61,-43,-2
4949.411999999999,323,-524,14056,8288,-61,-43,-2
4949.411999999999,323,-524,14056,8288,-61,-43,-2
4953.98,321,-524,14056,8288,-61,-43,-2
4957.3910000000005,321,-524,14056,8288,-61,-43,-2
4958.38,323,-524,14056,8288,-61,-43,-2
4961.427,322,-524,14056,8288,-61,-43,-2
4965.380999999999,323,-560,14072,8220,-53,-63,0
4966.378,321,-560,14072,8220,-53,-63,0
4969.563,319,-560,14072,8220,-53,-63,0
4973.384,321,-560,14072,8220,-53,-63,0
4974.381,320,-560,14072,8220,-53,-63,0
4977.385,318,-560,14072,8220,-53,-63,0
4981.384,320,-560,14072,8220,-53,-63,0
4982.378,321,-528,14044,8252,20,-36,5
4986.788,320,-528,14044,8252,20,-36,5
4989.802,319,-528,14044,8252,20,-36,5
4990.802000000001,319,-528,14044,8252,20,-36,5
4993.857,316,-528,14044,8252,20,-36,5
4994.804,315,-528,14044,8252,20,-36,5
4998.802000000001,318,-528,14044,8252,20,-36,5
5001.802,316,-528,14044,8252,20,-36,5
5002.806,317,-524,14076,8236,1,-35,-19
5006.8,315,-524,14076,8236,1,-35,-19
5010.804,316,-524,14076,8236,1,-35,-19
5011.799,315,-524,14076,8236,1,-35,-19
5014.8060000000005,314,-524,14076,8236,1,-35,-19
5019.197,314,-524,14076,8236,1,-35,-19
5019.801,315,-524,14076,8236,1,-35,-19
5022.837,316,-524,14076,8236,1,-35,-19
5026.849999999999,315,-580,14088,8272,-49,-45,-16
5027.803,314,-580,14088,8272,-49,-45,-16
5030.801,313,-580,14088,8272,-49,-45,-16
5035.604,314,-580,14088,8272,-49,-45,-16
5036.506,312,-580,14088,8272,-49,-45,-16
5039.511,315,-580,14088,8272,-49,-45,-16
5043.513,315,-580,14088,8272,-49,-45,-16
5044.505,314,-536,14072,8192,-35,-69,-10
5047.356,313,-536,14072,8192,-35,-69,-10
5051.908,311,-536,14072,8192,-35,-69,-10
5055.865,312,-536,14072,8192,-35,-69,-10
5056.525,311,-536,14072,8192,-35,-69,-10
5059.574,312,-536,14072,8192,-35,-69,-10
5063.6,315,-536,14072,8192,-35,-69,-10
5064.522,313,-544,14132,8212,-49,-39,-15
5068.518,312,-544,14132,8212,-49,-39,-15
5071.986,313,-544,14132,8212,-49,-39,-15
5072.562,312,-544,14132,8212,-49,-39,-15
5076.574,312,-544,14132,8212,-49,-39,-15
5080.5740000000005,315,-544,14132,8212,-49,-39,-15
5080.5740000000005,316,-544,14132,8212,-49,-39,-15
5084.571999999999,317,-540,14064,8184,10,-33,-14
5088.1410000000005,313,-540,14064,8184,10,-33,-14
5088.9980000000005,316,-540,14064,8184,10,-33,-14
5093.0160000000005,313,-540,14064,8184,10,-33,-14
5097.008,315,-540,14064,8184,10,-33,-14
5097.996,315,-540,14064,8184,10,-33,-14
5100.996999999999,317,-540,14064,8184,10,-33,-14
5105.335,318,-508,14100,8248,-79,-52,6
5106.3460000000005,315,-508,14100,8248,-79,-52,6
5109.373,318,-508,14100,8248,-79,-52,6
5113.349999999999,315,-508,14100,8248,-79,-52,6
5113.349999999999,317,-508,14100,8248,-79,-52,6
5117.347,318,-508,14100,8248,-79,-52,6
5121.374000000001,318,-508,14100,8248,-79,-52,6
5121.374000000001,320,-508,14100,8248,-79,-52,6
5125.351000000001,320,-540,14068,8272,-92,-43,10
5129.346,320,-540,14068,8272,-92,-43,10
5130.359,318,-540,14068,8272,-92,-43,10
5133.349,319,-540,14068,8272,-92,-43,10
5138.022,318,-540,14068,8272,-92,-43,10
5139.041,322,-540,14068,8272,-92,-43,10
5142.0560000000005,321,-540,14068,8272,-92,-43,10
5146.039,324,-540,14088,8308,-50,-43,-17
5147.041,322,-540,14088,8308,-50,-43,-17
5150.299999999999,322,-540,14088,8308,-50,-43,-17
5154.487999999999,323,-540,14088,8308,-50,-43,-17
5157.987,321,-540,14088,8308,-50,-43,-17
5159.008,326,-540,14088,8308,-50,-43,-17
5161.990000000001,326,-540,14088,8308,-50,-43,-17
5165.902,327,-540,14104,8272,87,-42,-16
5166.9,327,-540,14104,8272,87,-42,-16
5170.366999999999,326,-540,14104,8272,87,-42,-16
5174.420999999999,324,-540,14104,8272,87,-42,-16
5175.383,325,-540,14104,8272,87,-42,-16
5178.3859999999995,327,-540,14104,8272,87,-42,-16
5182.798,328,-540,14104,8272,87,-42,-16
5183.380999999999,328,-484,14084,8172,-5,-23,-19
5186.747,328,-484,14084,8172,-5,-23,-19
5190.459,327,-484,14084,8172,-5,-23,-19
5191.46,329,-484,14084,8172,-5,-23,-19
5194.553,327,-484,14084,8172,-5,-23,-19
5199.459,328,-484,14084,8172,-5,-23,-19
5199.459,330,-484,14084,8172,-5,-23,-19
5202.941,329,-484,14084,8172,-5,-23,-19
5206.896000000001,331,-516,14088,8220,-81,-40,-8
5207.897,329,-516,14088,8220,-81,-40,-8
5210.896,328,-516,14088,8220,-81,-40,-8
5214.894,329,-516,14088,8220,-81,-40,-8
5215.893,329,-516,14088,8220,-81,-40,-8
5219.973000000001,329,-516,14088,8220,-81,-40,-8
5223.914,331,-516,14088,8220,-81,-40,-8
5224.918,330,-536,14100,8240,-1,-57,-21
5227.603,329,-536,14100,8240,-1,-57,-21
5231.612,331,-536,14100,8240,-1,-57,-21
5232.622,327,-536,14100,8240,-1,-57,-21
5236.059,330,-536,14100,8240,-1,-57,-21
5240.066,328,-536,14100,8240,-1,-57,-21
5241.068,328,-536,14100,8240,-1,-57,-21
5244.072,331,-516,14008,8208,19,-40,-26
5248.069,331,-516,14008,8208,19,-40,-26
5249.065,330,-516,14008,8208,19,-40,-26
5252.246999999999,328,-516,14008,8208,19,-40,-26
5256.615,327,-516,14008,8208,19,-40,-26
5257.267,328,-516,14008,8208,19,-40,-26
5260.308,330,-516,14008,8208,19,-40,-26
5264.276,329,-556,14100,8208,-73,-39,-19
5268.899,328,-556,14100,8208,-73,-39,-19
5269.748,327,-556,14100,8208,-73,-39,-19
5272.751,328,-556,14100,8208,-73,-39,-19
5276.798000000001,326,-556,14100,8208,-73,-39,-19
5277.753,328,-556,14100,8208,-73,-39,-19
5280.749,328,-556,14100,8208,-73,-39,-19
5285.575,327,-512,14092,8236,-91,-46,3
5286.59,326,-512,14092,8236,-91,-46,3
5289.646000000001,327,-512,14092,8236,-91,-46,3
5292.601000000001,325,-512,14092,8236,-91,-46,3
5293.602,326,-512,14092,8236,-91,-46,3
5297.589,325,-512,14092,8236,-91,-46,3
5301.892,325,-512,14092,8236,-91,-46,3
5302.59,328,-512,14092,8236,-91,-46,3
5306.03,328,-532,14072,8260,-46,-50,-28
5309.473,326,-532,14072,8260,-46,-50,-28
5310.41,326,-532,14072,8260,-46,-50,-28
5313.461,323,-532,14072,8260,-46,-50,-28
5317.857,326,-532,14072,8260,-46,-50,-28
5317.857,324,-532,14072,8260,-46,-50,-28
5322.195,327,-532,14072,8260,-46,-50,-28
5325.866,326,-560,14108,8248,-11,-32,-18
5326.869000000001,327,-560,14108,8248,-11,-32,-18
5330.858,324,-560,14108,8248,-11,-32,-18
5334.861,323,-560,14108,8248,-11,-32,-18
5337.898,326,-560,14108,8248,-11,-32,-18
5338.856,326,-560,14108,8248,-11,-32,-18
5342.861,327,-560,14108,8248,-11,-32,-18
5345.858,326,-504,14104,8260,5,-37,-6
5347.8589999999995,325,-504,14104,8260,5,-37,-6
5350.8589999999995,327,-504,14104,8260,5,-37,-6
5350.8589999999995,323,-504,14104,8260,5,-37,-6
5354.862,324,-504,14104,8260,5,-37,-6
5360.865000000001,326,-504,14104,8260,5,-37,-6
5375.858,326,-504,14104,8260,5,-37,-6
5375.858,325,-504,14104,8260,5,-37,-6
5376.8589999999995,327,-464,14036,8264,-63,-37,-5
5377.86,323,-464,14036,8264,-63,-37,-5
5378.860000000001,322,-464,14036,8264,-63,-37,-5
5379.8589999999995,323,-464,14036,8264,-63,-37,-5
5380.858,322,-464,14036,8264,-63,-37,-5
5380.858,322,-464,14036,8264,-63,-37,-5
5382.86,323,-464,14036,8264,-63,-37,-5
5383.857,321,-508,14080,8264,-66,-43,-28
5387.861,321,-508,14080,8264,-66,-43,-28
5391.857,317,-508,14080,8264,-66,-43,-28
5391.857,315,-508,14080,8264,-66,-43,-28
5395.8589999999995,316,-508,14080,8264,-66,-43,-28
5399.879,317,-508,14080,8264,-66,-43,-28
5403.862,316,-508,14080,8264,-66,-43,-28
5404.861000000001,313,-524,14076,8236,-4,-42,-6
5407.867,312,-524,14076,8236,-4,-42,-6
5408.857,312,-524,14076,8236,-4,-42,-6
5411.857,311,-524,14076,8236,-4,-42,-6
5415.882,311,-524,14076,8236,-4,-42,-6
5416.766,309,-524,14076,8236,-4,-42,-6
5420.4,310,-524,14076,8236,-4,-42,-6
5423.977,309,-524,14076,8236,-4,-42,-6
5424.941,307,-516,14072,8256,-32,-53,0
5427.978999999999,304,-516,14072,8256,-32,-53,0
5432.944,306,-516,14072,8256,-32,-53,0
5433.9490000000005,302,-516,14072,8256,-32,-53,0
5436.941,304,-516,14072,8256,-32,-53,0
5440.942,303,-516,14072,8256,-32,-53,0
5440.942,302,-516,14072,8256,-32,-53,0
5444.9439999999995,304,-512,14088,8232,-7,-57,-26
5449.168000000001,300,-512,14088,8232,-7,-57,-26
5449.995000000001,298,-512,14088,8232,-7,-57,-26
5452.563999999999,300,-512,14088,8232,-7,-57,-26
5456.627,296,-512,14088,8232,-7,-57,-26
5457.581,299,-512,14088,8232,-7,-57,-26
5461.582,297,-512,14088,8232,-7,-57,-26
5465.588000000001,299,-512,14088,8232,-7,-57,-26
5466.581,297,-532,14100,8252,-20,-33,-39
5469.616,296,-532,14100,8252,-20,-33,-39
5473.6269999999995,295,-532,14100,8252,-20,-33,-39
5474.578,293,-532,14100,8252,-20,-33,-39
5477.579000000001,295,-532,14100,8252,-20,-33,-39
5481.809,293,-532,14100,8252,-20,-33,-39
5485.108,295,-532,14100,8252,-20,-33,-39
5486.121,294,-508,14076,8232,-11,-28,-17
5489.6539999999995,294,-508,14076,8232,-11,-28,-17
5493.639,292,-508,14076,8232,-11,-28,-17
5494.604,292,-508,14076,8232,-11,-28,-17
5498.599999999999,294,-508,14076,8232,-11,-28,-17
5501.820000000001,293,-508,14076,8232,-11,-28,-17
5502.602000000001,294,-508,14076,8232,-11,-28,-17
5506.679,294,-492,14052,8220,-2,-53,-17
5510.599,292,-492,14052,8220,-2,-53,-17
5510.599,292,-492,14052,8220,-2,-53,-17
5514.599999999999,291,-492,14052,8220,-2,-53,-17
5518.409000000001,293,-492,14052,8220,-2,-53,-17
5519.442,292,-492,14052,8220,-2,-53,-17
5522.674,294,-492,14052,8220,-2,-53,-17
5526.504,293,-524,14080,8224,-69,-50,-11
5527.453,293,-524,14080,8224,-69,-50,-11
5531.486,291,-524,14080,8224,-69,-50,-11
5534.5019999999995,289,-524,14080,8224,-69,-50,-11
5539.5019999999995,290,-524,14080,8224,-69,-50,-11
5540.048,293,-524,14080,8224,-69,-50,-11
5543.477,292,-524,14080,8224,-69,-50,-11
5546.776000000001,292,-520,14092,8248,-104,-34,-2
5547.781,291,-520,14092,8248,-104,-34,-2
5551.325000000001,289,-520,14092,8248,-104,-34,-2
5554.683,291,-520,14092,8248,-104,-34,-2
5555.763,290,-520,14092,8248,-104,-34,-2
5559.125,292,-520,14092,8248,-104,-34,-2
5563.277,294,-520,14092,8248,-104,-34,-2
5564.381,292,-544,14052,8240,-27,-49,-3
5567.938,293,-544,14052,8240,-27,-49,-3
5572.533,292,-544,14052,8240,-27,-49,-3
5572.533,294,-544,14052,8240,-27,-49,-3
5576.545999999999,294,-544,14052,8240,-27,-49,-3
5579.542,295,-544,14052,8240,-27,-49,-3
5580.542,296,-544,14052,8240,-27,-49,-3
5584.543,299,-508,14056,8196,-2,-40,-13
5588.543,299,-508,14056,8196,-2,-40,-13
5591.592000000001,298,-508,14056,8196,-2,-40,-13
5592.543,297,-508,14056,8196,-2,-40,-13
5596.543,300,-508,14056,8196,-2,-40,-13
5600.605,300,-508,14056,8196,-2,-40,-13
5600.605,303,-508,14056,8196,-2,-40,-13
5604.653,304,-508,14056,8196,-2,-40,-13
5608.686,303,-536,14068,8212,-1,-32,-8
5608.686,302,-536,14068,8212,-1,-32,-8
5612.615,303,-536,14068,8212,-1,-32,-8
5613.615000000001,303,-536,14068,8212,-1,-32,-8
5617.104,305,-536,14068,8212,-1,-32,-8
5621.3730000000005,305,-536,14068,8212,-1,-32,-8
5621.973,306,-536,14068,8212,-1,-32,-8
5625.058,310,-520,14052,8260,-35,-49,-19
5628.969,309,-520,14052,8260,-35,-49,-19
5633.187999999999,307,-520,14052,8260,-35,-49,-19
5633.975,307,-520,14052,8260,-35,-49,-19
5637.811,309,-520,14052,8260,-35,-49,-19
5640.834,311,-520,14052,8260,-35,-49,-19
5642.824,311,-520,14052,8260,-35,-49,-19
5645.826999999999,312,-516,14080,8180,-77,-47,-16
5649.838,313,-516,14080,8180,-77,-47,-16
5650.826999999999,311,-516,14080,8180,-77,-47,-16
5653.826999999999,314,-516,14080,8180,-77,-47,-16
5658.087,312,-516,14080,8180,-77,-47,-16
5659.087,314,-516,14080,8180,-77,-47,-16
5662.081,314,-516,14080,8180,-77,-47,-16
5665.7970000000005,316,-536,14080,8236,-64,-46,-20
5670.258,316,-536,14080,8236,-64,-46,-20
5670.872,313,-536,14080,8236,-64,-46,-20
5673.87,315,-536,14080,8236,-64,-46,-20
5677.901000000001,313,-536,14080,8236,-64,-46,-20
5678.907,316,-536,14080,8236,-64,-46,-20
5682.925,316,-536,14080,8236,-64,-46,-20
5685.905,318,-508,14092,8260,-20,-37,-21
5686.916,315,-508,14092,8260,-20,-37,-21
5690.918,315,-508,14092,8260,-20,-37,-21
5694.434,316,-508,14092,8260,-20,-37,-21
5695.4349999999995,314,-508,14092,8260,-20,-37,-21
5699.442,316,-508,14092,8260,-20,-37,-21
5702.816000000001,315,-508,14092,8260,-20,-37,-21
5706.4310000000005,317,-536,14176,8284,-27,-45,-14
5707.433,315,-536,14176,8284,-27,-45,-14
5711.433,315,-536,14176,8284,-27,-45,-14
5714.434,314,-536,14176,8284,-27,-45,-14
5715.434,313,-536,14176,8284,-27,-45,-14
5719.438,313,-536,14176,8284,-27,-45,-14
5723.434,314,-536,14176,8284,-27,-45,-14
5724.433,314,-540,14048,8300,-16,-46,-22
5727.433999999999,313,-540,14048,8300,-16,-46,-22
5731.432,312,-540,14048,8300,-16,-46,-22
5732.432,309,-540,14048,8300,-16,-46,-22
5735.843,310,-540,14048,8300,-16,-46,-22
5739.925,310,-540,14048,8300,-16,-46,-22
5743.533,309,-540,14048,8300,-16,-46,-22
5744.576999999999,308,-568,14052,8232,6,-27,-15
5748.1179999999995,306,-568,14052,8232,6,-27,-15
5751.271,307,-568,14052,8232,6,-27,-15
5752.407,304,-568,14052,8232,6,-27,-15
5756.598,304,-568,14052,8232,6,-27,-15
5757.613,304,-568,14052,8232,6,-27,-15
5760.612,303,-568,14052,8232,6,-27,-15
5764.35,305,-568,14052,8232,6,-27,-15
5765.362,304,-564,14068,8208,27,-48,-16
5768.637,302,-564,14068,8208,27,-48,-16
5772.889,302,-564,14068,8208,27,-48,-16
5773.675,300,-564,14068,8208,27,-48,-16
5776.669,299,-564,14068,8208,27,-48,-16
5780.673,302,-564,14068,8208,27,-48,-16
5784.901,301,-564,14068,8208,27,-48,-16
5785.67,302,-556,14076,8180,-76,-48,-19
5789.682,299,-556,14076,8180,-76,-48,-19
5792.6900000000005,299,-556,14076,8180,-76,-48,-19
5793.69,300,-556,14076,8180,-76,-48,-19
5797.423,299,-556,14076,8180,-76,-48,-19
5801.153,302,-556,14076,8180,-76,-48,-19
5802.156,302,-556,14076,8180,-76,-48,-19
5805.357,304,-488,14092,8236,-41,-35,-1
5809.153,304,-488,14092,8236,-41,-35,-1
5810.152,301,-488,14092,8236,-41,-35,-1
5813.152,306,-488,14092,8236,-41,-35,-1
5817.6810000000005,303,-488,14092,8236,-41,-35,-1
5818.182,305,-488,14092,8236,-41,-35,-1
5821.233,308,-488,14092,8236,-41,-35,-1
5826.196999999999,307,-488,14092,8236,-41,-35,-1
5826.196999999999,310,-488,14088,8240,-22,-60,-15
5830.1939999999995,307,-488,14088,8240,-22,-60,-15
5834.196999999999,307,-488,14088,8240,-22,-60,-15
5838.126,309,-488,14088,8240,-22,-60,-15
5838.893,308,-488,14088,8240,-22,-60,-15
5841.978,311,-488,14088,8240,-22,-60,-15
5845.884,310,-488,14088,8240,-22,-60,-15
5846.883,311,-484,14072,8264,-6,-49,-10
5849.945,309,-484,14072,8264,-6,-49,-10
5853.905,307,-484,14072,8264,-6,-49,-10
5854.883,310,-484,14072,8264,-6,-49,-10
5858.895,309,-484,14072,8264,-6,-49,-10
5861.882,311,-484,14072,8264,-6,-49,-10
5862.884,311,-484,14072,8264,-6,-49,-10
5866.932000000001,311,-492,14084,8240,-16,-33,-27
5871.15,309,-492,14084,8240,-16,-33,-27
5871.731,308,-492,14084,8240,-16,-33,-27
5874.782,309,-492,14084,8240,-16,-33,-27
5878.764999999999,308,-492,14084,8240,-16,-33,-27
5879.729,310,-492,14084,8240,-16,-33,-27
5882.728,310,-492,14084,8240,-16,-33,-27
5887.086,309,-556,14028,8224,-105,-36,-24
5891.097000000001,308,-556,14028,8224,-105,-36,-24
5892.103999999999,306,-556,14028,8224,-105,-36,-24
5895.097,308,-556,14028,8224,-105,-36,-24
5900.112,307,-556,14028,8224,-105,-36,-24
5901.112,308,-556,14028,8224,-105,-36,-24
5904.094,307,-556,14028,8224,-105,-36,-24
5907.12,308,-520,14112,8252,-81,-28,-17
5911.112,306,-520,14112,8252,-81,-28,-17
5912.118,304,-520,14112,8252,-81,-28,-17
5916.116,303,-520,14112,8252,-81,-28,-17
5920.173,303,-520,14112,8252,-81,-28,-17
5921.112,302,-520,14112,8252,-81,-28,-17
5924.127,301,-520,14112,8252,-81,-28,-17
5928.132,300,-508,14048,8292,-21,-49,-16
5929.116,295,-508,14048,8292,-21,-49,-16
5932.1140000000005,295,-508,14048,8292,-21,-49,-16
5935.998,292,-508,14048,8292,-21,-49,-16
5936.992,292,-508,14048,8292,-21,-49,-16
5940.994,289,-508,14048,8292,-21,-49,-16
5943.991,289,-508,14048,8292,-21,-49,-16
5947.993,283,-560,14112,8244,42,-46,-5
5948.9929999999995,280,-560,14112,8244,42,-46,-5
5952.995,278,-560,14112,8244,42,-46,-5
5953.995,277,-560,14112,8244,42,-46,-5
5956.997,277,-560,14112,8244,42,-46,-5
5960.993,276,-560,14112,8244,42,-46,-5
5961.992,280,-560,14112,8244,42,-46,-5
5965.003000000001,283,-536,14072,8224,-43,-32,-10
5968.932,286,-536,14072,8224,-43,-32,-10
5973.177,288,-536,14072,8224,-43,-32,-10
5973.987,289,-536,14072,8224,-43,-32,-10
5976.948,297,-536,14072,8224,-43,-32,-10
5980.942,300,-536,14072,8224,-43,-32,-10
5981.943,304,-536,14072,8224,-43,-32,-10
5985.947,311,-512,14012,8264,-81,-41,-9
5989.8009999999995,315,-512,14012,8264,-81,-41,-9
5990.45,316,-512,14012,8264,-81,-41,-9
5993.482,321,-512,14012,8264,-81,-41,-9
5997.441,324,-512,14012,8264,-81,-41,-9
5998.438,331,-512,14012,8264,-81,-41,-9
6001.658,335,-512,14012,8264,-81,-41,-9
6005.791,339,-512,14012,8264,-81,-41,-9
6006.4349999999995,343,-500,14044,8284,-19,-49,-10
6010.431,349,-500,14044,8284,-19,-49,-10
6014.433,351,-500,14044,8284,-19,-49,-10
6015.4439999999995,354,-500,14044,8284,-19,-49,-10
6018.441,360,-500,14044,8284,-19,-49,-10
6022.436,364,-500,14044,8284,-19,-49,-10
6026.436000000001,369,-500,14044,8284,-19,-49,-10
6026.436000000001,371,-508,14052,8212,21,-41,-31
6030.433999999999,373,-508,14052,8212,21,-41,-31
6034.434,377,-508,14052,8212,21,-41,-31
6035.434,378,-508,14052,8212,21,-41,-31
6038.433999999999,383,-508,14052,8212,21,-41,-31
6042.43,386,-508,14052,8212,21,-41,-31
6043.444,388,-508,14052,8212,21,-41,-31
6046.429,392,-548,14044,8212,-6,-40,-5
6050.569,394,-548,14044,8212,-6,-40,-5
6052.546,392,-548,14044,8212,-6,-40,-5
6055.523,395,-548,14044,8212,-6,-40,-5
6056.536,396,-548,14044,8212,-6,-40,-5
6059.523999999999,397,-548,14044,8212,-6,-40,-5
6063.523,402,-548,14044,8212,-6,-40,-5
6063.523,401,-548,14044,8212,-6,-40,-5
6067.52,401,-520,14064,8224,-29,-41,-1
6071.535,401,-520,14064,8224,-29,-41,-1
6072.527,403,-520,14064,8224,-29,-41,-1
6076.53,403,-520,14064,8224,-29,-41,-1
6079.521,405,-520,14064,8224,-29,-41,-1
6080.522,407,-520,14064,8224,-29,-41,-1
6084.535,406,-520,14064,8224,-29,-41,-1
6087.558999999999,404,-512,14060,8232,-26,-47,-13
6091.571,403,-512,14060,8232,-26,-47,-13
6092.523,401,-512,14060,8232,-26,-47,-13
6095.521,403,-512,14060,8232,-26,-47,-13
6099.795,402,-512,14060,8232,-26,-47,-13
6100.81,402,-512,14060,8232,-26,-47,-13
6103.933,400,-512,14060,8232,-26,-47,-13
6108.589,398,-520,14096,8180,4,-34,-15
6108.589,396,-520,14096,8180,4,-34,-15
6112.531,396,-520,14096,8180,4,-34,-15
6116.008,393,-520,14096,8180,4,-34,-15
6117.008,395,-520,14096,8180,4,-34,-15
6121.053,393,-520,14096,8180,4,-34,-15
6125.012,393,-520,14096,8180,4,-34,-15
6126.051,393,-548,14088,8208,-26,-24,-14
6129.01,390,-548,14088,8208,-26,-24,-14
6133.009,389,-548,14088,8208,-26,-24,-14
6134.01,387,-548,14088,8208,-26,-24,-14
6137.197999999999,387,-548,14088,8208,-26,-24,-14
6140.809,387,-548,14088,8208,-26,-24,-14
6141.7609999999995,388,-548,14088,8208,-26,-24,-14
6144.807,385,-548,14088,8208,-26,-24,-14
6149.763,384,-560,14072,8264,-91,-33,-14
6150.76,381,-560,14072,8264,-91,-33,-14
6153.883000000001,378,-560,14072,8264,-91,-33,-14
6157.393,380,-560,14072,8264,-91,-33,-14
6161.384,376,-560,14072,8264,-91,-33,-14
6162.387,378,-560,14072,8264,-91,-33,-14
6165.427000000001,374,-560,14072,8264,-91,-33,-14
6169.219,375,-564,14092,8264,-29,-60,-20
6170.218,369,-564,14092,8264,-29,-60,-20
6174.218,368,-564,14092,8264,-29,-60,-20
6177.2660000000005,366,-564,14092,8264,-29,-60,-20
6178.253,364,-564,14092,8264,-29,-60,-20
6182.219,364,-564,14092,8264,-29,-60,-20
6186.427,361,-564,14092,8264,-29,-60,-20
6190.442,357,-528,14080,8228,-16,-38,-11
6190.442,352,-528,14080,8228,-16,-38,-11
6194.439,350,-528,14080,8228,-16,-38,-11
6198.438,347,-528,14080,8228,-16,-38,-11
6199.438,345,-528,14080,8228,-16,-38,-11
6202.683,341,-528,14080,8228,-16,-38,-11
6206.2390000000005,337,-528,14080,8228,-16,-38,-11
6207.2570000000005,336,-492,14036,8244,-59,-56,4
6210.251,331,-492,14036,8244,-59,-56,4
6214.251,327,-492,14036,8244,-59,-56,4
6215.253,325,-492,14036,8244,-59,-56,4
6218.773999999999,322,-492,14036,8244,-59,-56,4
6222.991999999999,319,-492,14036,8244,-59,-56,4
6223.79,316,-492,14036,8244,-59,-56,4
6226.822,313,-452,14060,8244,-26,-37,-11
6230.786,307,-452,14060,8244,-26,-37,-11
6231.788,305,-452,14060,8244,-26,-37,-11
6235.697,302,-452,14060,8244,-26,-37,-11
6239.702,299,-452,14060,8244,-26,-37,-11
6240.764999999999,298,-452,14060,8244,-26,-37,-11
6243.942,296,-452,14060,8244,-26,-37,-11
6247.053,293,-528,14072,8256,17,-35,-13
6248.158,288,-528,14072,8256,17,-35,-13
6251.4580000000005,285,-528,14072,8256,17,-35,-13
6256.706999999999,286,-528,14072,8256,17,-35,-13
6257.215,280,-528,14072,8256,17,-35,-13
6259.986,282,-528,14072,8256,17,-35,-13
6263.484,280,-528,14072,8256,17,-35,-13
6264.4929999999995,277,-528,14072,8256,17,-35,-13
6268.325,275,-520,14024,8200,-50,-45,-21
6272.952,273,-520,14024,8200,-50,-45,-21
6275.9929999999995,271,-520,14024,8200,-50,-45,-21
6276.943,269,-520,14024,8200,-50,-45,-21
6280.945,269,-520,14024,8200,-50,-45,-21
6283.9929999999995,268,-520,14024,8200,-50,-45,-21
6284.943,267,-520,14024,8200,-50,-45,-21
6288.942,265,-572,14116,8292,-73,-42,-13
6292.021,262,-572,14116,8292,-73,-42,-13
6292.983,262,-572,14116,8292,-73,-42,-13
6296.939,260,-572,14116,8292,-73,-42,-13
6300.9839999999995,260,-572,14116,8292,-73,-42,-13
6300.9839999999995,258,-572,14116,8292,-73,-42,-13
6304.982,259,-572,14116,8292,-73,-42,-13
6309.023,257,-524,14116,8276,50,-39,4
6309.946,255,-524,14116,8276,50,-39,4
6312.9439999999995,255,-524,14116,8276,50,-39,4
6316.950000000001,253,-524,14116,8276,50,-39,4
6317.945,256,-524,14116,8276,50,-39,4
6320.942,256,-524,14116,8276,50,-39,4
6324.963000000001,255,-524,14116,8276,50,-39,4
6325.941000000001,254,-564,14064,8164,23,-58,-9
6328.9400000000005,253,-564,14064,8164,23,-58,-9
6333.447999999999,253,-564,14064,8164,23,-58,-9
6334.028,254,-564,14064,8164,23,-58,-9
6337.331,253,-564,14064,8164,23,-58,-9
6338.342,255,-564,14064,8164,23,-58,-9
6342.344,256,-564,14064,8164,23,-58,-9
6345.379,255,-564,14064,8164,23,-58,-9
6350.268,257,-584,14040,8208,-192,-50,-18
6351.107,253,-584,14040,8208,-192,-50,-18
6354.529,253,-584,14040,8208,-192,-50,-18
6358.172,257,-584,14040,8208,-192,-50,-18
6359.110000000001,258,-584,14040,8208,-192,-50,-18
6362.1449999999995,259,-584,14040,8208,-192,-50,-18
6366.107,260,-584,14040,8208,-192,-50,-18
6367.112,258,-488,14116,8308,-70,-45,-8
6370.109,258,-488,14116,8308,-70,-45,-8
6374.112,257,-488,14116,8308,-70,-45,-8
6376.106,259,-488,14116,8308,-70,-45,-8
6379.11,263,-488,14116,8308,-70,-45,-8
6383.110000000001,263,-488,14116,8308,-70,-45,-8
6387.368,266,-488,14116,8308,-70,-45,-8
6387.368,266,-532,14036,8244,139,-46,2
6391.388,266,-532,14036,8244,139,-46,2
6392.381,266,-532,14036,8244,139,-46,2
6395.379,268,-532,14036,8244,139,-46,2
6398.988,267,-532,14036,8244,139,-46,2
6399.787,271,-532,14036,8244,139,-46,2
6403.1359999999995,273,-532,14036,8244,139,-46,2
6407.753,273,-532,14036,8244,139,-46,2
6408.762000000001,275,-460,14088,8196,13,-50,-30
6411.75,277,-460,14088,8196,13,-50,-30
6415.751,277,-460,14088,8196,13,-50,-30
6416.755,277,-460,14088,8196,13,-50,-30
6419.753,282,-460,14088,8196,13,-50,-30
6423.754,285,-460,14088,8196,13,-50,-30
6424.759,284,-460,14088,8196,13,-50,-30
6427.793000000001,287,-496,14012,8188,-179,-42,-25
6432.766,287,-496,14012,8188,-179,-42,-25
6435.7519999999995,288,-496,14012,8188,-179,-42,-25
6436.751,290,-496,14012,8188,-179,-42,-25
6439.572,293,-496,14012,8188,-179,-42,-25
6443.5830000000005,298,-496,14012,8188,-179,-42,-25
6444.584,295,-496,14012,8188,-179,-42,-25
6448.369,298,-524,14108,8272,-89,-57,-13
6452.808,300,-524,14108,8272,-89,-57,-13
6456.425,301,-524,14108,8272,-89,-57,-13
6457.3910000000005,303,-524,14108,8272,-89,-57,-13
6460.437,306,-524,14108,8272,-89,-57,-13
6464.383,308,-524,14108,8272,-89,-57,-13
6465.380999999999,308,-524,14108,8272,-89,-57,-13
6468.666,311,-556,14072,8268,114,-35,-7
6472.577,313,-556,14072,8268,114,-35,-7
6473.504,313,-556,14072,8268,114,-35,-7
6476.503,314,-556,14072,8268,114,-35,-7
6480.501,317,-556,14072,8268,114,-35,-7
6481.505,320,-556,14072,8268,114,-35,-7
6485.5,320,-556,14072,8268,114,-35,-7
6489.6900000000005,322,-520,14100,8184,-20,-44,-27
6490.518,324,-520,14100,8184,-20,-44,-27
6493.534000000001,323,-520,14100,8184,-20,-44,-27
6496.779,325,-520,14100,8184,-20,-44,-27
6497.79,326,-520,14100,8184,-20,-44,-27
6502.039,330,-520,14100,8184,-20,-44,-27
6506.1179999999995,331,-520,14100,8184,-20,-44,-27
6509.036,330,-520,14128,8228,-67,-55,-28
6510.039,330,-520,14128,8228,-67,-55,-28
6514.036,330,-520,14128,8228,-67,-55,-28
6518.2,334,-520,14128,8228,-67,-55,-28
6519.0380000000005,334,-520,14128,8228,-67,-55,-28
6522.075,335,-520,14128,8228,-67,-55,-28
6526.036,338,-520,14128,8228,-67,-55,-28
6527.037,336,-516,14056,8228,10,-45,-31
6530.041,337,-516,14056,8228,10,-45,-31
6533.982,337,-516,14056,8228,10,-45,-31
6534.991,337,-516,14056,8228,10,-45,-31
6539.043000000001,340,-516,14056,8228,10,-45,-31
6542.0689999999995,340,-516,14056,8228,10,-45,-31
6543.048,342,-516,14056,8228,10,-45,-31
6547.043000000001,342,-492,14036,8188,-28,-46,-15
6551.184,341,-492,14036,8188,-28,-46,-15
6554.559,341,-492,14036,8188,-28,-46,-15
6555.183999999999,337,-492,14036,8188,-28,-46,-15
6559.185,342,-492,14036,8188,-28,-46,-15
6563.183,342,-492,14036,8188,-28,-46,-15
6563.183,339,-492,14036,8188,-28,-46,-15
6567.325000000001,342,-528,14036,8240,-59,-38,-16
6571.7429999999995,340,-528,14036,8240,-59,-38,-16
6571.7429999999995,340,-528,14036,8240,-59,-38,-16
6575.781,337,-528,14036,8240,-59,-38,-16
6578.7789999999995,341,-528,14036,8240,-59,-38,-16
6579.780000000001,340,-528,14036,8240,-59,-38,-16
6583.7789999999995,341,-528,14036,8240,-59,-38,-16
6587.972,342,-520,14048,8240,-41,-15,-34
6590.988,338,-520,14048,8240,-41,-15,-34
6591.993,339,-520,14048,8240,-41,-15,-34
6595.9839999999995,338,-520,14048,8240,-41,-15,-34
6600.144,339,-520,14048,8240,-41,-15,-34
6601.002,340,-520,14048,8240,-41,-15,-34
6605.004,340,-520,14048,8240,-41,-15,-34
6608.047,339,-520,14048,8240,-41,-15,-34
6609.001,339,-488,14120,8180,22,-33,-4
6611.998,336,-488,14120,8180,22,-33,-4
6616.43,337,-488,14120,8180,22,-33,-4
6617.238,339,-488,14120,8180,22,-33,-4
6620.255,339,-488,14120,8180,22,-33,-4
6624.253000000001,339,-488,14120,8180,22,-33,-4
6625.267,340,-488,14120,8180,22,-33,-4
6628.264999999999,340,-504,14012,8212,-71,-34,-22
6632.789,338,-504,14012,8212,-71,-34,-22
6633.81,336,-504,14012,8212,-71,-34,-22
6636.803,338,-504,14012,8212,-71,-34,-22
6640.805,339,-504,14012,8212,-71,-34,-22
6641.806,340,-504,14012,8212,-71,-34,-22
6644.801,340,-504,14012,8212,-71,-34,-22
6648.799,338,-524,14076,8256,-21,-41,-19
6649.802000000001,337,-524,14076,8256,-21,-41,-19
6653.411,336,-524,14076,8256,-21,-41,-19
6657.371,338,-524,14076,8256,-21,-41,-19
6661.371,339,-524,14076,8256,-21,-41,-19
6661.371,338,-524,14076,8256,-21,-41,-19
6665.371,339,-524,14076,8256,-21,-41,-19
6669.608,338,-572,14048,8268,28,-42,-19
6670.086,336,-572,14048,8268,28,-42,-19
6673.258,336,-572,14048,8268,28,-42,-19
6677.148,335,-572,14048,8268,28,-42,-19
6678.112999999999,336,-572,14048,8268,28,-42,-19
6682.102000000001,334,-572,14048,8268,28,-42,-19
6686.031,334,-572,14048,8268,28,-42,-19
6687.04,336,-516,14044,8232,10,-30,-4
6690.099,334,-516,14044,8232,10,-30,-4
6694.098999999999,333,-516,14044,8232,10,-30,-4
6695.108,334,-516,14044,8232,10,-30,-4
6698.096,333,-516,14044,8232,10,-30,-4
6702.102,334,-516,14044,8232,10,-30,-4
6703.101000000001,336,-516,14044,8232,10,-30,-4
6706.584000000001,333,-516,14044,8232,10,-30,-4
6710.6,334,-532,14064,8220,-116,-48,-6
6711.597000000001,330,-532,14064,8220,-116,-48,-6
6714.598,330,-532,14064,8220,-116,-48,-6
6719.178,332,-532,14064,8220,-116,-48,-6
6719.178,332,-532,14064,8220,-116,-48,-6
6723.159,335,-532,14064,8220,-116,-48,-6
6727.16,334,-532,14064,8220,-116,-48,-6
6728.159,331,-516,14104,8284,-18,-48,4
6731.162,328,-516,14104,8284,-18,-48,4
6735.245,329,-516,14104,8284,-18,-48,4
6735.8,329,-516,14104,8284,-18,-48,4
6739.508,331,-516,14104,8284,-18,-48,4
6743.436,329,-516,14104,8284,-18,-48,4
6743.436,331,-516,14104,8284,-18,-48,4
6747.435,332,-516,14104,8284,-18,-48,4
6751.105,326,-520,14080,8232,97,-25,-20
6752.182000000001,329,-520,14080,8232,97,-25,-20
6756.026000000001,327,-520,14080,8232,97,-25,-20
6759.386,328,-520,14080,8232,97,-25,-20
6760.3910000000005,329,-520,14080,8232,97,-25,-20
6763.621,328,-520,14080,8232,97,-25,-20
6768.119000000001,329,-520,14080,8232,97,-25,-20
6769.137,326,-568,14068,8160,-24,-46,-17
6772.268,325,-568,14068,8160,-24,-46,-17
6775.769,323,-568,14068,8160,-24,-46,-17
6776.776,324,-568,14068,8160,-24,-46,-17
6779.969,326,-568,14068,8160,-24,-46,-17
6784.527,324,-568,14068,8160,-24,-46,-17
6788.2970000000005,326,-568,14068,8160,-24,-46,-17
6789.327,323,-536,14060,8236,-174,-39,-2
6792.41,322,-536,14060,8236,-174,-39,-2
6796.36,323,-536,14060,8236,-174,-39,-2
6797.329000000001,322,-536,14060,8236,-174,-39,-2
6800.380999999999,326,-536,14060,8236,-174,-39,-2
6804.374,323,-536,14060,8236,-174,-39,-2
6805.324,324,-536,14060,8236,-174,-39,-2
6809.326999999999,321,-528,14156,8292,-53,-30,-4
6812.373,321,-528,14156,8292,-53,-30,-4
6813.326,321,-528,14156,8292,-53,-30,-4
6817.3279999999995,321,-528,14156,8292,-53,-30,-4
6821.335999999999,322,-528,14156,8292,-53,-30,-4
6821.335999999999,323,-528,14156,8292,-53,-30,-4
6825.3279999999995,324,-528,14156,8292,-53,-30,-4
6829.335,320,-528,14028,8248,71,-54,-17
6830.326999999999,321,-528,14028,8248,71,-54,-17
6833.3279999999995,319,-528,14028,8248,71,-54,-17
6837.363,319,-528,14028,8248,71,-54,-17
6838.326999999999,323,-528,14028,8248,71,-54,-17
6842.361000000001,320,-528,14028,8248,71,-54,-17
6845.354,322,-528,14028,8248,71,-54,-17
6846.326999999999,322,-520,14064,8200,21,-40,-19
6850.328,321,-520,14064,8200,21,-40,-19
6854.467,320,-520,14064,8200,21,-40,-19
6855.462,320,-520,14064,8200,21,-40,-19
6858.473,321,-520,14064,8200,21,-40,-19
6861.464,321,-520,14064,8200,21,-40,-19
6862.4619999999995,323,-520,14064,8200,21,-40,-19
6866.388,323,-520,14064,8200,21,-40,-19
6870.407,321,-508,14056,8208,-45,-38,-13
6874.42,320,-508,14056,8208,-45,-38,-13
6875.416,320,-508,14056,8208,-45,-38,-13
6878.407,323,-508,14056,8208,-45,-38,-13
6882.454,324,-508,14056,8208,-45,-38,-13
6883.423,323,-508,14056,8208,-45,-38,-13
6886.408,325,-508,14056,8208,-45,-38,-13
6890.437999999999,323,-548,14024,8152,-46,-35,-32
6891.4130000000005,324,-548,14024,8152,-46,-35,-32
6894.407,325,-548,14024,8152,-46,-35,-32
6898.421,325,-548,14024,8152,-46,-35,-32
6899.425,328,-548,14024,8152,-46,-35,-32
6903.413,328,-548,14024,8152,-46,-35,-32
6907.412,328,-548,14024,8152,-46,-35,-32
6910.434,329,-532,14132,8168,-74,-33,-1
6911.406,329,-532,14132,8168,-74,-33,-1
6915.276000000001,327,-532,14132,8168,-74,-33,-1
6919.286999999999,329,-532,14132,8168,-74,-33,-1
6920.2880000000005,332,-532,14132,8168,-74,-33,-1
6923.773,332,-532,14132,8168,-74,-33,-1
6926.818,333,-532,14132,8168,-74,-33,-1
6927.768999999999,332,-520,14144,8248,-28,-31,4
6931.884,331,-520,14144,8248,-28,-31,4
6935.771,334,-520,14144,8248,-28,-31,4
6936.262,333,-520,14144,8248,-28,-31,4
6939.653,337,-520,14144,8248,-28,-31,4
6940.3240000000005,338,-520,14144,8248,-28,-31,4
6944.277,337,-520,14144,8248,-28,-31,4
6948.273999999999,338,-520,14144,8248,-28,-31,4
6949.275,337,-476,14076,8216,39,-53,-24
6952.319,338,-476,14076,8216,39,-53,-24
6956.784,338,-476,14076,8216,39,-53,-24
6957.779,339,-476,14076,8216,39,-53,-24
6960.777,342,-476,14076,8216,39,-53,-24
6964.775000000001,343,-476,14076,8216,39,-53,-24
6964.775000000001,342,-476,14076,8216,39,-53,-24
6968.814,343,-464,14100,8260,-79,-47,-18
6972.978999999999,343,-464,14100,8260,-79,-47,-18
6976.031,343,-464,14100,8260,-79,-47,-18
6976.992,342,-464,14100,8260,-79,-47,-18
6980.990000000001,344,-464,14100,8260,-79,-47,-18
6985.005,344,-464,14100,8260,-79,-47,-18
6985.344999999999,343,-464,14100,8260,-79,-47,-18
6989.401,345,-492,14080,8232,-186,-48,-22
6993.375,343,-492,14080,8232,-186,-48,-22
6996.357,343,-492,14080,8232,-186,-48,-22
6997.358,344,-492,14080,8232,-186,-48,-22
7001.3589999999995,344,-492,14080,8232,-186,-48,-22
7005.363,344,-492,14080,8232,-186,-48,-22
7006.381,344,-492,14080,8232,-186,-48,-22
7009.378,342,-492,14092,8312,-19,-52,-9
7013.411,342,-492,14092,8312,-19,-52,-9
7014.379,342,-492,14092,8312,-19,-52,-9
7017.378,343,-492,14092,8312,-19,-52,-9
7021.72,344,-492,14092,8312,-19,-52,-9
7022.384,343,-492,14092,8312,-19,-52,-9
7025.4349999999995,345,-492,14092,8312,-19,-52,-9
7030.071000000001,342,-520,14128,8276,115,-29,-7
7031.085,341,-520,14128,8276,115,-29,-7
7034.09,341,-520,14128,8276,115,-29,-7
7038.255,341,-520,14128,8276,115,-29,-7
7039.085,344,-520,14128,8276,115,-29,-7
7042.137000000001,343,-520,14128,8276,115,-29,-7
7046.085,342,-520,14128,8276,115,-29,-7
7047.081999999999,342,-536,14076,8208,65,-41,1
7050.786,342,-536,14076,8208,65,-41,1
7054.825,341,-536,14076,8208,65,-41,1
7055.459,342,-536,14076,8208,65,-41,1
7058.504,340,-536,14076,8208,65,-41,1
7062.498,342,-536,14076,8208,65,-41,1
7063.458,342,-536,14076,8208,65,-41,1
7066.681,341,-536,14076,8208,65,-41,1
7071.077,339,-596,13972,8204,-102,-49,14
7071.077,339,-596,13972,8204,-102,-49,14
7075.0869999999995,338,-596,13972,8204,-102,-49,14
7078.902,340,-596,13972,8204,-102,-49,14
7079.914,337,-596,13972,8204,-102,-49,14
7083.616,340,-596,13972,8204,-102,-49,14
7087.73,337,-596,13972,8204,-102,-49,14
7088.612,337,-540,14032,8256,-115,-47,-28
7091.628,336,-540,14032,8256,-115,-47,-28
7095.613,335,-540,14032,8256,-115,-47,-28
7099.834000000001,336,-540,14032,8256,-115,-47,-28
7100.85,333,-540,14032,8256,-115,-47,-28
7103.974,335,-540,14032,8256,-115,-47,-28
7107.856,332,-540,14032,8256,-115,-47,-28
7108.863,332,-488,14132,8236,15,-54,-14
7111.889999999999,330,-488,14132,8236,15,-54,-14
7115.85,330,-488,14132,8236,15,-54,-14
7116.852,330,-488,14132,8236,15,-54,-14
7119.852,330,-488,14132,8236,15,-54,-14
7123.856,330,-488,14132,8236,15,-54,-14
7124.857000000001,329,-488,14132,8236,15,-54,-14
7127.899,327,-520,14024,8236,107,-57,-19
7132.018,325,-520,14024,8236,107,-57,-19
7132.8550000000005,326,-520,14024,8236,107,-57,-19
7136.553,324,-520,14024,8236,107,-57,-19
7140.564,324,-520,14024,8236,107,-57,-19
7144.564,322,-520,14024,8236,107,-57,-19
7145.564,321,-520,14024,8236,107,-57,-19
7148.685,320,-500,14096,8172,-80,-62,-11
7152.955999999999,318,-500,14096,8172,-80,-62,-11
7153.5650000000005,318,-500,14096,8172,-80,-62,-11
7156.592,315,-500,14096,8172,-80,-62,-11
7160.632,317,-500,14096,8172,-80,-62,-11
7161.582,316,-500,14096,8172,-80,-62,-11
7164.5830000000005,315,-500,14096,8172,-80,-62,-11
7168.933,313,-444,14052,8284,-140,-33,0
7169.944,311,-444,14052,8284,-140,-33,0
7172.693,311,-444,14052,8284,-140,-33,0
7176.991,309,-444,14052,8284,-140,-33,0
7177.9929999999995,311,-444,14052,8284,-140,-33,0
7181.997,309,-444,14052,8284,-140,-33,0
7185.991999999999,311,-444,14052,8284,-140,-33,0
7185.991999999999,310,-444,14052,8284,-140,-33,0
7189.48,309,-504,14120,8268,63,-46,-2
7193.49,307,-504,14120,8268,63,-46,-2
7194.492,306,-504,14120,8268,63,-46,-2
7198.531,310,-504,14120,8268,63,-46,-2
7202.434,308,-504,14120,8268,63,-46,-2
7203.385,308,-504,14120,8268,63,-46,-2
7206.479,309,-504,14120,8268,63,-46,-2
7210.389,306,-532,14104,8208,7,-47,-21
7210.389,307,-532,14104,8208,7,-47,-21
7214.385,304,-532,14104,8208,7,-47,-21
7218.61,305,-532,14104,8208,7,-47,-21
7219.017,305,-532,14104,8208,7,-47,-21
7223.398,308,-532,14104,8208,7,-47,-21
7226.455,306,-532,14104,8208,7,-47,-21
7227.405,307,-532,14104,8208,7,-47,-21
7230.442,307,-536,14096,8252,-92,-58,-1
7234.412,307,-536,14096,8252,-92,-58,-1
7235.407999999999,307,-536,14096,8252,-92,-58,-1
7239.242,308,-536,14096,8252,-92,-58,-1
7242.268,309,-536,14096,8252,-92,-58,-1
7243.254,310,-536,14096,8252,-92,-58,-1
7247.256,308,-536,14096,8252,-92,-58,-1
7251.259,309,-552,14024,8244,-9,-36,-28
7252.263,309,-552,14024,8244,-9,-36,-28
7255.472,310,-552,14024,8244,-9,-36,-28
7259.257,309,-552,14024,8244,-9,-36,-28
7260.256,311,-552,14024,8244,-9,-36,-28
7263.2570000000005,312,-552,14024,8244,-9,-36,-28
7267.280000000001,311,-552,14024,8244,-9,-36,-28
7268.259,309,-564,14064,8288,25,-30,-19
7271.259,310,-564,14064,8288,25,-30,-19
7275.272,309,-564,14064,8288,25,-30,-19
7276.2570000000005,312,-564,14064,8288,25,-30,-19
7280.255,312,-564,14064,8288,25,-30,-19
7283.257,313,-564,14064,8288,25,-30,-19
7284.254,311,-564,14064,8288,25,-30,-19
7288.255999999999,312,-564,14064,8288,25,-30,-19
7292.256,311,-560,14008,8184,-15,-45,-24
7292.256,311,-560,14008,8184,-15,-45,-24
7296.782999999999,312,-560,14008,8184,-15,-45,-24
7300.398999999999,311,-560,14008,8184,-15,-45,-24
7304.407999999999,314,-560,14008,8184,-15,-45,-24
7304.407999999999,312,-560,14008,8184,-15,-45,-24
7308.938,313,-560,14008,8184,-15,-45,-24
7311.9310000000005,311,-556,14144,8244,-142,-57,-13
7312.927000000001,311,-556,14144,8244,-142,-57,-13
7316.924,312,-556,14144,8244,-142,-57,-13
7320.926,315,-556,14144,8244,-142,-57,-13
7320.926,314,-556,14144,8244,-142,-57,-13
7324.925,315,-556,14144,8244,-142,-57,-13
7328.939,313,-556,14144,8244,-142,-57,-13
7332.968,315,-552,14024,8272,54,-42,-8
7332.968,312,-552,14024,8272,54,-42,-8
7336.85,312,-552,14024,8272,54,-42,-8
7340.900000000001,315,-552,14024,8272,54,-42,-8
7341.872,314,-552,14024,8272,54,-42,-8
7344.862,313,-552,14024,8272,54,-42,-8
7345.864,314,-552,14024,8272,54,-42,-8
7349.872,313,-532,14040,8220,67,-60,-9
7353.922,310,-532,14040,8220,67,-60,-9
7354.865,311,-532,14040,8220,67,-60,-9
7357.866,309,-532,14040,8220,67,-60,-9
7361.862999999999,310,-532,14040,8220,67,-60,-9
7362.863,308,-532,14040,8220,67,-60,-9
7365.862,308,-532,14040,8220,67,-60,-9
7369.861,305,-532,14040,8220,67,-60,-9
7370.869,304,-556,14084,8204,-20,-36,-4
7373.865000000001,304,-556,14084,8204,-20,-36,-4
7377.898,304,-556,14084,8204,-20,-36,-4
7378.862,302,-556,14084,8204,-20,-36,-4
7381.896000000001,303,-556,14084,8204,-20,-36,-4
7386.227,302,-556,14084,8204,-20,-36,-4
7386.8679999999995,299,-556,14084,8204,-20,-36,-4
7390.872,299,-540,14060,8272,-87,-39,11
7393.925,297,-540,14060,8272,-87,-39,11
7394.880999999999,295,-540,14060,8272,-87,-39,11
7398.879,296,-540,14060,8272,-87,-39,11
7402.941,296,-540,14060,8272,-87,-39,11
7402.941,298,-540,14060,8272,-87,-39,11
7407.026,295,-540,14060,8272,-87,-39,11
7411.030000000001,294,-552,14028,8256,15,-60,9
7412.022999999999,294,-552,14028,8256,15,-60,9
7415.023,292,-552,14028,8256,15,-60,9
7419.392,293,-552,14028,8256,15,-60,9
7420.025,295,-552,14028,8256,15,-60,9
7423.225,293,-552,14028,8256,15,-60,9
7426.993,295,-552,14028,8256,15,-60,9
7427.995,293,-552,14028,8256,15,-60,9
7430.73,292,-560,14072,8192,17,-50,-8
7431.751,292,-560,14072,8192,17,-50,-8
7435.286999999999,293,-560,14072,8192,17,-50,-8
7439.599,292,-560,14072,8192,17,-50,-8
7440.25,292,-560,14072,8192,17,-50,-8
7443.245,294,-560,14072,8192,17,-50,-8
7447.2519999999995,290,-560,14072,8192,17,-50,-8
7448.247,289,-528,14020,8188,-60,-30,0
7451.837,289,-528,14020,8188,-60,-30,0
7456.209999999999,290,-528,14020,8188,-60,-30,0
7457.2300000000005,289,-528,14020,8188,-60,-30,0
7460.228,290,-528,14020,8188,-60,-30,0
7464.234,292,-528,14020,8188,-60,-30,0
7464.234,289,-528,14020,8188,-60,-30,0
7468.229,291,-528,14020,8188,-60,-30,0
7472.264,288,-544,14116,8236,-70,-42,-13
7473.226000000001,288,-544,14116,8236,-70,-42,-13
7476.285,291,-544,14116,8236,-70,-42,-13
7480.231,289,-544,14116,8236,-70,-42,-13
7481.225,291,-544,14116,8236,-70,-42,-13
7485.228,288,-544,14116,8236,-70,-42,-13
7488.791,289,-544,14116,8236,-70,-42,-13
7488.791,288,-500,14104,8248,-22,-46,-19
7492.822,286,-500,14104,8248,-22,-46,-19
7496.826,286,-500,14104,8248,-22,-46,-19
7501.179999999999,287,-500,14104,8248,-22,-46,-19
7501.763999999999,285,-500,14104,8248,-22,-46,-19
7505.169000000001,287,-500,14104,8248,-22,-46,-19
7508.832,287,-500,14104,8248,-22,-46,-19
7509.764999999999,284,-564,14064,8232,45,-29,0
7513.768,283,-564,14064,8232,45,-29,0
7517.92,284,-564,14064,8232,45,-29,0
7517.92,285,-564,14064,8232,45,-29,0
7521.4980000000005,287,-564,14064,8232,45,-29,0
7521.999,286,-564,14064,8232,45,-29,0
7526.022,285,-564,14064,8232,45,-29,0
7530.018,284,-564,14064,8232,45,-29,0
7531.0160000000005,286,-520,14064,8188,-62,-41,-18
7534.013,285,-520,14064,8188,-62,-41,-18
7538.0560000000005,286,-520,14064,8188,-62,-41,-18
7538.462,288,-520,14064,8188,-62,-41,-18
7542.478,285,-520,14064,8188,-62,-41,-18
7545.514,288,-520,14064,8188,-62,-41,-18
7550.5,287,-520,14064,8188,-62,-41,-18
7550.5,286,-536,14084,8228,-123,-51,-7
7554.626,288,-536,14084,8228,-123,-51,-7
7558.481,286,-536,14084,8228,-123,-51,-7
7559.484,288,-536,14084,8228,-123,-51,-7
7562.483,287,-536,14084,8228,-123,-51,-7
7566.985,290,-536,14084,8228,-123,-51,-7
7567.268999999999,287,-536,14084,8228,-123,-51,-7
7570.702,288,-552,14064,8276,-40,-34,-18
7574.282,288,-552,14064,8276,-40,-34,-18
7575.286,289,-552,14064,8276,-40,-34,-18
7579.283,288,-552,14064,8276,-40,-34,-18
7583.282999999999,289,-552,14064,8276,-40,-34,-18
7586.797,291,-552,14064,8276,-40,-34,-18
7587.3910000000005,290,-552,14064,8276,-40,-34,-18
7591.387,291,-548,14024,8296,65,-62,-17
7595.393999999999,291,-548,14024,8296,65,-62,-17
7595.393999999999,290,-548,14024,8296,65,-62,-17
7599.391,290,-548,14024,8296,65,-62,-17
7603.387,292,-548,14024,8296,65,-62,-17
7603.387,294,-548,14024,8296,65,-62,-17
7607.389,292,-548,14024,8296,65,-62,-17
7611.411,292,-568,14068,8200,35,-37,-6
7612.391,291,-568,14068,8200,35,-37,-6
7615.387,291,-568,14068,8200,35,-37,-6
7620.02,294,-568,14068,8200,35,-37,-6
7620.6810000000005,294,-568,14068,8200,35,-37,-6
7623.678,293,-568,14068,8200,35,-37,-6
7624.679,294,-568,14068,8200,35,-37,-6
7627.7390000000005,292,-568,14068,8200,35,-37,-6
7631.677,292,-520,14080,8188,-31,-36,-12
7635.682,291,-520,14080,8188,-31,-36,-12
7636.677,291,-520,14080,8188,-31,-36,-12
7639.678,292,-520,14080,8188,-31,-36,-12
7643.681,293,-520,14080,8188,-31,-36,-12
7644.68,293,-520,14080,8188,-31,-36,-12
7648.724999999999,293,-520,14080,8188,-31,-36,-12
7652.954000000001,292,-536,14104,8236,-45,-39,2
7653.682,292,-536,14104,8236,-45,-39,2
7656.441,292,-536,14104,8236,-45,-39,2
7660.523999999999,293,-536,14104,8236,-45,-39,2
7661.4529999999995,293,-536,14104,8236,-45,-39,2
7664.456,291,-536,14104,8236,-45,-39,2
7668.652,292,-536,14104,8236,-45,-39,2
7669.6720000000005,290,-560,14076,8204,16,-38,13
7673.668000000001,289,-560,14076,8204,16,-38,13
7676.665,289,-560,14076,8204,16,-38,13
7677.6720000000005,290,-560,14076,8204,16,-38,13
7680.671,287,-560,14076,8204,16,-38,13
7681.665,288,-560,14076,8204,16,-38,13
7685.762000000001,286,-560,14076,8204,16,-38,13
7689.875,287,-560,14076,8204,16,-38,13
7690.794000000001,284,-524,14060,8180,-16,-45,5
7693.79,283,-524,14060,8180,-16,-45,5
7697.7880000000005,283,-524,14060,8180,-16,-45,5
7697.7880000000005,282,-524,14060,8180,-16,-45,5
7701.786,281,-524,14060,8180,-16,-45,5
7705.812,282,-524,14060,8180,-16,-45,5
7706.829,280,-524,14060,8180,-16,-45,5
7709.8240000000005,278,-484,14060,8192,-68,-47,-41
7713.880999999999,274,-484,14060,8192,-68,-47,-41
7714.8240000000005,276,-484,14060,8192,-68,-47,-41
7717.823,276,-484,14060,8192,-68,-47,-41
7722.299,275,-484,14060,8192,-68,-47,-41
7722.813,273,-484,14060,8192,-68,-47,-41
7726.822,272,-484,14060,8192,-68,-47,-41
7730.821,271,-536,14056,8264,-66,-47,5
7730.821,267,-536,14056,8264,-66,-47,5
7734.821,268,-536,14056,8264,-66,-47,5
7738.82,269,-536,14056,8264,-66,-47,5
7739.0509999999995,268,-536,14056,8264,-66,-47,5
7743.072,267,-536,14056,8264,-66,-47,5
7747.066,266,-536,14056,8264,-66,-47,5
7748.066,265,-536,14056,8264,-66,-47,5
7751.343999999999,261,-544,14172,8260,-29,-52,-13
7755.447,261,-544,14172,8260,-29,-52,-13
7756.375,261,-544,14172,8260,-29,-52,-13
7759.385,262,-544,14172,8260,-29,-52,-13
7763.379,261,-544,14172,8260,-29,-52,-13
7767.459,260,-544,14172,8260,-29,-52,-13
7768.356,257,-544,14172,8260,-29,-52,-13
7771.67,258,-532,14080,8276,-35,-44,-5
7775.4349999999995,257,-532,14080,8276,-35,-44,-5
7776.398,257,-532,14080,8276,-35,-44,-5
7779.397,258,-532,14080,8276,-35,-44,-5
7783.98,255,-532,14080,8276,-35,-44,-5
7783.98,258,-532,14080,8276,-35,-44,-5
7788.1,253,-532,14080,8276,-35,-44,-5
7792.003000000001,255,-520,14048,8284,-13,-42,-24
7792.99,254,-520,14048,8284,-13,-42,-24
7795.994000000001,254,-520,14048,8284,-13,-42,-24
7800.036999999999,253,-520,14048,8284,-13,-42,-24
7801.092,253,-520,14048,8284,-13,-42,-24
7804.339,254,-520,14048,8284,-13,-42,-24
7808.1810000000005,253,-520,14048,8284,-13,-42,-24
7809.051,253,-528,14096,8264,-25,-39,-8
7812.102000000001,254,-528,14096,8264,-25,-39,-8
7816.492,253,-528,14096,8264,-25,-39,-8
7820.37,252,-528,14096,8264,-25,-39,-8
7821.382,253,-528,14096,8264,-25,-39,-8
7824.378000000001,254,-528,14096,8264,-25,-39,-8
7828.416,251,-528,14096,8264,-25,-39,-8
7829.379,254,-528,14096,8264,-25,-39,-8
7832.388,252,-560,14056,8224,-37,-41,-24
7836.753,252,-560,14056,8224,-37,-41,-24
7837.378000000001,252,-560,14056,8224,-37,-41,-24
7840.748,255,-560,14056,8224,-37,-41,-24
7844.749,253,-560,14056,8224,-37,-41,-24
7845.75,252,-560,14056,8224,-37,-41,-24
7849.161999999999,254,-560,14056,8224,-37,-41,-24
7853.362,252,-520,14076,8232,-20,-62,-7
7853.985,252,-520,14076,8232,-20,-62,-7
7857.241,255,-520,14076,8232,-20,-62,-7
7861.237,256,-520,14076,8232,-20,-62,-7
7862.235,256,-520,14076,8232,-20,-62,-7
7865.646,256,-520,14076,8232,-20,-62,-7
7869.634,255,-520,14076,8232,-20,-62,-7
7870.237,257,-572,14104,8260,-18,-20,11
7873.992,257,-572,14104,8260,-18,-20,11
7878.015,259,-572,14104,8260,-18,-20,11
7878.015,262,-572,14104,8260,-18,-20,11
7882.0,264,-572,14104,8260,-18,-20,11
7886.423,265,-572,14104,8260,-18,-20,11
7887.435,266,-572,14104,8260,-18,-20,11
7890.436000000001,265,-524,14068,8224,-12,-43,-6
7894.439,268,-524,14068,8224,-12,-43,-6
7895.437,268,-524,14068,8224,-12,-43,-6
7898.435,272,-524,14068,8224,-12,-43,-6
7902.759,274,-524,14068,8224,-12,-43,-6
7903.437,274,-524,14068,8224,-12,-43,-6
7906.436000000001,277,-524,14068,8224,-12,-43,-6
7910.5,276,-524,14068,8224,-12,-43,-6
7914.436000000001,279,-532,14072,8252,-24,-65,-24
7915.434,281,-532,14072,8252,-24,-65,-24
7919.275,281,-532,14072,8252,-24,-65,-24
7923.022,283,-532,14072,8252,-24,-65,-24
7923.678,285,-532,14072,8252,-24,-65,-24
7926.675,285,-532,14072,8252,-24,-65,-24
7930.716,287,-532,14072,8252,-24,-65,-24
7931.674,286,-556,14072,8208,-57,-42,-16
7935.695,290,-556,14072,8208,-57,-42,-16
7939.293000000001,290,-556,14072,8208,-57,-42,-16
7939.958,289,-556,14072,8208,-57,-42,-16
7943.965,292,-556,14072,8208,-57,-42,-16
7946.968,291,-556,14072,8208,-57,-42,-16
7950.954000000001,294,-556,14072,8208,-57,-42,-16
7951.9529999999995,294,-480,14068,8236,-60,-44,-20
7955.649,296,-480,14068,8236,-60,-44,-20
7959.663,297,-480,14068,8236,-60,-44,-20
7960.6630000000005,298,-480,14068,8236,-60,-44,-20
7963.669999999999,300,-480,14068,8236,-60,-44,-20
7968.459,298,-480,14068,8236,-60,-44,-20
7968.459,299,-480,14068,8236,-60,-44,-20
7972.501,298,-524,14088,8280,-44,-50,-1
7976.459,300,-524,14088,8280,-44,-50,-1
7977.461,301,-524,14088,8280,-44,-50,-1
7980.468,301,-524,14088,8280,-44,-50,-1
7984.46,305,-524,14088,8280,-44,-50,-1
7985.457,304,-524,14088,8280,-44,-50,-1
7988.495999999999,304,-524,14088,8280,-44,-50,-1
7992.481,304,-548,14092,8204,33,-59,-4
7993.472,306,-548,14092,8204,33,-59,-4
7996.461,305,-548,14092,8204,33,-59,-4
8000.923999999999,306,-548,14092,8204,33,-59,-4
8000.923999999999,307,-548,14092,8204,33,-59,-4
8005.195000000001,308,-548,14092,8204,33,-59,-4
8008.932,308,-548,14092,8204,33,-59,-4
8009.926,308,-548,14092,8204,33,-59,-4
8012.929,308,-532,14060,8208,-35,-28,-8
8017.3550000000005,310,-532,14060,8208,-35,-28,-8
8017.718999999999,310,-532,14060,8208,-35,-28,-8
8021.122,309,-532,14060,8208,-35,-28,-8
8024.813999999999,311,-532,14060,8208,-35,-28,-8
8025.769,310,-532,14060,8208,-35,-28,-8
8029.7660000000005,307,-532,14060,8208,-35,-28,-8
8033.854,310,-484,14064,8256,-39,-56,-7
8034.765,310,-484,14064,8256,-39,-56,-7
8037.977,309,-484,14064,8256,-39,-56,-7
8041.816000000001,311,-484,14064,8256,-39,-56,-7
8042.784,309,-484,14064,8256,-39,-56,-7
8045.768000000001,311,-484,14064,8256,-39,-56,-7
8050.315,309,-484,14064,8256,-39,-56,-7
8050.615000000001,309,-496,14044,8212,-30,-58,-12
8053.630999999999,309,-496,14044,8212,-30,-58,-12
8057.631,310,-496,14044,8212,-30,-58,-12
8062.163,308,-496,14044,8212,-30,-58,-12
8062.163,309,-496,14044,8212,-30,-58,-12
8066.160999999999,310,-496,14044,8212,-30,-58,-12
8070.188999999999,308,-496,14044,8212,-30,-58,-12
8070.188999999999,309,-480,14144,8320,-48,-42,-9
8074.778,310,-480,14144,8320,-48,-42,-9
8077.781,307,-480,14144,8320,-48,-42,-9
8078.777000000001,311,-480,14144,8320,-48,-42,-9
8082.775,309,-480,14144,8320,-48,-42,-9
8086.777,310,-480,14144,8320,-48,-42,-9
8086.777,308,-480,14144,8320,-48,-42,-9
8090.7789999999995,307,-532,14060,8248,70,-32,-11
8094.776,306,-532,14060,8248,70,-32,-11
8095.774,306,-532,14060,8248,70,-32,-11
8098.775,309,-532,14060,8248,70,-32,-11
8102.776000000001,308,-532,14060,8248,70,-32,-11
8103.776999999999,310,-532,14060,8248,70,-32,-11
8107.595,308,-532,14060,8248,70,-32,-11
8110.644,308,-532,14060,8248,70,-32,-11
8111.594999999999,309,-504,14064,8260,-39,-38,-11
8115.5960000000005,308,-504,14064,8260,-39,-38,-11
8119.857,309,-504,14064,8260,-39,-38,-11
8120.594999999999,309,-504,14064,8260,-39,-38,-11
8123.592000000001,309,-504,14064,8260,-39,-38,-11
8127.6050000000005,311,-504,14064,8260,-39,-38,-11
8131.592,308,-504,14064,8260,-39,-38,-11
8131.592,309,-516,14068,8256,-79,-32,-14
8136.043000000001,311,-516,14068,8256,-79,-32,-14
8139.932999999999,311,-516,14068,8256,-79,-32,-14
8140.729,312,-516,14068,8256,-79,-32,-14
8143.725999999999,310,-516,14068,8256,-79,-32,-14
8147.764,312,-516,14068,8256,-79,-32,-14
8148.723999999999,311,-516,14068,8256,-79,-32,-14
8152.765,311,-524,14048,8272,-36,-40,-21
8156.216,311,-524,14048,8272,-36,-40,-21
8157.235,313,-524,14048,8272,-36,-40,-21
8160.234000000001,315,-524,14048,8272,-36,-40,-21
8164.235,313,-524,14048,8272,-36,-40,-21
8168.236,314,-524,14048,8272,-36,-40,-21
8169.235000000001,313,-524,14048,8272,-36,-40,-21
8173.234,312,-496,14072,8240,33,-38,-4
8176.248,314,-496,14072,8240,33,-38,-4
8177.2390000000005,313,-496,14072,8240,33,-38,-4
8181.236,316,-496,14072,8240,33,-38,-4
8181.236,316,-496,14072,8240,33,-38,-4
8185.235000000001,315,-496,14072,8240,33,-38,-4
8189.467000000001,316,-496,14072,8240,33,-38,-4
8190.483,315,-568,14084,8212,-4,-62,-2
8193.482,316,-568,14084,8212,-4,-62,-2
8197.489,316,-568,14084,8212,-4,-62,-2
8198.479000000001,315,-568,14084,8212,-4,-62,-2
8201.479000000001,317,-568,14084,8212,-4,-62,-2
8205.571000000002,316,-568,14084,8212,-4,-62,-2
8206.589,315,-568,14084,8212,-4,-62,-2
8209.596,316,-568,14084,8212,-4,-62,-2
8213.592,315,-568,14040,8216,-42,-26,-17
8214.591,316,-568,14040,8216,-42,-26,-17
8218.007,318,-568,14040,8216,-42,-26,-17
8221.961000000001,316,-568,14040,8216,-42,-26,-17
8222.390000000001,319,-568,14040,8216,-42,-26,-17
8226.408,317,-568,14040,8216,-42,-26,-17
8230.408000000001,316,-568,14040,8216,-42,-26,-17
8233.402999999998,317,-496,14040,8256,-38,-38,-25
8234.405,318,-496,14040,8256,-38,-38,-25
8238.403999999999,318,-496,14040,8256,-38,-38,-25
8242.403,319,-496,14040,8256,-38,-38,-25
8243.406,317,-496,14040,8256,-38,-38,-25
8246.461,319,-496,14040,8256,-38,-38,-25
8250.405999999999,317,-496,14040,8256,-38,-38,-25
8251.402,317,-528,14052,8200,3,-51,-25
8254.68,317,-528,14052,8200,3,-51,-25
8258.68,317,-528,14052,8200,3,-51,-25
8259.683,317,-528,14052,8200,3,-51,-25
8262.679,320,-528,14052,8200,3,-51,-25
8267.035,321,-528,14052,8200,3,-51,-25
8267.685,317,-528,14052,8200,3,-51,-25
8271.572,320,-528,14052,8200,3,-51,-25
8274.851999999999,320,-524,14072,8232,-9,-41,-10
8305.204,321,-524,14072,8232,-9,-41,-10
8306.203,322,-524,14072,8232,-9,-41,-10
8306.203,320,-524,14072,8232,-9,-41,-10
8307.205,322,-524,14072,8232,-9,-41,-10
8308.208999999999,320,-524,14072,8232,-9,-41,-10
8310.209,321,-524,14072,8232,-9,-41,-10
8311.208,321,-544,14132,8240,-54,-25,-12
8313.209,320,-544,14132,8240,-54,-25,-12
8314.209,323,-544,14132,8240,-54,-25,-12
8314.209,323,-544,14132,8240,-54,-25,-12
8315.206,323,-544,14132,8240,-54,-25,-12
8316.203,322,-544,14132,8240,-54,-25,-12
8316.203,323,-544,14132,8240,-54,-25,-12
8317.207,322,-520,14080,8228,-63,-63,-18
8318.925,324,-520,14080,8228,-63,-63,-18
8319.976,324,-520,14080,8228,-63,-63,-18
8320.936,323,-520,14080,8228,-63,-63,-18
8324.213,326,-520,14080,8228,-63,-63,-18
8328.239,323,-520,14080,8228,-63,-63,-18
8329.224,324,-520,14080,8228,-63,-63,-18
8332.22,324,-544,14092,8276,-41,-54,-21
8336.223,324,-544,14092,8276,-41,-54,-21
8337.221,325,-544,14092,8276,-41,-54,-21
8340.319,325,-544,14092,8276,-41,-54,-21
8344.381,327,-544,14092,8276,-41,-54,-21
8348.32,326,-544,14092,8276,-41,-54,-21
8349.318000000001,326,-544,14092,8276,-41,-54,-21
8352.760999999999,324,-508,14092,8224,8,-40,-12
8356.782000000001,324,-508,14092,8224,8,-40,-12
8357.78,325,-508,14092,8224,8,-40,-12
8360.779,326,-508,14092,8224,8,-40,-12
8361.776000000002,327,-508,14092,8224,8,-40,-12
8364.779999999999,327,-508,14092,8224,8,-40,-12
8369.268999999998,324,-508,14092,8224,8,-40,-12
8369.822,326,-508,14092,8224,8,-40,-12
8373.874,326,-560,14052,8268,-25,-70,-10
8376.877,327,-560,14052,8268,-25,-70,-10
8377.874,327,-560,14052,8268,-25,-70,-10
8381.874,327,-560,14052,8268,-25,-70,-10
8385.899,327,-560,14052,8268,-25,-70,-10
8389.35,326,-560,14052,8268,-25,-70,-10
8390.363000000001,327,-560,14052,8268,-25,-70,-10
8393.363000000001,325,-524,14104,8200,-56,-46,2
8397.364,326,-524,14104,8200,-56,-46,2
8398.366,327,-524,14104,8200,-56,-46,2
8402.362000000001,326,-524,14104,8200,-56,-46,2
8406.383,329,-524,14104,8200,-56,-46,2
8406.383,327,-524,14104,8200,-56,-46,2
8410.366,325,-524,14104,8200,-56,-46,2
8414.372,327,-524,14044,8256,-35,-41,-6
8415.367,328,-524,14044,8256,-35,-41,-6
8418.36,325,-524,14044,8256,-35,-41,-6
8422.362,330,-524,14044,8256,-35,-41,-6
8423.371,328,-524,14044,8256,-35,-41,-6
8426.368999999999,328,-524,14044,8256,-35,-41,-6
8430.368,328,-524,14044,8256,-35,-41,-6
8431.363,325,-532,14100,8244,12,-50,-10
8434.362000000001,326,-532,14100,8244,12,-50,-10
8438.33,325,-532,14100,8244,12,-50,-10
8439.328,327,-532,14100,8244,12,-50,-10
8443.336000000001,328,-532,14100,8244,12,-50,-10
8447.355,328,-532,14100,8244,12,-50,-10
8448.333999999999,326,-532,14100,8244,12,-50,-10
8451.328,325,-532,14100,8244,12,-50,-10
8455.328,327,-524,14024,8260,2,-37,2
8455.328,327,-524,14024,8260,2,-37,2
8459.339,326,-524,14024,8260,2,-37,2
8460.337000000001,328,-524,14024,8260,2,-37,2
8463.392,327,-524,14024,8260,2,-37,2
8467.333999999999,325,-524,14024,8260,2,-37,2
8468.330999999998,325,-524,14024,8260,2,-37,2
8471.33,326,-524,14024,8260,2,-37,2
8472.334,326,-516,14024,8236,-70,-54,-13
8476.349,326,-516,14024,8236,-70,-54,-13
8480.340999999999,327,-516,14024,8236,-70,-54,-13
8483.335000000001,324,-516,14024,8236,-70,-54,-13
8485.331,326,-516,14024,8236,-70,-54,-13
8488.332,324,-516,14024,8236,-70,-54,-13
8492.33,325,-516,14024,8236,-70,-54,-13
8492.33,323,-528,14096,8216,-55,-44,12
8496.39,324,-528,14096,8216,-55,-44,12
8500.330999999998,326,-528,14096,8216,-55,-44,12
8500.330999999998,326,-528,14096,8216,-55,-44,12
8504.369,327,-528,14096,8216,-55,-44,12
8508.335000000001,325,-528,14096,8216,-55,-44,12
8509.34,323,-528,14096,8216,-55,-44,12
8512.333,326,-564,14092,8176,-3,-33,4
8516.33,326,-564,14092,8176,-3,-33,4
8517.33,324,-564,14092,8176,-3,-33,4
8521.329,327,-564,14092,8176,-3,-33,4
8524.331999999999,326,-564,14092,8176,-3,-33,4
8525.331,325,-564,14092,8176,-3,-33,4
8529.332999999999,326,-564,14092,8176,-3,-33,4
8530.339,324,-564,14092,8176,-3,-33,4
8533.371000000001,324,-528,14040,8232,1,-37,-7
8537.331999999999,325,-528,14040,8232,1,-37,-7
8538.331,325,-528,14040,8232,1,-37,-7
8541.335000000001,325,-528,14040,8232,1,-37,-7
8545.371,326,-528,14040,8232,1,-37,-7
8546.336,326,-528,14040,8232,1,-37,-7
8549.344,324,-528,14040,8232,1,-37,-7
8550.33,325,-528,14040,8232,1,-37,-7
8553.366,326,-564,14044,8172,-10,-40,-1
8557.329,327,-564,14044,8172,-10,-40,-1
8558.33,326,-564,14044,8172,-10,-40,-1
8561.338,328,-564,14044,8172,-10,-40,-1
8565.332,324,-564,14044,8172,-10,-40,-1
8566.329,327,-564,14044,8172,-10,-40,-1
8570.28,325,-564,14044,8172,-10,-40,-1
8574.004,325,-540,14072,8244,-58,-47,-20
8578.005,325,-540,14072,8244,-58,-47,-20
8579.001999999999,327,-540,14072,8244,-58,-47,-20
8582.001999999999,327,-540,14072,8244,-58,-47,-20
8586.0,326,-540,14072,8244,-58,-47,-20
8587.001,326,-540,14072,8244,-58,-47,-20
8590.028999999999,325,-540,14072,8244,-58,-47,-20
8594.018,325,-524,14052,8300,-4,-44,0
8595.005000000001,326,-524,14052,8300,-4,-44,0
8599.001,326,-524,14052,8300,-4,-44,0
8602.263,327,-524,14052,8300,-4,-44,0
8603.275,326,-524,14052,8300,-4,-44,0
8606.315999999999,325,-524,14052,8300,-4,-44,0
8607.278,325,-524,14052,8300,-4,-44,0
8611.279,326,-524,14052,8300,-4,-44,0
8615.275,323,-540,14060,8216,-32,-47,-13
8615.275,325,-540,14060,8216,-32,-47,-13
8619.274000000001,324,-540,14060,8216,-32,-47,-13
8622.874,326,-540,14060,8216,-32,-47,-13
8626.977,326,-540,14060,8216,-32,-47,-13
8627.936,326,-540,14060,8216,-32,-47,-13
8630.94,326,-540,14060,8216,-32,-47,-13
8634.936,323,-520,14116,8212,-44,-46,-4
8635.935,326,-520,14116,8212,-44,-46,-4
8639.581,326,-520,14116,8212,-44,-46,-4
8643.528,329,-520,14116,8212,-44,-46,-4
8644.533,326,-520,14116,8212,-44,-46,-4
8648.523000000001,327,-520,14116,8212,-44,-46,-4
8651.523,327,-520,14116,8212,-44,-46,-4
8652.524,325,-508,14056,8236,-69,-44,-7
8655.521,326,-508,14056,8236,-69,-44,-7
8659.563,327,-508,14056,8236,-69,-44,-7
8661.523000000001,327,-508,14056,8236,-69,-44,-7
8664.533000000001,327,-508,14056,8236,-69,-44,-7
8668.523000000001,328,-508,14056,8236,-69,-44,-7
8668.523000000001,326,-508,14056,8236,-69,-44,-7
8672.523,325,-528,14092,8284,-29,-29,-29
8676.535,326,-528,14092,8284,-29,-29,-29
8677.526,327,-528,14092,8284,-29,-29,-29
8680.529,329,-528,14092,8284,-29,-29,-29
8684.521,326,-528,14092,8284,-29,-29,-29
8685.523,327,-528,14092,8284,-29,-29,-29
8688.685,327,-528,14092,8284,-29,-29,-29
8692.72,325,-544,14060,8316,-3,-32,-4
8693.701000000001,325,-544,14060,8316,-3,-32,-4
8696.699,324,-544,14060,8316,-3,-32,-4
8701.698,325,-544,14060,8316,-3,-32,-4
8702.697,327,-544,14060,8316,-3,-32,-4
8705.476,326,-544,14060,8316,-3,-32,-4
8709.005,323,-544,14060,8316,-3,-32,-4
8710.96,324,-544,14060,8316,-3,-32,-4
8712.960000000001,324,-536,14072,8252,-32,-37,-7
8716.960000000001,322,-536,14072,8252,-32,-37,-7
8717.955999999998,325,-536,14072,8252,-32,-37,-7
8721.958,323,-536,14072,8252,-32,-37,-7
8725.963,324,-536,14072,8252,-32,-37,-7
8726.969000000001,322,-536,14072,8252,-32,-37,-7
8729.960000000001,322,-536,14072,8252,-32,-37,-7
8733.96,319,-552,14048,8260,-59,-42,-3
8733.96,322,-552,14048,8260,-59,-42,-3
8737.909,322,-552,14048,8260,-59,-42,-3
8741.922,321,-552,14048,8260,-59,-42,-3
8742.938,322,-552,14048,8260,-59,-42,-3
8745.920999999998,323,-552,14048,8260,-59,-42,-3
8749.92,319,-552,14048,8260,-59,-42,-3
8750.923,321,-552,14048,8260,-59,-42,-3
8754.457,319,-528,14100,8288,-10,-50,-13
8758.471,319,-528,14100,8288,-10,-50,-13
8762.469,321,-528,14100,8288,-10,-50,-13
8762.469,323,-528,14100,8288,-10,-50,-13
8766.47,321,-528,14100,8288,-10,-50,-13
8770.854,320,-528,14100,8288,-10,-50,-13
8771.274,318,-528,14100,8288,-10,-50,-13
8775.289,321,-500,14056,8184,8,-45,-17
8778.335000000001,320,-500,14056,8184,8,-45,-17
8779.289,319,-500,14056,8184,8,-45,-17
8783.286,320,-500,14056,8184,8,-45,-17
8787.068,321,-500,14056,8184,8,-45,-17
8788.067,318,-500,14056,8184,8,-45,-17
8791.068,317,-500,14056,8184,8,-45,-17
8795.070000000002,320,-512,14072,8216,-62,-41,-11
8796.071,320,-512,14072,8216,-62,-41,-11
8799.07,320,-512,14072,8216,-62,-41,-11
8803.065999999999,318,-512,14072,8216,-62,-41,-11
8804.069,319,-512,14072,8216,-62,-41,-11
8807.627999999999,319,-512,14072,8216,-62,-41,-11
8811.636999999999,318,-512,14072,8216,-62,-41,-11
8812.628999999999,318,-496,14140,8232,-8,-31,-11
8815.626,318,-496,14140,8232,-8,-31,-11
8819.631,319,-496,14140,8232,-8,-31,-11
8820.627999999999,318,-496,14140,8232,-8,-31,-11
8823.629,319,-496,14140,8232,-8,-31,-11
8827.635,318,-496,14140,8232,-8,-31,-11
8828.628999999999,317,-496,14140,8232,-8,-31,-11
8832.627,319,-504,14116,8224,15,-50,-31
8836.162,318,-504,14116,8224,15,-50,-31
8837.169,319,-504,14116,8224,15,-50,-31
8840.550000000001,320,-504,14116,8224,15,-50,-31
8844.091,320,-504,14116,8224,15,-50,-31
8845.083,319,-504,14116,8224,15,-50,-31
8848.121000000001,319,-504,14116,8224,15,-50,-31
8852.081999999999,317,-504,14116,8224,15,-50,-31
8856.419,318,-528,14036,8180,-41,-66,-12
8857.429,319,-528,14036,8180,-41,-66,-12
8860.44,320,-528,14036,8180,-41,-66,-12
8864.432,321,-528,14036,8180,-41,-66,-12
8865.428,319,-528,14036,8180,-41,-66,-12
8869.142,318,-528,14036,8180,-41,-66,-12
8873.341999999999,320,-528,14036,8180,-41,-66,-12
8873.341999999999,317,-560,14076,8256,-91,-50,21
8877.353,319,-560,14076,8256,-91,-50,21
8881.342,317,-560,14076,8256,-91,-50,21
8881.342,318,-560,14076,8256,-91,-50,21
8885.351,318,-560,14076,8256,-91,-50,21
8889.060000000001,316,-560,14076,8256,-91,-50,21
8890.078000000001,316,-560,14076,8256,-91,-50,21
8894.079,316,-532,14040,8276,-20,-34,-13
8898.073,314,-532,14040,8276,-20,-34,-13
8898.073,315,-532,14040,8276,-20,-34,-13
8902.075,313,-532,14040,8276,-20,-34,-13
8906.022,314,-532,14040,8276,-20,-34,-13
8910.043,313,-532,14040,8276,-20,-34,-13
8911.047999999999,311,-532,14040,8276,-20,-34,-13
8914.04,311,-540,14120,8216,-12,-47,-26
8918.653,310,-540,14120,8216,-12,-47,-26
8918.894999999999,311,-540,14120,8216,-12,-47,-26
8922.258,312,-540,14120,8216,-12,-47,-26
8926.909,312,-540,14120,8216,-12,-47,-26
8926.909,309,-540,14120,8216,-12,-47,-26
8930.913999999999,310,-540,14120,8216,-12,-47,-26
8934.996,309,-552,14092,8204,-27,-52,0
8935.481,308,-552,14092,8204,-27,-52,0
8938.235,310,-552,14092,8204,-27,-52,0
8942.311,309,-552,14092,8204,-27,-52,0
8943.301,310,-552,14092,8204,-27,-52,0
8947.248,308,-552,14092,8204,-27,-52,0
8950.618,305,-552,14092,8204,-27,-52,0
8951.248,306,-552,14092,8204,-27,-52,0
8955.481000000002,306,-524,14124,8260,-73,-30,-16
8959.356,307,-524,14124,8260,-73,-30,-16
8960.356000000002,308,-524,14124,8260,-73,-30,-16
8963.348,307,-524,14124,8260,-73,-30,-16
8967.717,306,-524,14124,8260,-73,-30,-16
8968.332999999999,304,-524,14124,8260,-73,-30,-16
8971.698,306,-524,14124,8260,-73,-30,-16
8975.367,303,-560,14064,8264,-21,-45,0
8976.335000000001,305,-560,14064,8264,-21,-45,0
8979.331,306,-560,14064,8264,-21,-45,0
8984.135999999999,304,-560,14064,8264,-21,-45,0
8984.63,306,-560,14064,8264,-21,-45,0
8987.913,304,-560,14064,8264,-21,-45,0
8991.667,302,-560,14064,8264,-21,-45,0
8992.667000000001,303,-540,13988,8196,18,-35,-1
8995.667,303,-540,13988,8196,18,-35,-1
9000.015,304,-540,13988,8196,18,-35,-1
9000.664999999999,304,-540,13988,8196,18,-35,-1
9003.711,303,-540,13988,8196,18,-35,-1
9007.714,303,-540,13988,8196,18,-35,-1
9008.715,302,-540,13988,8196,18,-35,-1
9012.715,300,-540,13988,8196,18,-35,-1
9016.524000000001,303,-500,14044,8292,-24,-23,-18
9017.575,304,-500,14044,8292,-24,-23,-18
9020.535,304,-500,14044,8292,-24,-23,-18
9024.544,304,-500,14044,8292,-24,-23,-18
9025.537999999999,301,-500,14044,8292,-24,-23,-18
9029.539,303,-500,14044,8292,-24,-23,-18
9032.574999999999,300,-500,14044,8292,-24,-23,-18
9033.538999999999,302,-536,14044,8204,190,-58,-17
9037.571,301,-536,14044,8204,190,-58,-17
9040.653,304,-536,14044,8204,190,-58,-17
9044.658,303,-536,14044,8204,190,-58,-17
9045.648,304,-536,14044,8204,190,-58,-17
9049.019,302,-536,14044,8204,190,-58,-17
9053.646999999999,303,-536,14044,8204,190,-58,-17
9053.646999999999,301,-520,14056,8136,-116,-47,2
9057.648000000001,304,-520,14056,8136,-116,-47,2
9061.651,305,-520,14056,8136,-116,-47,2
9061.651,303,-520,14056,8136,-116,-47,2
9066.031,305,-520,14056,8136,-116,-47,2
9069.657,303,-520,14056,8136,-116,-47,2
9070.669,303,-520,14056,8136,-116,-47,2
9073.67,301,-552,14096,8244,-151,-57,-4
9077.673,304,-552,14096,8244,-151,-57,-4
9078.669,303,-552,14096,8244,-151,-57,-4
9081.673999999999,303,-552,14096,8244,-151,-57,-4
9085.706,305,-552,14096,8244,-151,-57,-4
9089.723,303,-552,14096,8244,-151,-57,-4
9090.666000000001,305,-552,14096,8244,-151,-57,-4
9094.668,304,-500,14100,8216,30,-36,-3
9097.735,306,-500,14100,8216,30,-36,-3
9098.668,307,-500,14100,8216,30,-36,-3
9102.665,305,-500,14100,8216,30,-36,-3
9102.665,305,-500,14100,8216,30,-36,-3
9106.667,306,-500,14100,8216,30,-36,-3
9110.669,306,-500,14100,8216,30,-36,-3
9111.67,305,-500,14100,8216,30,-36,-3
9114.668,305,-532,14048,8124,114,-45,-3
9118.67,308,-532,14048,8124,114,-45,-3
9119.669,306,-532,14048,8124,114,-45,-3
9122.671,306,-532,14048,8124,114,-45,-3
9126.669,308,-532,14048,8124,114,-45,-3
9127.671,306,-532,14048,8124,114,-45,-3
9131.679999999998,305,-532,14048,8124,114,-45,-3
9135.673999999999,308,-496,14056,8128,-112,-22,-11
9139.686,308,-496,14056,8128,-112,-22,-11
9140.672999999999,309,-496,14056,8128,-112,-22,-11
9143.67,309,-496,14056,8128,-112,-22,-11
9147.671,309,-496,14056,8128,-112,-22,-11
9148.679,309,-496,14056,8128,-112,-22,-11
9151.667,308,-496,14056,8128,-112,-22,-11
9155.668,309,-472,14168,8260,-86,-47,-8
9156.670999999998,307,-472,14168,8260,-86,-47,-8
9159.721,309,-472,14168,8260,-86,-47,-8
9163.667,310,-472,14168,8260,-86,-47,-8
9164.67,311,-472,14168,8260,-86,-47,-8
9168.672,309,-472,14168,8260,-86,-47,-8
9171.67,308,-472,14168,8260,-86,-47,-8
9172.669000000002,308,-496,14068,8228,18,-30,5
9176.669,310,-496,14068,8228,18,-30,5
9179.669,309,-496,14068,8228,18,-30,5
9180.668000000001,311,-496,14068,8228,18,-30,5
9184.669,311,-496,14068,8228,18,-30,5
9188.859,310,-496,14068,8228,18,-30,5
9189.088,308,-496,14068,8228,18,-30,5
9192.099,308,-496,14068,8228,18,-30,5
9196.101,310,-508,14072,8236,-17,-58,-6
9197.101999999999,311,-508,14072,8236,-17,-58,-6
9200.364,312,-508,14072,8236,-17,-58,-6
9204.639000000001,313,-508,14072,8236,-17,-58,-6
9205.381,312,-508,14072,8236,-17,-58,-6
9208.471,312,-508,14072,8236,-17,-58,-6
9212.38,312,-508,14072,8236,-17,-58,-6
9213.376999999999,312,-536,14068,8256,-73,-54,-11
9217.437,314,-536,14068,8256,-73,-54,-11
9221.672,315,-536,14068,8256,-73,-54,-11
9222.564,314,-536,14068,8256,-73,-54,-11
9225.567,315,-536,14068,8256,-73,-54,-11
9229.564,314,-536,14068,8256,-73,-54,-11
9230.563,314,-536,14068,8256,-73,-54,-11
9233.561,313,-544,14036,8260,-39,-32,-13
9238.082999999999,315,-544,14036,8260,-39,-32,-13
9241.444,316,-544,14036,8260,-39,-32,-13
9242.449,315,-544,14036,8260,-39,-32,-13
9245.438999999998,317,-544,14036,8260,-39,-32,-13
9249.439,314,-544,14036,8260,-39,-32,-13
9251.440999999999,315,-544,14036,8260,-39,-32,-13
9254.461,316,-552,14068,8288,26,-44,4
9258.042,317,-552,14068,8288,26,-44,4
9259.055,316,-552,14068,8288,26,-44,4
9262.038999999999,317,-552,14068,8288,26,-44,4
9263.038,315,-552,14068,8288,26,-44,4
9266.04,317,-552,14068,8288,26,-44,4
9270.047,315,-552,14068,8288,26,-44,4
9272.042000000001,315,-552,14068,8288,26,-44,4
9275.047,317,-544,14068,8248,-13,-47,-6
9278.04,317,-544,14068,8248,-13,-47,-6
9279.038999999999,318,-544,14068,8248,-13,-47,-6
9283.039999999999,319,-544,14068,8248,-13,-47,-6
9287.039999999999,316,-544,14068,8248,-13,-47,-6
9287.039999999999,318,-544,14068,8248,-13,-47,-6
9291.044,316,-544,14068,8248,-13,-47,-6
9295.038,315,-476,14104,8252,58,-24,-6
9295.038,318,-476,14104,8252,58,-24,-6
9298.802,318,-476,14104,8252,58,-24,-6
9303.819000000001,319,-476,14104,8252,58,-24,-6
9303.819000000001,319,-476,14104,8252,58,-24,-6
9306.815,317,-476,14104,8252,58,-24,-6
9310.819,317,-476,14104,8252,58,-24,-6
9311.818000000001,317,-476,14104,8252,58,-24,-6
9315.814,318,-496,14048,8148,-72,-45,-27
9319.855,319,-496,14048,8148,-72,-45,-27
9320.815,320,-496,14048,8148,-72,-45,-27
9323.824,321,-496,14048,8148,-72,-45,-27
9327.851,319,-496,14048,8148,-72,-45,-27
9328.817000000001,318,-496,14048,8148,-72,-45,-27
