Time (ms),EMG,AccX,AccY,AccZ,GyroX,GyroY,GyroZ
1549.485,0,0,0,0,0,0,0
1549.485,306,0,0,0,0,0,0
1549.485,306,0,0,0,0,0,0
1549.485,306,0,0,0,0,0,0
1549.485,307,0,0,0,0,0,0
1549.485,307,0,0,0,0,0,0
1557.9879999999998,306,0,0,0,0,0,0
1559.268,306,0,0,0,0,0,0
1559.268,306,0,0,0,0,0,0
1559.268,307,0,0,0,0,0,0
1559.268,306,0,0,0,0,0,0
1566.078,305,0,0,0,0,0,0
1566.078,306,0,0,0,0,0,0
1566.078,306,0,0,0,0,0,0
1566.078,306,0,0,0,0,0,0
1566.078,306,0,0,0,0,0,0
1566.078,306,0,0,0,0,0,0
1574.317,306,0,0,0,0,0,0
1574.317,306,-184,16280,-2232,31,-40,-7
1574.317,307,-184,16280,-2232,31,-40,-7
1583.235,306,-184,16280,-2232,31,-40,-7
1584.523,307,-184,16280,-2232,31,-40,-7
1584.523,306,-184,16280,-2232,31,-40,-7
1590.676,305,-184,16280,-2232,31,-40,-7
1590.676,306,-184,16280,-2232,31,-40,-7
1590.676,306,-184,16280,-2232,31,-40,-7
1599.051,306,-212,16344,-2272,-89,-28,-14
1602.845,306,-212,16344,-2272,-89,-28,-14
1602.845,306,-212,16344,-2272,-89,-28,-14
1607.489,306,-212,16344,-2272,-89,-28,-14
1611.5349999999999,305,-212,16344,-2272,-89,-28,-14
1612.605,306,-212,16344,-2272,-89,-28,-14
1616.523,306,-192,16348,-2252,-47,-28,-13
1618.615,306,-192,16348,-2252,-47,-28,-13
1618.615,306,-192,16348,-2252,-47,-28,-13
1624.483,305,-192,16348,-2252,-47,-28,-13
1624.483,305,-192,16348,-2252,-47,-28,-13
1632.056,305,-192,16348,-2252,-47,-28,-13
1633.02,305,-192,16348,-2252,-47,-28,-13
1635.926,306,-164,16356,-2280,12,-29,-16
1640.0729999999999,306,-164,16356,-2280,12,-29,-16
1640.0729999999999,306,-164,16356,-2280,12,-29,-16
1644.013,305,-164,16356,-2280,12,-29,-16
1648.383,305,-164,16356,-2280,12,-29,-16
1649.3990000000001,306,-164,16356,-2280,12,-29,-16
1649.3990000000001,306,-164,16356,-2280,12,-29,-16
1656.4589999999998,306,-188,16320,-2276,-30,-41,-22
1656.4589999999998,306,-188,16320,-2276,-30,-41,-22
1656.4589999999998,306,-188,16320,-2276,-30,-41,-22
1664.5520000000001,306,-188,16320,-2276,-30,-41,-22
1665.939,306,-188,16320,-2276,-30,-41,-22
1672.882,306,-188,16320,-2276,-30,-41,-22
1672.882,306,-188,16320,-2276,-30,-41,-22
1672.882,306,-216,16308,-2248,-52,-36,-8
1681.2659999999998,306,-216,16308,-2248,-52,-36,-8
1683.105,307,-216,16308,-2248,-52,-36,-8
1683.105,306,-216,16308,-2248,-52,-36,-8
1689.377,305,-216,16308,-2248,-52,-36,-8
1689.377,306,-216,16308,-2248,-52,-36,-8
1693.8899999999999,306,-216,16308,-2248,-52,-36,-8
1697.263,307,-208,16340,-2240,-27,-29,-12
1701.263,306,-208,16340,-2240,-27,-29,-12
1701.263,306,-208,16340,-2240,-27,-29,-12
1705.4560000000001,306,-208,16340,-2240,-27,-29,-12
1705.4560000000001,306,-208,16340,-2240,-27,-29,-12
1705.4560000000001,305,-208,16340,-2240,-27,-29,-12
1713.9470000000001,306,-208,16340,-2240,-27,-29,-12
1716.4379999999999,307,-172,16324,-2296,-51,-28,-12
1721.59,306,-172,16324,-2296,-51,-28,-12
1721.59,307,-172,16324,-2296,-51,-28,-12
1721.59,306,-172,16324,-2296,-51,-28,-12
1730.097,306,-172,16324,-2296,-51,-28,-12
1730.097,306,-172,16324,-2296,-51,-28,-12
1732.108,306,-172,16324,-2296,-51,-28,-12
1738.251,306,-200,16260,-2252,-81,-32,-5
1739.103,307,-200,16260,-2252,-81,-32,-5
1739.103,308,-200,16260,-2252,-81,-32,-5
1746.3690000000001,306,-200,16260,-2252,-81,-32,-5
1750.699,306,-200,16260,-2252,-81,-32,-5
1751.241,306,-200,16260,-2252,-81,-32,-5
1754.503,306,-200,16260,-2252,-81,-32,-5
1754.503,306,-188,16368,-2232,-5,-21,-17
1759.153,307,-188,16368,-2232,-5,-21,-17
1763.1190000000001,306,-188,16368,-2232,-5,-21,-17
1766.412,306,-188,16368,-2232,-5,-21,-17
1768.6139999999998,306,-188,16368,-2232,-5,-21,-17
1771.173,306,-188,16368,-2232,-5,-21,-17
1775.8339999999998,305,-188,16368,-2232,-5,-21,-17
1775.8339999999998,306,-248,16332,-2292,-19,-45,4
1779.116,306,-248,16332,-2292,-19,-45,4
1783.7369999999999,306,-248,16332,-2292,-19,-45,4
1786.7269999999999,306,-248,16332,-2292,-19,-45,4
1786.7269999999999,305,-248,16332,-2292,-19,-45,4
1791.051,305,-248,16332,-2292,-19,-45,4
1794.818,305,-248,16332,-2292,-19,-45,4
1794.818,307,-200,16324,-2276,-96,-41,-16
1799.686,307,-200,16324,-2276,-96,-41,-16
1802.8319999999999,306,-200,16324,-2276,-96,-41,-16
1802.8319999999999,306,-200,16324,-2276,-96,-41,-16
1802.8319999999999,306,-200,16324,-2276,-96,-41,-16
1811.245,305,-200,16324,-2276,-96,-41,-16
1816.201,306,-200,16324,-2276,-96,-41,-16
1816.201,306,-236,16360,-2252,-12,-47,-10
1819.614,305,-236,16360,-2252,-12,-47,-10
1824.17,306,-236,16360,-2252,-12,-47,-10
1825.163,306,-236,16360,-2252,-12,-47,-10
1827.956,306,-236,16360,-2252,-12,-47,-10
1829.969,305,-236,16360,-2252,-12,-47,-10
1835.517,305,-236,16360,-2252,-12,-47,-10
1835.517,306,-224,16360,-2276,2,-45,-29
1835.517,306,-224,16360,-2276,2,-45,-29
1843.757,306,-224,16360,-2276,2,-45,-29
1843.757,306,-224,16360,-2276,2,-45,-29
1849.38,305,-224,16360,-2276,2,-45,-29
1852.663,305,-224,16360,-2276,2,-45,-29
1852.663,306,-224,16360,-2276,2,-45,-29
1852.663,306,-152,16300,-2292,-90,-39,-3
1860.4019999999998,306,-152,16300,-2292,-90,-39,-3
1860.4019999999998,305,-152,16300,-2292,-90,-39,-3
1863.9589999999998,306,-152,16300,-2292,-90,-39,-3
1868.52,305,-152,16300,-2292,-90,-39,-3
1868.52,306,-152,16300,-2292,-90,-39,-3
1868.52,305,-152,16300,-2292,-90,-39,-3
1876.6529999999998,305,-208,16312,-2260,-74,-38,-6
1876.6529999999998,306,-208,16312,-2260,-74,-38,-6
1879.667,306,-208,16312,-2260,-74,-38,-6
1884.9309999999998,306,-208,16312,-2260,-74,-38,-6
1888.2939999999999,305,-208,16312,-2260,-74,-38,-6
1888.2939999999999,305,-208,16312,-2260,-74,-38,-6
1893.1290000000001,305,-208,16312,-2260,-74,-38,-6
1893.1290000000001,305,-192,16372,-2264,29,-27,-6
1899.988,307,-192,16372,-2264,29,-27,-6
1901.5610000000001,306,-192,16372,-2264,29,-27,-6
1901.5610000000001,306,-192,16372,-2264,29,-27,-6
1901.5610000000001,306,-192,16372,-2264,29,-27,-6
1910.028,306,-192,16372,-2264,29,-27,-6
1910.028,306,-192,16372,-2264,29,-27,-6
1915.433,306,-192,16372,-2264,29,-27,-6
1919.992,306,-236,16284,-2292,-101,-45,-8
1921.67,307,-236,16284,-2292,-101,-45,-8
1924.952,307,-236,16284,-2292,-101,-45,-8
1926.6589999999999,306,-236,16284,-2292,-101,-45,-8
1931.0700000000002,305,-236,16284,-2292,-101,-45,-8
1934.231,305,-236,16284,-2292,-101,-45,-8
1936.249,306,-236,16284,-2292,-101,-45,-8
1938.066,306,-176,16356,-2260,-39,-32,-1
1942.626,307,-176,16356,-2260,-39,-32,-1
1942.626,307,-176,16356,-2260,-39,-32,-1
1946.6490000000001,306,-176,16356,-2260,-39,-32,-1
1951.7640000000001,306,-176,16356,-2260,-39,-32,-1
1952.6950000000002,306,-176,16356,-2260,-39,-32,-1
1955.813,306,-176,16356,-2260,-39,-32,-1
1959.411,306,-208,16340,-2216,-30,-26,-4
1963.5240000000001,307,-208,16340,-2216,-30,-26,-4
1965.769,307,-208,16340,-2216,-30,-26,-4
1968.3690000000001,306,-208,16340,-2216,-30,-26,-4
1969.9279999999999,306,-208,16340,-2216,-30,-26,-4
1969.9279999999999,306,-208,16340,-2216,-30,-26,-4
1976.079,306,-208,16340,-2216,-30,-26,-4
1979.955,306,-188,16332,-2304,-57,-35,-12
1979.955,306,-188,16332,-2304,-57,-35,-12
1983.744,306,-188,16332,-2304,-57,-35,-12
1985.5620000000001,306,-188,16332,-2304,-57,-35,-12
1991.756,306,-188,16332,-2304,-57,-35,-12
1993.072,306,-188,16332,-2304,-57,-35,-12
1993.072,306,-188,16332,-2304,-57,-35,-12
2000.1090000000002,307,-188,16328,-2272,-23,-28,-3
2000.1090000000002,307,-188,16328,-2272,-23,-28,-3
2000.1090000000002,307,-188,16328,-2272,-23,-28,-3
2008.321,306,-188,16328,-2272,-23,-28,-3
2008.321,306,-188,16328,-2272,-23,-28,-3
2008.321,306,-188,16328,-2272,-23,-28,-3
2017.2500000000002,306,-188,16328,-2272,-23,-28,-3
2018.4899999999998,307,-204,16336,-2272,-23,-25,-7
2018.4899999999998,307,-204,16336,-2272,-23,-25,-7
2024.534,307,-204,16336,-2272,-23,-25,-7
2024.534,307,-204,16336,-2272,-23,-25,-7
2024.534,306,-204,16336,-2272,-23,-25,-7
2033.22,306,-204,16336,-2272,-23,-25,-7
2033.22,306,-204,16336,-2272,-23,-25,-7
2033.22,307,-236,16348,-2244,-73,-60,-20
2041.194,307,-236,16348,-2244,-73,-60,-20
2045.2180000000003,307,-236,16348,-2244,-73,-60,-20
2049.736,307,-236,16348,-2244,-73,-60,-20
2049.736,306,-236,16348,-2244,-73,-60,-20
2049.736,306,-236,16348,-2244,-73,-60,-20
2057.782,307,-236,16348,-2244,-73,-60,-20
2059.38,308,-196,16304,-2252,-18,-38,-13
2059.38,307,-196,16304,-2252,-18,-38,-13
2065.9390000000003,307,-196,16304,-2252,-18,-38,-13
2067.955,307,-196,16304,-2252,-18,-38,-13
2067.955,306,-196,16304,-2252,-18,-38,-13
2074.118,307,-196,16304,-2252,-18,-38,-13
2074.118,307,-180,16328,-2272,5,-45,-9
2074.118,308,-180,16328,-2272,5,-45,-9
2082.4790000000003,307,-180,16328,-2272,5,-45,-9
2084.497,307,-180,16328,-2272,5,-45,-9
2084.497,308,-180,16328,-2272,5,-45,-9
2090.766,307,-180,16328,-2272,5,-45,-9
2092.332,307,-180,16328,-2272,5,-45,-9
2092.332,307,-180,16328,-2272,5,-45,-9
2099.215,307,-176,16356,-2296,-84,-47,2
2099.826,307,-176,16356,-2296,-84,-47,2
2104.293,308,-176,16356,-2296,-84,-47,2
2107.477,308,-176,16356,-2296,-84,-47,2
2107.986,307,-176,16356,-2296,-84,-47,2
2107.986,307,-176,16356,-2296,-84,-47,2
2115.59,307,-176,16356,-2296,-84,-47,2
2119.313,307,-164,16332,-2296,-46,-35,-15
2121.3269999999998,308,-164,16332,-2296,-46,-35,-15
2123.868,308,-164,16332,-2296,-46,-35,-15
2125.8810000000003,307,-164,16332,-2296,-46,-35,-15
2129.902,308,-164,16332,-2296,-46,-35,-15
2133.318,307,-164,16332,-2296,-46,-35,-15
2133.318,308,-164,16332,-2296,-46,-35,-15
2138.531,308,-180,16284,-2292,4,-24,-6
2140.266,308,-180,16284,-2292,4,-24,-6
2140.266,308,-180,16284,-2292,4,-24,-6
2146.569,308,-180,16284,-2292,4,-24,-6
2148.324,308,-180,16284,-2292,4,-24,-6
2149.7549999999997,307,-180,16284,-2292,4,-24,-6
2153.188,307,-180,16284,-2292,4,-24,-6
2156.574,307,-208,16388,-2264,-66,-39,-20
2156.574,308,-208,16388,-2264,-66,-39,-20
2156.574,308,-208,16388,-2264,-66,-39,-20
2166.633,308,-208,16388,-2264,-66,-39,-20
2166.633,307,-208,16388,-2264,-66,-39,-20
2173.053,308,-208,16388,-2264,-66,-39,-20
2174.4629999999997,308,-208,16388,-2264,-66,-39,-20
2174.4629999999997,308,-200,16276,-2268,-29,-23,4
2181.226,308,-200,16276,-2268,-29,-23,4
2184.5919999999996,308,-200,16276,-2268,-29,-23,4
2185.804,308,-200,16276,-2268,-29,-23,4
2188.618,308,-200,16276,-2268,-29,-23,4
2189.629,308,-200,16276,-2268,-29,-23,4
2189.629,308,-200,16276,-2268,-29,-23,4
2189.629,308,-200,16276,-2268,-29,-23,4
2199.685,309,-172,16296,-2296,-22,-27,-6
2199.685,309,-172,16296,-2296,-22,-27,-6
2203.5640000000003,308,-172,16296,-2296,-22,-27,-6
2205.964,308,-172,16296,-2296,-22,-27,-6
2205.964,308,-172,16296,-2296,-22,-27,-6
2205.964,309,-172,16296,-2296,-22,-27,-6
2216.1209999999996,308,-172,16296,-2296,-22,-27,-6
2218.137,309,-156,16324,-2300,-65,-26,1
2222.313,308,-156,16324,-2300,-65,-26,1
2222.313,309,-156,16324,-2300,-65,-26,1
2222.313,308,-156,16324,-2300,-65,-26,1
2227.9339999999997,308,-156,16324,-2300,-65,-26,1
2234.1389999999997,308,-156,16324,-2300,-65,-26,1
2234.1389999999997,308,-156,16324,-2300,-65,-26,1
2238.467,309,-188,16312,-2296,-46,-30,-22
2238.467,309,-188,16312,-2296,-46,-30,-22
2238.467,308,-188,16312,-2296,-46,-30,-22
2246.693,307,-188,16312,-2296,-46,-30,-22
2249.739,307,-188,16312,-2296,-46,-30,-22
2253.922,309,-188,16312,-2296,-46,-30,-22
2254.9320000000002,308,-188,16312,-2296,-46,-30,-22
2254.9320000000002,308,-228,16272,-2240,-5,-26,-10
2254.9320000000002,308,-228,16272,-2240,-5,-26,-10
2263.203,308,-228,16272,-2240,-5,-26,-10
2267.9,308,-228,16272,-2240,-5,-26,-10
2267.9,307,-228,16272,-2240,-5,-26,-10
2273.542,307,-228,16272,-2240,-5,-26,-10
2276.162,307,-228,16272,-2240,-5,-26,-10
2277.359,307,-212,16356,-2284,-61,-40,-6
2280.045,308,-212,16356,-2284,-61,-40,-6
2284.086,308,-212,16356,-2284,-61,-40,-6
2284.086,307,-212,16356,-2284,-61,-40,-6
2288.107,307,-212,16356,-2284,-61,-40,-6
2288.107,307,-212,16356,-2284,-61,-40,-6
2288.107,308,-212,16356,-2284,-61,-40,-6
2298.822,308,-204,16272,-2296,-56,-42,-18
2303.233,308,-204,16272,-2296,-56,-42,-18
2304.2400000000002,307,-204,16272,-2296,-56,-42,-18
2304.2400000000002,307,-204,16272,-2296,-56,-42,-18
2304.2400000000002,308,-204,16272,-2296,-56,-42,-18
2312.392,308,-204,16272,-2296,-56,-42,-18
2315.2,308,-204,16272,-2296,-56,-42,-18
2319.228,307,-216,16344,-2288,17,-42,-9
2322.75,309,-216,16344,-2288,17,-42,-9
2324.762,308,-216,16344,-2288,17,-42,-9
2326.774,307,-216,16344,-2288,17,-42,-9
2330.794,307,-216,16344,-2288,17,-42,-9
2332.804,307,-216,16344,-2288,17,-42,-9
2334.861,307,-216,16344,-2288,17,-42,-9
2338.884,308,-160,16328,-2296,-18,-31,3
2340.8920000000003,308,-160,16328,-2296,-18,-31,3
2342.898,308,-160,16328,-2296,-18,-31,3
2346.915,308,-160,16328,-2296,-18,-31,3
2348.922,308,-160,16328,-2296,-18,-31,3
2352.95,307,-160,16328,-2296,-18,-31,3
2354.958,308,-160,16328,-2296,-18,-31,3
2356.965,308,-176,16316,-2292,-116,-38,1
2360.98,308,-176,16316,-2292,-116,-38,1
2362.9889999999996,308,-176,16316,-2292,-116,-38,1
2366.093,308,-176,16316,-2292,-116,-38,1
2369.185,308,-176,16316,-2292,-116,-38,1
2371.529,307,-176,16316,-2292,-116,-38,1
2373.535,308,-176,16316,-2292,-116,-38,1
2377.038,308,-228,16340,-2228,-31,-20,-11
2377.038,308,-228,16340,-2228,-31,-20,-11
2385.097,309,-228,16340,-2228,-31,-20,-11
2385.097,308,-228,16340,-2228,-31,-20,-11
2385.097,308,-228,16340,-2228,-31,-20,-11
2393.54,308,-228,16340,-2228,-31,-20,-11
2393.54,308,-228,16340,-2228,-31,-20,-11
2398.015,308,-204,16388,-2288,35,-31,-21
2401.6890000000003,308,-204,16388,-2288,35,-31,-21
2401.6890000000003,308,-204,16388,-2288,35,-31,-21
2401.6890000000003,308,-204,16388,-2288,35,-31,-21
2409.821,308,-204,16388,-2288,35,-31,-21
2409.821,308,-204,16388,-2288,35,-31,-21
2409.821,308,-204,16388,-2288,35,-31,-21
2418.545,308,-200,16372,-2288,-88,-45,-18
2418.545,308,-200,16372,-2288,-88,-45,-18
2418.545,309,-200,16372,-2288,-88,-45,-18
2426.949,308,-200,16372,-2288,-88,-45,-18
2426.949,307,-200,16372,-2288,-88,-45,-18
2433.845,308,-200,16372,-2288,-88,-45,-18
2436.861,308,-200,16372,-2288,-88,-45,-18
2436.861,309,-220,16292,-2276,-70,-38,-9
2440.9770000000003,309,-220,16292,-2276,-70,-38,-9
2444.374,308,-220,16292,-2276,-70,-38,-9
2444.891,308,-220,16292,-2276,-70,-38,-9
2450.286,308,-220,16292,-2276,-70,-38,-9
2451.88,308,-220,16292,-2276,-70,-38,-9
2451.88,309,-220,16292,-2276,-70,-38,-9
2451.88,308,-188,16344,-2264,68,-36,-1
2460.103,309,-188,16344,-2264,68,-36,-1
2460.103,309,-188,16344,-2264,68,-36,-1
2466.994,308,-188,16344,-2264,68,-36,-1
2468.5800000000004,309,-188,16344,-2264,68,-36,-1
2468.5800000000004,308,-188,16344,-2264,68,-36,-1
2468.5800000000004,308,-188,16344,-2264,68,-36,-1
2476.6119999999996,308,-192,16412,-2332,-32,-24,-4
2476.6119999999996,308,-192,16412,-2332,-32,-24,-4
2483.66,309,-192,16412,-2332,-32,-24,-4
2484.788,308,-192,16412,-2332,-32,-24,-4
2484.788,308,-192,16412,-2332,-32,-24,-4
2492.84,307,-192,16412,-2332,-32,-24,-4
2492.84,308,-192,16412,-2332,-32,-24,-4
2492.84,309,-192,16412,-2332,-32,-24,-4
2501.203,308,-208,16368,-2240,-109,-36,-14
2503.0130000000004,308,-208,16368,-2240,-109,-36,-14
2506.991,308,-208,16368,-2240,-109,-36,-14
2509.423,308,-208,16368,-2240,-109,-36,-14
2509.423,307,-208,16368,-2240,-109,-36,-14
2509.423,308,-208,16368,-2240,-109,-36,-14
2518.4069999999997,309,-168,16448,-2196,33,-30,-20
2518.4069999999997,309,-168,16448,-2196,33,-30,-20
2518.4069999999997,309,-168,16448,-2196,33,-30,-20
2525.807,308,-168,16448,-2196,33,-30,-20
2525.807,309,-168,16448,-2196,33,-30,-20
2525.807,307,-168,16448,-2196,33,-30,-20
2533.929,308,-168,16448,-2196,33,-30,-20
2533.929,309,-184,16344,-2304,-3,-17,-18
2533.929,309,-184,16344,-2304,-3,-17,-18
2542.007,308,-184,16344,-2304,-3,-17,-18
2542.007,309,-184,16344,-2304,-3,-17,-18
2550.201,307,-184,16344,-2304,-3,-17,-18
2551.148,308,-184,16344,-2304,-3,-17,-18
2551.148,308,-184,16344,-2304,-3,-17,-18
2558.254,309,-212,16280,-2288,-130,-38,-11
2561.44,308,-212,16280,-2288,-130,-38,-11
2566.592,309,-212,16280,-2288,-130,-38,-11
2567.386,309,-212,16280,-2288,-130,-38,-11
2567.386,308,-212,16280,-2288,-130,-38,-11
2567.386,308,-212,16280,-2288,-130,-38,-11
2578.06,308,-212,16280,-2288,-130,-38,-11
2578.752,309,-188,16356,-2236,2,-61,-20
2583.815,308,-188,16356,-2236,2,-61,-20
2583.815,308,-188,16356,-2236,2,-61,-20
2583.815,308,-188,16356,-2236,2,-61,-20
2583.815,308,-188,16356,-2236,2,-61,-20
2591.1659999999997,308,-188,16356,-2236,2,-61,-20
2591.1659999999997,308,-188,16356,-2236,2,-61,-20
2599.5620000000004,309,-168,16332,-2280,13,-22,-16
2599.5620000000004,309,-168,16332,-2280,13,-22,-16
2599.5620000000004,309,-168,16332,-2280,13,-22,-16
2599.5620000000004,308,-168,16332,-2280,13,-22,-16
2607.792,308,-168,16332,-2280,13,-22,-16
2607.792,308,-168,16332,-2280,13,-22,-16
2616.008,307,-168,16332,-2280,13,-22,-16
2616.008,309,-208,16336,-2280,-92,-32,-15
2616.008,309,-208,16336,-2280,-92,-32,-15
2624.1850000000004,308,-208,16336,-2280,-92,-32,-15
2624.1850000000004,308,-208,16336,-2280,-92,-32,-15
2624.1850000000004,308,-208,16336,-2280,-92,-32,-15
2635.3979999999997,308,-208,16336,-2280,-92,-32,-15
2636.007,308,-208,16336,-2280,-92,-32,-15
2639.2380000000003,309,-200,16316,-2224,-28,-14,-13
2641.0,308,-200,16316,-2224,-28,-14,-13
2641.0,309,-200,16316,-2224,-28,-14,-13
2641.0,308,-200,16316,-2224,-28,-14,-13
2650.836,308,-200,16316,-2224,-28,-14,-13
2653.1440000000002,308,-200,16316,-2224,-28,-14,-13
2653.1440000000002,308,-200,16316,-2224,-28,-14,-13
2657.373,308,-196,16304,-2272,11,-50,0
2657.373,309,-196,16304,-2272,11,-50,0
2665.57,309,-196,16304,-2272,11,-50,0
2666.738,308,-196,16304,-2272,11,-50,0
2672.096,308,-196,16304,-2272,11,-50,0
2673.647,307,-196,16304,-2272,11,-50,0
2676.373,308,-196,16304,-2272,11,-50,0
2680.495,308,-192,16376,-2328,-75,-27,-19
2682.043,309,-192,16376,-2328,-75,-27,-19
2682.043,308,-192,16376,-2328,-75,-27,-19
2682.043,308,-192,16376,-2328,-75,-27,-19
2690.099,307,-192,16376,-2328,-75,-27,-19
2690.099,307,-192,16376,-2328,-75,-27,-19
2690.099,308,-192,16376,-2328,-75,-27,-19
2700.087,308,-208,16328,-2208,-62,-48,-3
2700.087,308,-208,16328,-2208,-62,-48,-3
2700.087,308,-208,16328,-2208,-62,-48,-3
2706.569,308,-208,16328,-2208,-62,-48,-3
2706.569,307,-208,16328,-2208,-62,-48,-3
2706.569,307,-208,16328,-2208,-62,-48,-3
2717.165,307,-208,16328,-2208,-62,-48,-3
2717.165,308,-188,16356,-2260,-8,-40,-23
2717.165,308,-188,16356,-2260,-8,-40,-23
2723.042,308,-188,16356,-2260,-8,-40,-23
2723.042,308,-188,16356,-2260,-8,-40,-23
2723.042,308,-188,16356,-2260,-8,-40,-23
2733.668,307,-188,16356,-2260,-8,-40,-23
2733.668,308,-188,16356,-2260,-8,-40,-23
2739.612,308,-200,16356,-2312,-47,-32,-13
2739.612,309,-200,16356,-2312,-47,-32,-13
2739.612,308,-200,16356,-2312,-47,-32,-13
2747.833,308,-200,16356,-2312,-47,-32,-13
2750.149,308,-200,16356,-2312,-47,-32,-13
2752.737,307,-200,16356,-2312,-47,-32,-13
2757.424,308,-200,16356,-2312,-47,-32,-13
2758.335,308,-224,16368,-2284,-33,-25,-2
2761.5989999999997,308,-224,16368,-2284,-33,-25,-2
2765.622,308,-224,16368,-2284,-33,-25,-2
2768.174,307,-224,16368,-2284,-33,-25,-2
2771.2799999999997,308,-224,16368,-2284,-33,-25,-2
2774.192,308,-224,16368,-2284,-33,-25,-2
2776.4,308,-224,16368,-2284,-33,-25,-2
2778.175,308,-220,16332,-2240,-28,-41,-23
2782.281,308,-220,16332,-2240,-28,-41,-23
2786.6499999999996,308,-220,16332,-2240,-28,-41,-23
2788.163,308,-220,16332,-2240,-28,-41,-23
2788.163,307,-220,16332,-2240,-28,-41,-23
2788.163,308,-220,16332,-2240,-28,-41,-23
2796.232,309,-220,16332,-2240,-28,-41,-23
2800.161,308,-252,16364,-2228,-71,-27,-15
2802.038,308,-252,16364,-2228,-71,-27,-15
2804.486,308,-252,16364,-2228,-71,-27,-15
2804.486,307,-252,16364,-2228,-71,-27,-15
2804.486,308,-252,16364,-2228,-71,-27,-15
2812.56,307,-252,16364,-2228,-71,-27,-15
2817.058,307,-252,16364,-2228,-71,-27,-15
2820.183,308,-196,16372,-2260,-15,-27,-16
2823.659,308,-196,16372,-2260,-15,-27,-16
2823.659,307,-196,16372,-2260,-15,-27,-16
2828.375,307,-196,16372,-2260,-15,-27,-16
2828.375,308,-196,16372,-2260,-15,-27,-16
2833.669,308,-196,16372,-2260,-15,-27,-16
2836.628,308,-196,16372,-2260,-15,-27,-16
2836.628,308,-224,16348,-2304,-22,-27,-12
2836.628,308,-224,16348,-2304,-22,-27,-12
2844.8869999999997,307,-224,16348,-2304,-22,-27,-12
2850.044,307,-224,16348,-2304,-22,-27,-12
2853.031,307,-224,16348,-2304,-22,-27,-12
2853.031,307,-224,16348,-2304,-22,-27,-12
2853.031,307,-224,16348,-2304,-22,-27,-12
2861.344,308,-148,16328,-2260,-76,-29,-10
2862.904,308,-148,16328,-2260,-76,-29,-10
2862.904,308,-148,16328,-2260,-76,-29,-10
2869.387,307,-148,16328,-2260,-76,-29,-10
2872.826,308,-148,16328,-2260,-76,-29,-10
2872.826,308,-148,16328,-2260,-76,-29,-10
2877.438,307,-148,16328,-2260,-76,-29,-10
2877.438,308,-212,16312,-2264,-14,-30,2
2877.438,308,-212,16312,-2264,-14,-30,2
2887.845,307,-212,16312,-2264,-14,-30,2
2887.845,307,-212,16312,-2264,-14,-30,2
2887.845,307,-212,16312,-2264,-14,-30,2
2894.286,308,-212,16312,-2264,-14,-30,2
2894.286,307,-212,16312,-2264,-14,-30,2
2899.656,308,-216,16324,-2288,-28,-23,-17
2902.61,308,-216,16324,-2288,-28,-23,-17
2902.61,307,-216,16324,-2288,-28,-23,-17
2902.61,308,-216,16324,-2288,-28,-23,-17
2913.915,307,-216,16324,-2288,-28,-23,-17
2913.915,307,-216,16324,-2288,-28,-23,-17
2916.881,307,-216,16324,-2288,-28,-23,-17
2920.472,308,-156,16356,-2264,-82,-22,-4
2920.472,307,-156,16356,-2264,-82,-22,-4
2920.472,308,-156,16356,-2264,-82,-22,-4
2927.25,307,-156,16356,-2264,-82,-22,-4
2932.778,307,-156,16356,-2264,-82,-22,-4
2935.564,307,-156,16356,-2264,-82,-22,-4
2935.564,308,-156,16356,-2264,-82,-22,-4
2935.564,307,-220,16364,-2292,-18,-37,-4
2943.944,308,-220,16364,-2292,-18,-37,-4
2943.944,308,-220,16364,-2292,-18,-37,-4
2950.2160000000003,307,-220,16364,-2292,-18,-37,-4
2953.212,307,-220,16364,-2292,-18,-37,-4
2953.212,307,-220,16364,-2292,-18,-37,-4
2957.2639999999997,308,-220,16364,-2292,-18,-37,-4
2961.291,308,-240,16332,-2300,-14,-44,-9
2963.5009999999997,307,-240,16332,-2300,-14,-44,-9
2963.5009999999997,308,-240,16332,-2300,-14,-44,-9
2970.8869999999997,307,-240,16332,-2300,-14,-44,-9
2972.525,307,-240,16332,-2300,-14,-44,-9
2975.6809999999996,307,-240,16332,-2300,-14,-44,-9
2978.624,307,-240,16332,-2300,-14,-44,-9
2980.6349999999998,308,-200,16332,-2252,-78,-41,-10
2980.6349999999998,307,-200,16332,-2252,-78,-41,-10
2985.59,307,-200,16332,-2252,-78,-41,-10
2985.59,307,-200,16332,-2252,-78,-41,-10
2985.59,307,-200,16332,-2252,-78,-41,-10
2993.811,307,-200,16332,-2252,-78,-41,-10
2993.811,307,-200,16332,-2252,-78,-41,-10
3002.256,308,-156,16308,-2248,-62,-32,5
3002.256,308,-156,16308,-2248,-62,-32,5
3002.256,308,-156,16308,-2248,-62,-32,5
3010.319,307,-156,16308,-2248,-62,-32,5
3010.319,307,-156,16308,-2248,-62,-32,5
3010.319,307,-156,16308,-2248,-62,-32,5
3018.3759999999997,307,-156,16308,-2248,-62,-32,5
3018.3759999999997,308,-188,16332,-2276,24,-42,-6
3022.155,307,-188,16332,-2276,24,-42,-6
3026.449,307,-188,16332,-2276,24,-42,-6
3026.449,308,-188,16332,-2276,24,-42,-6
3026.449,307,-188,16332,-2276,24,-42,-6
3035.16,307,-188,16332,-2276,24,-42,-6
3036.8469999999998,308,-188,16332,-2276,24,-42,-6
3036.8469999999998,307,-220,16328,-2308,-56,-44,-14
3043.282,308,-220,16328,-2308,-56,-44,-14
3043.282,308,-220,16328,-2308,-56,-44,-14
3050.138,308,-220,16328,-2308,-56,-44,-14
3051.538,308,-220,16328,-2308,-56,-44,-14
3051.538,307,-220,16328,-2308,-56,-44,-14
3051.538,307,-220,16328,-2308,-56,-44,-14
3059.958,308,-152,16360,-2272,-48,-25,-6
3059.958,308,-152,16360,-2272,-48,-25,-6
3059.958,307,-152,16360,-2272,-48,-25,-6
3068.1980000000003,307,-152,16360,-2272,-48,-25,-6
3068.1980000000003,307,-152,16360,-2272,-48,-25,-6
3068.1980000000003,308,-152,16360,-2272,-48,-25,-6
3076.217,307,-152,16360,-2272,-48,-25,-6
3076.217,308,-176,16356,-2264,-35,-37,4
3083.802,308,-176,16356,-2264,-35,-37,4
3083.802,308,-176,16356,-2264,-35,-37,4
3083.802,307,-176,16356,-2264,-35,-37,4
3092.075,307,-176,16356,-2264,-35,-37,4
3092.075,307,-176,16356,-2264,-35,-37,4
3092.075,307,-176,16356,-2264,-35,-37,4
3100.344,307,-172,16344,-2276,-3,-27,-6
3100.344,308,-172,16344,-2276,-3,-27,-6
3100.344,307,-172,16344,-2276,-3,-27,-6
3108.496,308,-172,16344,-2276,-3,-27,-6
3108.496,307,-172,16344,-2276,-3,-27,-6
3108.496,306,-172,16344,-2276,-3,-27,-6
3117.074,307,-172,16344,-2276,-3,-27,-6
3119.1040000000003,308,-172,16344,-2276,-3,-27,-6
3122.811,308,-192,16392,-2260,-44,-29,-18
3124.859,307,-192,16392,-2260,-44,-29,-18
3124.859,307,-192,16392,-2260,-44,-29,-18
3124.859,308,-192,16392,-2260,-44,-29,-18
3133.044,307,-192,16392,-2260,-44,-29,-18
3133.044,307,-192,16392,-2260,-44,-29,-18
3133.044,307,-192,16392,-2260,-44,-29,-18
3141.066,307,-152,16372,-2248,-39,-38,-22
3141.066,307,-152,16372,-2248,-39,-38,-22
3141.066,307,-152,16372,-2248,-39,-38,-22
3150.1440000000002,307,-152,16372,-2248,-39,-38,-22
3152.16,307,-152,16372,-2248,-39,-38,-22
3157.235,307,-152,16372,-2248,-39,-38,-22
3157.235,308,-232,16324,-2256,-15,-49,-19
3157.235,308,-232,16324,-2256,-15,-49,-19
3165.2960000000003,308,-232,16324,-2256,-15,-49,-19
3165.2960000000003,307,-232,16324,-2256,-15,-49,-19
3165.2960000000003,307,-232,16324,-2256,-15,-49,-19
3175.022,307,-232,16324,-2256,-15,-49,-19
3175.022,307,-232,16324,-2256,-15,-49,-19
3175.022,308,-224,16356,-2280,-62,-28,-17
3183.891,307,-224,16356,-2280,-62,-28,-17
3183.891,308,-224,16356,-2280,-62,-28,-17
3183.891,307,-224,16356,-2280,-62,-28,-17
3191.4790000000003,307,-224,16356,-2280,-62,-28,-17
3191.4790000000003,307,-224,16356,-2280,-62,-28,-17
3198.1769999999997,307,-224,16356,-2280,-62,-28,-17
3198.1769999999997,307,-232,16276,-2228,-41,-58,-5
3198.1769999999997,307,-232,16276,-2228,-41,-58,-5
3206.223,308,-232,16276,-2228,-41,-58,-5
3206.223,307,-232,16276,-2228,-41,-58,-5
3206.223,307,-232,16276,-2228,-41,-58,-5
3214.271,307,-232,16276,-2228,-41,-58,-5
3216.657,308,-232,16276,-2228,-41,-58,-5
3216.657,307,-172,16408,-2256,23,-28,1
3222.3639999999996,307,-172,16408,-2256,23,-28,1
3224.2329999999997,308,-172,16408,-2256,23,-28,1
3224.2329999999997,308,-172,16408,-2256,23,-28,1
3230.458,307,-172,16408,-2256,23,-28,1
3233.145,307,-172,16408,-2256,23,-28,1
3233.145,307,-172,16408,-2256,23,-28,1
3238.6949999999997,308,-172,16408,-2256,23,-28,1
3238.6949999999997,308,-188,16396,-2328,-56,-47,-24
3238.6949999999997,308,-188,16396,-2328,-56,-47,-24
3246.9739999999997,308,-188,16396,-2328,-56,-47,-24
3250.27,308,-188,16396,-2328,-56,-47,-24
3250.27,307,-188,16396,-2328,-56,-47,-24
3255.099,308,-188,16396,-2328,-56,-47,-24
3255.099,308,-188,16396,-2328,-56,-47,-24
3255.099,307,-204,16368,-2268,-66,-35,-10
3263.254,308,-204,16368,-2268,-66,-35,-10
3268.11,307,-204,16368,-2268,-66,-35,-10
3271.312,308,-204,16368,-2268,-66,-35,-10
3274.2140000000004,308,-204,16368,-2268,-66,-35,-10
3274.2140000000004,308,-204,16368,-2268,-66,-35,-10
3279.849,308,-196,16328,-2256,10,-54,-11
3279.849,308,-196,16328,-2256,10,-54,-11
3284.241,308,-196,16328,-2256,10,-54,-11
3287.9230000000002,308,-196,16328,-2256,10,-54,-11
3290.486,308,-196,16328,-2256,10,-54,-11
3290.486,307,-196,16328,-2256,10,-54,-11
3296.387,308,-196,16328,-2256,10,-54,-11
3299.769,309,-196,16328,-2256,10,-54,-11
3301.9280000000003,308,-180,16368,-2320,-44,-45,4
3304.471,308,-180,16368,-2320,-44,-45,4
3304.471,308,-180,16368,-2320,-44,-45,4
3304.471,308,-180,16368,-2320,-44,-45,4
3314.5150000000003,308,-180,16368,-2320,-44,-45,4
3316.738,308,-180,16368,-2320,-44,-45,4
3316.738,307,-180,16368,-2320,-44,-45,4
3323.384,308,-156,16348,-2284,-110,-32,0
3323.384,309,-156,16348,-2284,-110,-32,0
3323.384,308,-156,16348,-2284,-110,-32,0
3331.52,307,-156,16348,-2284,-110,-32,0
3333.8779999999997,307,-156,16348,-2284,-110,-32,0
3337.2799999999997,308,-156,16348,-2284,-110,-32,0
3339.9939999999997,307,-156,16348,-2284,-110,-32,0
3339.9939999999997,308,-188,16380,-2292,18,-30,-11
3339.9939999999997,308,-188,16380,-2292,18,-30,-11
3345.7490000000003,308,-188,16380,-2292,18,-30,-11
3350.33,308,-188,16380,-2292,18,-30,-11
3350.33,307,-188,16380,-2292,18,-30,-11
3357.06,307,-188,16380,-2292,18,-30,-11
3357.06,307,-188,16380,-2292,18,-30,-11
3357.06,308,-184,16312,-2276,-55,-46,-17
3362.133,308,-184,16312,-2276,-55,-46,-17
3367.735,308,-184,16312,-2276,-55,-46,-17
3369.894,308,-184,16312,-2276,-55,-46,-17
3371.212,308,-184,16312,-2276,-55,-46,-17
3371.212,308,-184,16312,-2276,-55,-46,-17
3380.678,307,-184,16312,-2276,-55,-46,-17
3382.6800000000003,308,-196,16380,-2296,-81,-23,-32
3385.372,307,-196,16380,-2296,-81,-23,-32
3389.088,307,-196,16380,-2296,-81,-23,-32
3389.585,307,-196,16380,-2296,-81,-23,-32
3394.7470000000003,307,-196,16380,-2296,-81,-23,-32
3397.261,308,-196,16380,-2296,-81,-23,-32
3399.451,308,-196,16380,-2296,-81,-23,-32
3403.035,307,-200,16336,-2272,-6,-31,-23
3403.035,308,-200,16336,-2272,-6,-31,-23
3403.035,307,-200,16336,-2272,-6,-31,-23
3403.035,307,-200,16336,-2272,-6,-31,-23
3411.4770000000003,307,-200,16336,-2272,-6,-31,-23
3416.1389999999997,307,-200,16336,-2272,-6,-31,-23
3416.1389999999997,308,-200,16336,-2272,-6,-31,-23
3421.81,307,-264,16352,-2312,-20,-58,-24
3424.748,308,-264,16352,-2312,-20,-58,-24
3428.186,307,-264,16352,-2312,-20,-58,-24
3428.186,308,-264,16352,-2312,-20,-58,-24
3434.1,307,-264,16352,-2312,-20,-58,-24
3438.208,308,-264,16352,-2312,-20,-58,-24
3438.208,308,-264,16352,-2312,-20,-58,-24
3438.208,308,-176,16328,-2256,-71,-45,-22
3444.504,308,-176,16328,-2256,-71,-45,-22
3450.261,307,-176,16328,-2256,-71,-45,-22
3452.562,307,-176,16328,-2256,-71,-45,-22
3452.562,307,-176,16328,-2256,-71,-45,-22
3452.562,307,-176,16328,-2256,-71,-45,-22
3452.562,308,-196,16312,-2252,-53,-44,6
3460.79,307,-196,16312,-2252,-53,-44,6
3466.867,307,-196,16312,-2252,-53,-44,6
3466.867,308,-196,16312,-2252,-53,-44,6
3469.681,308,-196,16312,-2252,-53,-44,6
3474.989,307,-196,16312,-2252,-53,-44,6
3476.262,307,-196,16312,-2252,-53,-44,6
3479.241,308,-196,16312,-2252,-53,-44,6
3483.347,308,-196,16332,-2332,6,-34,-5
3485.1459999999997,308,-196,16332,-2332,6,-34,-5
3487.167,307,-196,16332,-2332,6,-34,-5
3487.167,307,-196,16332,-2332,6,-34,-5
3487.167,307,-196,16332,-2332,6,-34,-5
3493.368,308,-196,16332,-2332,6,-34,-5
3499.691,308,-196,16332,-2332,6,-34,-5
3501.4539999999997,308,-192,16332,-2268,-84,-31,-13
3501.4539999999997,308,-192,16332,-2268,-84,-31,-13
3501.4539999999997,307,-192,16332,-2268,-84,-31,-13
3511.755,308,-192,16332,-2268,-84,-31,-13
3511.755,307,-192,16332,-2268,-84,-31,-13
3516.324,307,-192,16332,-2268,-84,-31,-13
3518.0820000000003,307,-192,16332,-2268,-84,-31,-13
3518.0820000000003,308,-168,16348,-2244,-13,-33,-18
3518.0820000000003,308,-168,16348,-2244,-13,-33,-18
3528.218,307,-168,16348,-2244,-13,-33,-18
3529.058,307,-168,16348,-2244,-13,-33,-18
3534.503,308,-168,16348,-2244,-13,-33,-18
3534.503,307,-168,16348,-2244,-13,-33,-18
3534.503,307,-168,16348,-2244,-13,-33,-18
3534.503,308,-172,16408,-2292,0,-26,-2
3542.568,307,-172,16408,-2292,0,-26,-2
3542.568,307,-172,16408,-2292,0,-26,-2
3550.41,307,-172,16408,-2292,0,-26,-2
3550.41,307,-172,16408,-2292,0,-26,-2
3550.41,307,-172,16408,-2292,0,-26,-2
3558.659,307,-172,16408,-2292,0,-26,-2
3560.674,308,-192,16324,-2280,-84,-43,-13
3565.2129999999997,308,-192,16324,-2280,-84,-43,-13
3567.069,308,-192,16324,-2280,-84,-43,-13
3567.069,308,-192,16324,-2280,-84,-43,-13
3573.388,307,-192,16324,-2280,-84,-43,-13
3573.906,307,-192,16324,-2280,-84,-43,-13
3573.906,307,-192,16324,-2280,-84,-43,-13
3573.906,308,-160,16360,-2292,-43,-42,-9
3583.439,307,-160,16360,-2292,-43,-42,-9
3583.439,307,-160,16360,-2292,-43,-42,-9
3583.439,307,-160,16360,-2292,-43,-42,-9
3590.51,308,-160,16360,-2292,-43,-42,-9
3590.51,307,-160,16360,-2292,-43,-42,-9
3590.51,308,-160,16360,-2292,-43,-42,-9
3598.745,308,-168,16340,-2280,19,-56,-24
3598.745,307,-168,16340,-2280,19,-56,-24
3606.886,307,-168,16340,-2280,19,-56,-24
3606.886,308,-168,16340,-2280,19,-56,-24
3606.886,307,-168,16340,-2280,19,-56,-24
3615.291,307,-168,16340,-2280,19,-56,-24
3617.308,307,-168,16340,-2280,19,-56,-24
3617.308,308,-236,16344,-2260,-75,-23,5
3623.7889999999998,308,-236,16344,-2260,-75,-23,5
3623.7889999999998,308,-236,16344,-2260,-75,-23,5
3623.7889999999998,308,-236,16344,-2260,-75,-23,5
3632.784,307,-236,16344,-2260,-75,-23,5
3633.607,307,-236,16344,-2260,-75,-23,5
3633.607,307,-236,16344,-2260,-75,-23,5
3640.458,307,-236,16344,-2260,-75,-23,5
3642.8219999999997,307,-196,16360,-2240,-42,-16,10
3647.372,307,-196,16360,-2240,-42,-16,10
3649.516,307,-196,16360,-2240,-42,-16,10
3650.546,307,-196,16360,-2240,-42,-16,10
3652.401,307,-196,16360,-2240,-42,-16,10
3659.372,307,-196,16360,-2240,-42,-16,10
3659.761,307,-196,16360,-2240,-42,-16,10
3659.761,308,-188,16348,-2316,43,-39,-9
3666.807,308,-188,16348,-2316,43,-39,-9
3666.807,308,-188,16348,-2316,43,-39,-9
3666.807,307,-188,16348,-2316,43,-39,-9
3675.564,307,-188,16348,-2316,43,-39,-9
3676.297,307,-188,16348,-2316,43,-39,-9
3676.297,307,-188,16348,-2316,43,-39,-9
3683.916,307,-180,16348,-2296,-83,-41,-18
3683.916,308,-180,16348,-2296,-83,-41,-18
3683.916,307,-180,16348,-2296,-83,-41,-18
3689.615,308,-180,16348,-2296,-83,-41,-18
3689.615,308,-180,16348,-2296,-83,-41,-18
3697.718,307,-180,16348,-2296,-83,-41,-18
3699.9840000000004,307,-180,16348,-2296,-83,-41,-18
3702.086,308,-212,16308,-2244,-69,-18,-11
3705.744,307,-212,16308,-2244,-69,-18,-11
3708.291,308,-212,16308,-2244,-69,-18,-11
3708.291,307,-212,16308,-2244,-69,-18,-11
3716.322,307,-212,16308,-2244,-69,-18,-11
3716.322,308,-212,16308,-2244,-69,-18,-11
3716.322,307,-212,16308,-2244,-69,-18,-11
3724.437,308,-224,16356,-2304,32,-55,-10
3724.437,308,-224,16356,-2304,32,-55,-10
3724.437,307,-224,16356,-2304,32,-55,-10
3733.409,307,-224,16356,-2304,32,-55,-10
3733.409,307,-224,16356,-2304,32,-55,-10
3733.409,308,-224,16356,-2304,32,-55,-10
3739.765,308,-224,16356,-2304,32,-55,-10
3739.765,308,-200,16392,-2296,-77,-32,-18
3739.765,307,-200,16392,-2296,-77,-32,-18
3747.0690000000004,307,-200,16392,-2296,-77,-32,-18
3750.851,307,-200,16392,-2296,-77,-32,-18
3750.851,307,-200,16392,-2296,-77,-32,-18
3755.9049999999997,308,-200,16392,-2296,-77,-32,-18
3755.9049999999997,307,-200,16392,-2296,-77,-32,-18
3763.411,307,-216,16284,-2220,-96,-31,-23
3766.617,307,-216,16284,-2220,-96,-31,-23
3769.791,306,-216,16284,-2220,-96,-31,-23
3771.67,307,-216,16284,-2220,-96,-31,-23
3771.67,307,-216,16284,-2220,-96,-31,-23
3771.67,307,-216,16284,-2220,-96,-31,-23
3779.694,307,-212,16364,-2224,11,-23,-14
3783.861,307,-212,16364,-2224,11,-23,-14
3783.861,308,-212,16364,-2224,11,-23,-14
3787.916,307,-212,16364,-2224,11,-23,-14
3787.916,307,-212,16364,-2224,11,-23,-14
3795.9939999999997,307,-212,16364,-2224,11,-23,-14
3799.4539999999997,307,-212,16364,-2224,11,-23,-14
3799.4539999999997,307,-184,16372,-2288,-26,-40,-21
3799.4539999999997,307,-184,16372,-2288,-26,-40,-21
3804.147,308,-184,16372,-2288,-26,-40,-21
3804.147,308,-184,16372,-2288,-26,-40,-21
3812.2129999999997,307,-184,16372,-2288,-26,-40,-21
3812.2129999999997,307,-184,16372,-2288,-26,-40,-21
3812.2129999999997,308,-184,16372,-2288,-26,-40,-21
3823.054,307,-148,16284,-2268,-96,-36,-10
3823.054,308,-148,16284,-2268,-96,-36,-10
3827.119,308,-148,16284,-2268,-96,-36,-10
3829.941,307,-148,16284,-2268,-96,-36,-10
3835.172,307,-148,16284,-2268,-96,-36,-10
3835.172,308,-148,16284,-2268,-96,-36,-10
3837.189,308,-148,16284,-2268,-96,-36,-10
3837.189,308,-200,16360,-2216,22,-35,-10
3837.189,308,-200,16360,-2216,22,-35,-10
3845.556,307,-200,16360,-2216,22,-35,-10
3850.827,308,-200,16360,-2216,22,-35,-10
3850.827,308,-200,16360,-2216,22,-35,-10
3855.8210000000004,307,-200,16360,-2216,22,-35,-10
3855.8210000000004,308,-200,16360,-2216,22,-35,-10
3861.472,308,-220,16336,-2308,-14,-40,-14
3861.472,308,-220,16336,-2308,-14,-40,-14
3867.254,308,-220,16336,-2308,-14,-40,-14
3872.178,307,-220,16336,-2308,-14,-40,-14
3873.17,307,-220,16336,-2308,-14,-40,-14
3873.17,308,-220,16336,-2308,-14,-40,-14
3880.532,308,-220,16336,-2308,-14,-40,-14
3883.366,308,-180,16332,-2320,-115,-24,-10
3883.366,308,-180,16332,-2320,-115,-24,-10
3888.652,307,-180,16332,-2320,-115,-24,-10
3892.7000000000003,308,-180,16332,-2320,-115,-24,-10
3896.848,307,-180,16332,-2320,-115,-24,-10
3899.458,307,-180,16332,-2320,-115,-24,-10
3902.38,308,-180,16332,-2320,-115,-24,-10
3904.958,308,-236,16292,-2256,0,-39,0
3904.958,307,-236,16292,-2256,0,-39,0
3904.958,308,-236,16292,-2256,0,-39,0
3904.958,308,-236,16292,-2256,0,-39,0
3913.37,307,-236,16292,-2256,0,-39,0
3916.458,308,-236,16292,-2256,0,-39,0
3916.458,308,-236,16292,-2256,0,-39,0
3921.446,308,-176,16360,-2240,18,-31,-14
3921.446,308,-176,16360,-2240,18,-31,-14
3921.446,307,-176,16360,-2240,18,-31,-14
3929.629,307,-176,16360,-2240,18,-31,-14
3933.404,308,-176,16360,-2240,18,-31,-14
3933.404,307,-176,16360,-2240,18,-31,-14
3938.0769999999998,308,-176,16360,-2240,18,-31,-14
3938.0769999999998,309,-184,16304,-2276,-106,-46,7
3946.1710000000003,308,-184,16304,-2276,-106,-46,7
3946.1710000000003,308,-184,16304,-2276,-106,-46,7
3949.852,308,-184,16304,-2276,-106,-46,7
3954.0829999999996,307,-184,16304,-2276,-106,-46,7
3954.0829999999996,307,-184,16304,-2276,-106,-46,7
3954.0829999999996,308,-184,16304,-2276,-106,-46,7
3962.367,308,-196,16260,-2260,-73,-29,-12
3966.3599999999997,308,-196,16260,-2260,-73,-29,-12
3968.549,308,-196,16260,-2260,-73,-29,-12
3970.752,307,-196,16260,-2260,-73,-29,-12
3974.3810000000003,307,-196,16260,-2260,-73,-29,-12
3974.3810000000003,308,-196,16260,-2260,-73,-29,-12
3979.096,308,-196,16260,-2260,-73,-29,-12
3982.965,308,-184,16344,-2300,30,-37,-22
3984.3030000000003,308,-184,16344,-2300,30,-37,-22
3988.0719999999997,308,-184,16344,-2300,30,-37,-22
3988.58,308,-184,16344,-2300,30,-37,-22
3994.406,307,-184,16344,-2300,30,-37,-22
3995.416,307,-184,16344,-2300,30,-37,-22
3999.438,308,-184,16344,-2300,30,-37,-22
4021.6000000000004,307,-244,16328,-2280,-100,-34,-15
4027.6180000000004,308,-244,16328,-2280,-100,-34,-15
4027.6180000000004,308,-244,16328,-2280,-100,-34,-15
4027.6180000000004,307,-244,16328,-2280,-100,-34,-15
4027.6180000000004,307,-244,16328,-2280,-100,-34,-15
4027.6180000000004,307,-244,16328,-2280,-100,-34,-15
4027.6180000000004,308,-244,16328,-2280,-100,-34,-15
4032.3779999999997,308,-180,16304,-2248,-72,-39,-21
4032.8619999999996,308,-180,16304,-2248,-72,-39,-21
4032.8619999999996,308,-180,16304,-2248,-72,-39,-21
4032.8619999999996,308,-180,16304,-2248,-72,-39,-21
4035.946,307,-180,16304,-2248,-72,-39,-21
4037.9569999999994,308,-180,16304,-2248,-72,-39,-21
4039.9640000000004,308,-180,16304,-2248,-72,-39,-21
4044.3410000000003,309,-184,16336,-2288,40,-41,-5
4044.3410000000003,308,-184,16336,-2288,40,-41,-5
4046.15,308,-184,16336,-2288,40,-41,-5
4052.2400000000002,308,-184,16336,-2288,40,-41,-5
4052.2400000000002,308,-184,16336,-2288,40,-41,-5
4052.2400000000002,309,-184,16336,-2288,40,-41,-5
4060.3999999999996,308,-184,16336,-2288,40,-41,-5
4060.3999999999996,309,-240,16396,-2288,-46,-37,-15
4060.3999999999996,308,-240,16396,-2288,-46,-37,-15
4068.651,308,-240,16396,-2288,-46,-37,-15
4068.651,307,-240,16396,-2288,-46,-37,-15
4068.651,308,-240,16396,-2288,-46,-37,-15
4076.887,307,-240,16396,-2288,-46,-37,-15
4078.341,308,-240,16396,-2288,-46,-37,-15
4085.3070000000002,308,-180,16304,-2284,-74,-44,-17
4087.459,308,-180,16304,-2284,-74,-44,-17
4089.4700000000003,309,-180,16304,-2284,-74,-44,-17
4093.483,308,-180,16304,-2284,-74,-44,-17
4093.483,308,-180,16304,-2284,-74,-44,-17
4097.659000000001,308,-180,16304,-2284,-74,-44,-17
4102.048,308,-180,16304,-2284,-74,-44,-17
4102.048,308,-236,16304,-2264,20,-24,-9
4102.048,308,-236,16304,-2264,20,-24,-9
4110.181,308,-236,16304,-2264,20,-24,-9
4113.874,309,-236,16304,-2264,20,-24,-9
4116.792,308,-236,16304,-2264,20,-24,-9
4118.658,308,-236,16304,-2264,20,-24,-9
4118.658,308,-236,16304,-2264,20,-24,-9
4118.658,308,-268,16412,-2316,-24,-42,-6
4126.846,308,-268,16412,-2316,-24,-42,-6
4126.846,308,-268,16412,-2316,-24,-42,-6
4126.846,307,-268,16412,-2316,-24,-42,-6
4133.414,307,-268,16412,-2316,-24,-42,-6
4135.290999999999,308,-268,16412,-2316,-24,-42,-6
4135.290999999999,308,-268,16412,-2316,-24,-42,-6
4135.290999999999,309,-192,16336,-2256,-85,-50,3
4143.878,308,-192,16336,-2256,-85,-50,3
4143.878,308,-192,16336,-2256,-85,-50,3
4151.223,307,-192,16336,-2256,-85,-50,3
4151.223,307,-192,16336,-2256,-85,-50,3
4151.223,307,-192,16336,-2256,-85,-50,3
4159.467000000001,307,-192,16336,-2256,-85,-50,3
4159.467000000001,308,-216,16336,-2228,-27,-42,-14
4166.736,308,-216,16336,-2228,-27,-42,-14
4167.752,308,-216,16336,-2228,-27,-42,-14
4167.752,308,-216,16336,-2228,-27,-42,-14
4167.752,307,-216,16336,-2228,-27,-42,-14
4175.8240000000005,307,-216,16336,-2228,-27,-42,-14
4175.8240000000005,307,-216,16336,-2228,-27,-42,-14
4184.1410000000005,307,-216,16356,-2268,-13,-29,-32
4184.1410000000005,307,-216,16356,-2268,-13,-29,-32
4184.1410000000005,307,-216,16356,-2268,-13,-29,-32
4192.317,306,-216,16356,-2268,-13,-29,-32
4195.755,305,-216,16356,-2268,-13,-29,-32
4195.755,304,-216,16356,-2268,-13,-29,-32
4200.45,303,-216,16356,-2268,-13,-29,-32
4200.45,303,-224,16364,-2248,-72,-34,0
4200.45,303,-224,16364,-2248,-72,-34,0
4208.527,303,-224,16364,-2248,-72,-34,0
4208.527,302,-224,16364,-2248,-72,-34,0
4215.75,300,-224,16364,-2248,-72,-34,0
4216.8369999999995,297,-224,16364,-2248,-72,-34,0
4216.8369999999995,294,-224,16364,-2248,-72,-34,0
4216.8369999999995,293,-180,16264,-2284,-24,-18,-13
4224.926,294,-180,16264,-2284,-24,-18,-13
4224.926,296,-180,16264,-2284,-24,-18,-13
4231.719,297,-180,16264,-2284,-24,-18,-13
4233.237,297,-180,16264,-2284,-24,-18,-13
4233.237,297,-180,16264,-2284,-24,-18,-13
4233.237,295,-180,16264,-2284,-24,-18,-13
4244.907,294,-208,16364,-2276,22,-31,-9
4244.907,291,-208,16364,-2276,22,-31,-9
4246.921,292,-208,16364,-2276,22,-31,-9
4251.282,290,-208,16364,-2276,22,-31,-9
4251.282,289,-208,16364,-2276,22,-31,-9
4256.016,288,-208,16364,-2276,22,-31,-9
4258.142999999999,288,-208,16364,-2276,22,-31,-9
4258.142999999999,289,-224,16368,-2312,-95,-35,-24
4265.753,289,-224,16368,-2312,-95,-35,-24
4265.753,288,-224,16368,-2312,-95,-35,-24
4265.753,285,-224,16368,-2312,-95,-35,-24
4274.057,284,-224,16368,-2312,-95,-35,-24
4274.057,285,-224,16368,-2312,-95,-35,-24
4274.057,286,-224,16368,-2312,-95,-35,-24
4282.1410000000005,286,-236,16336,-2252,-77,-43,-20
4284.168000000001,282,-236,16336,-2252,-77,-43,-20
4289.96,282,-236,16336,-2252,-77,-43,-20
4289.96,283,-236,16336,-2252,-77,-43,-20
4289.96,286,-236,16336,-2252,-77,-43,-20
4298.02,289,-236,16336,-2252,-77,-43,-20
4300.276,291,-236,16336,-2252,-77,-43,-20
4300.276,291,-236,16324,-2288,42,-43,-4
4306.363,288,-236,16324,-2288,42,-43,-4
4309.695,287,-236,16324,-2288,42,-43,-4
4311.7080000000005,290,-236,16324,-2288,42,-43,-4
4314.484,290,-236,16324,-2288,42,-43,-4
4316.507,293,-236,16324,-2288,42,-43,-4
4316.507,294,-236,16324,-2288,42,-43,-4
4322.527,296,-192,16312,-2288,-55,-32,-2
4322.527,298,-192,16312,-2288,-55,-32,-2
4322.527,298,-192,16312,-2288,-55,-32,-2
4330.7029999999995,299,-192,16312,-2288,-55,-32,-2
4334.995,300,-192,16312,-2288,-55,-32,-2
4337.025,300,-192,16312,-2288,-55,-32,-2
4338.844,301,-192,16312,-2288,-55,-32,-2
4343.521,301,-192,16284,-2224,-65,-40,-8
4346.617,304,-192,16284,-2224,-65,-40,-8
4346.617,304,-192,16284,-2224,-65,-40,-8
4351.486000000001,303,-192,16284,-2224,-65,-40,-8
4355.2429999999995,305,-192,16284,-2224,-65,-40,-8
4356.362,304,-192,16284,-2224,-65,-40,-8
4356.362,304,-192,16284,-2224,-65,-40,-8
4362.609,304,-192,16284,-2224,-65,-40,-8
4362.609,305,-208,16372,-2300,38,-14,8
4366.98,305,-208,16372,-2300,38,-14,8
4371.2080000000005,305,-208,16372,-2300,38,-14,8
4371.2080000000005,303,-208,16372,-2300,38,-14,8
4371.2080000000005,302,-208,16372,-2300,38,-14,8
4378.308,303,-208,16372,-2300,38,-14,8
4380.320000000001,302,-208,16372,-2300,38,-14,8
4382.335,302,-200,16292,-2280,-56,-44,-12
4386.812,304,-200,16292,-2280,-56,-44,-12
4386.812,304,-200,16292,-2280,-56,-44,-12
4386.812,304,-200,16292,-2280,-56,-44,-12
4396.3640000000005,304,-200,16292,-2280,-56,-44,-12
4399.587,304,-200,16292,-2280,-56,-44,-12
4399.587,306,-200,16292,-2280,-56,-44,-12
4404.9529999999995,307,-220,16300,-2284,-93,-36,-20
4404.9529999999995,306,-220,16300,-2284,-93,-36,-20
4404.9529999999995,306,-220,16300,-2284,-93,-36,-20
4411.731,306,-220,16300,-2284,-93,-36,-20
4417.147,306,-220,16300,-2284,-93,-36,-20
4421.1939999999995,306,-220,16300,-2284,-93,-36,-20
4421.527,307,-220,16300,-2284,-93,-36,-20
4421.527,308,-208,16376,-2248,1,-31,10
4427.92,307,-208,16376,-2248,1,-31,10
4427.92,307,-208,16376,-2248,1,-31,10
4433.306,306,-208,16376,-2248,1,-31,10
4435.975,307,-208,16376,-2248,1,-31,10
4438.487,307,-208,16376,-2248,1,-31,10
4440.517,307,-208,16376,-2248,1,-31,10
4445.551,308,-216,16392,-2292,-34,-29,-21
4445.551,308,-216,16392,-2292,-34,-29,-21
4450.366,307,-216,16392,-2292,-34,-29,-21
4452.501,307,-216,16392,-2292,-34,-29,-21
4452.501,308,-216,16392,-2292,-34,-29,-21
4452.501,308,-216,16392,-2292,-34,-29,-21
4461.87,308,-216,16392,-2292,-34,-29,-21
4466.113,307,-208,16300,-2320,-62,-47,-15
4466.113,305,-208,16300,-2320,-62,-47,-15
4469.0019999999995,304,-208,16300,-2320,-62,-47,-15
4471.0960000000005,303,-208,16300,-2320,-62,-47,-15
4471.0960000000005,305,-208,16300,-2320,-62,-47,-15
4477.309,306,-208,16300,-2320,-62,-47,-15
4477.309,306,-208,16300,-2320,-62,-47,-15
4484.061,307,-204,16384,-2260,9,-37,-10
4485.997,307,-204,16384,-2260,9,-37,-10
4485.997,307,-204,16384,-2260,9,-37,-10
4494.4980000000005,307,-204,16384,-2260,9,-37,-10
4497.449,306,-204,16384,-2260,9,-37,-10
4499.094,307,-204,16384,-2260,9,-37,-10
4502.992,307,-204,16384,-2260,9,-37,-10
4504.386,308,-208,16384,-2280,-32,-27,-14
4504.386,307,-208,16384,-2280,-32,-27,-14
4511.097000000001,308,-208,16384,-2280,-32,-27,-14
4511.097000000001,308,-208,16384,-2280,-32,-27,-14
4517.012000000001,308,-208,16384,-2280,-32,-27,-14
4519.369000000001,309,-208,16384,-2280,-32,-27,-14
4519.369000000001,310,-208,16384,-2280,-32,-27,-14
4519.369000000001,309,-236,16332,-2248,-85,-27,-12
4527.543,310,-236,16332,-2248,-85,-27,-12
4527.543,309,-236,16332,-2248,-85,-27,-12
4533.047,309,-236,16332,-2248,-85,-27,-12
4535.83,308,-236,16332,-2248,-85,-27,-12
4539.8550000000005,309,-236,16332,-2248,-85,-27,-12
4544.062,309,-236,16332,-2248,-85,-27,-12
4544.062,310,-212,16300,-2244,-6,-40,-27
4544.062,309,-212,16300,-2244,-6,-40,-27
4552.071,308,-212,16300,-2244,-6,-40,-27
4552.071,307,-212,16300,-2244,-6,-40,-27
4552.071,306,-212,16300,-2244,-6,-40,-27
4560.2029999999995,306,-212,16300,-2244,-6,-40,-27
4561.115,305,-212,16300,-2244,-6,-40,-27
4561.115,305,-204,16344,-2248,-27,-37,-5
4568.8820000000005,304,-204,16344,-2248,-27,-37,-5
4568.8820000000005,303,-204,16344,-2248,-27,-37,-5
4572.074,302,-204,16344,-2248,-27,-37,-5
4577.004,302,-204,16344,-2248,-27,-37,-5
4577.004,303,-204,16344,-2248,-27,-37,-5
4577.004,304,-204,16344,-2248,-27,-37,-5
4585.174999999999,304,-168,16300,-2308,-62,-51,-11
4585.174999999999,305,-168,16300,-2308,-62,-51,-11
4585.174999999999,306,-168,16300,-2308,-62,-51,-11
4593.682000000001,306,-168,16300,-2308,-62,-51,-11
4597.389,307,-168,16300,-2308,-62,-51,-11
4600.141,308,-168,16300,-2308,-62,-51,-11
4601.958,308,-168,16300,-2308,-62,-51,-11
4601.958,309,-160,16356,-2240,-62,-29,-10
4601.958,308,-160,16356,-2240,-62,-29,-10
4610.178,307,-160,16356,-2240,-62,-29,-10
4610.178,307,-160,16356,-2240,-62,-29,-10
4610.178,306,-160,16356,-2240,-62,-29,-10
4621.7300000000005,307,-160,16356,-2240,-62,-29,-10
4621.7300000000005,307,-160,16356,-2240,-62,-29,-10
4621.7300000000005,309,-188,16308,-2312,-17,-35,-3
4629.964,308,-188,16308,-2312,-17,-35,-3
4629.964,308,-188,16308,-2312,-17,-35,-3
4633.670999999999,307,-188,16308,-2312,-17,-35,-3
4638.594,308,-188,16308,-2312,-17,-35,-3
4640.611,309,-188,16308,-2312,-17,-35,-3
4640.611,307,-188,16308,-2312,-17,-35,-3
4646.363,303,-224,16348,-2272,-46,-31,-5
4649.216,304,-224,16348,-2272,-46,-31,-5
4651.235,305,-224,16348,-2272,-46,-31,-5
4652.255,305,-224,16348,-2272,-46,-31,-5
4657.113,306,-224,16348,-2272,-46,-31,-5
4659.49,306,-224,16348,-2272,-46,-31,-5
4662.69,306,-224,16348,-2272,-46,-31,-5
4667.586,306,-256,16332,-2232,-39,-40,-29
4669.603999999999,306,-256,16332,-2232,-39,-40,-29
4669.603999999999,306,-256,16332,-2232,-39,-40,-29
4669.603999999999,306,-256,16332,-2232,-39,-40,-29
4677.951,305,-256,16332,-2232,-39,-40,-29
4679.96,306,-256,16332,-2232,-39,-40,-29
4683.131,307,-256,16332,-2232,-39,-40,-29
4687.312000000001,308,-192,16376,-2264,-54,-33,-7
4687.312000000001,307,-192,16376,-2264,-54,-33,-7
4691.231,307,-192,16376,-2264,-54,-33,-7
4692.241,308,-192,16376,-2264,-54,-33,-7
4692.241,308,-192,16376,-2264,-54,-33,-7
4692.241,309,-192,16376,-2264,-54,-33,-7
4701.339,310,-192,16376,-2264,-54,-33,-7
4706.504,309,-200,16312,-2284,-21,-44,-23
4708.522999999999,308,-200,16312,-2284,-21,-44,-23
4711.878,308,-200,16312,-2284,-21,-44,-23
4716.280000000001,309,-200,16312,-2284,-21,-44,-23
4717.6900000000005,309,-200,16312,-2284,-21,-44,-23
4719.947999999999,309,-200,16312,-2284,-21,-44,-23
4724.183,309,-200,16312,-2284,-21,-44,-23
4728.267,308,-224,16296,-2284,-21,-35,-23
4728.267,307,-224,16296,-2284,-21,-35,-23
4732.491999999999,307,-224,16296,-2284,-21,-35,-23
4734.508,306,-224,16296,-2284,-21,-35,-23
4734.508,307,-224,16296,-2284,-21,-35,-23
4740.695,306,-224,16296,-2284,-21,-35,-23
4742.712,308,-240,16336,-2248,-54,-34,3
4744.718,308,-240,16336,-2248,-54,-34,3
4748.729,308,-240,16336,-2248,-54,-34,3
4752.228999999999,308,-240,16336,-2248,-54,-34,3
4752.228999999999,308,-240,16336,-2248,-54,-34,3
4756.965,307,-240,16336,-2248,-54,-34,3
4756.965,307,-240,16336,-2248,-54,-34,3
4756.965,308,-240,16336,-2248,-54,-34,3
4766.200000000001,308,-160,16384,-2252,-51,-38,-10
4766.200000000001,308,-160,16384,-2252,-51,-38,-10
4773.6359999999995,309,-160,16384,-2252,-51,-38,-10
4773.6359999999995,310,-160,16384,-2252,-51,-38,-10
4777.46,310,-160,16384,-2252,-51,-38,-10
4778.241999999999,310,-160,16384,-2252,-51,-38,-10
4781.718,309,-160,16384,-2252,-51,-38,-10
4785.609,310,-248,16304,-2244,-14,-26,-15
4788.5689999999995,310,-248,16304,-2244,-14,-26,-15
4792.665999999999,310,-248,16304,-2244,-14,-26,-15
4792.665999999999,310,-248,16304,-2244,-14,-26,-15
4797.827,310,-248,16304,-2244,-14,-26,-15
4800.619000000001,311,-248,16304,-2244,-14,-26,-15
4800.619000000001,310,-248,16352,-2288,-49,-31,-19
4805.788,310,-248,16352,-2288,-49,-31,-19
4805.788,310,-248,16352,-2288,-49,-31,-19
4814.301,310,-248,16352,-2288,-49,-31,-19
4814.301,310,-248,16352,-2288,-49,-31,-19
4817.919,309,-248,16352,-2288,-49,-31,-19
4822.415999999999,310,-248,16352,-2288,-49,-31,-19
4822.415999999999,311,-212,16392,-2300,-31,-33,-27
4822.415999999999,311,-212,16392,-2300,-31,-33,-27
4830.294999999999,310,-212,16392,-2300,-31,-33,-27
4833.738,308,-212,16392,-2300,-31,-33,-27
4835.752,309,-212,16392,-2300,-31,-33,-27
4838.863,308,-212,16392,-2300,-31,-33,-27
4838.863,309,-212,16392,-2300,-31,-33,-27
4838.863,310,-152,16332,-2284,-28,-37,-22
4847.039,310,-152,16332,-2284,-28,-37,-22
4852.082,309,-152,16332,-2284,-28,-37,-22
4855.232,310,-152,16332,-2284,-28,-37,-22
4855.232,309,-152,16332,-2284,-28,-37,-22
4855.232,310,-152,16332,-2284,-28,-37,-22
4863.381,311,-152,16332,-2284,-28,-37,-22
4863.381,311,-208,16296,-2280,-55,-31,-14
4867.245,312,-208,16296,-2280,-55,-31,-14
4871.609,311,-208,16296,-2280,-55,-31,-14
4871.609,311,-208,16296,-2280,-55,-31,-14
4871.609,310,-208,16296,-2280,-55,-31,-14
4879.944,311,-208,16296,-2280,-55,-31,-14
4883.751,312,-208,16296,-2280,-55,-31,-14
4883.751,311,-192,16280,-2260,-52,-48,-10
4888.162,310,-192,16280,-2260,-52,-48,-10
4888.162,311,-192,16280,-2260,-52,-48,-10
4888.162,311,-192,16280,-2260,-52,-48,-10
4896.611,311,-192,16280,-2260,-52,-48,-10
4900.597000000001,312,-192,16280,-2260,-52,-48,-10
4904.336,312,-192,16280,-2260,-52,-48,-10
4904.336,312,-216,16396,-2284,12,-19,-13
4907.863,310,-216,16396,-2284,12,-19,-13
4913.29,309,-216,16396,-2284,12,-19,-13
4915.95,309,-216,16396,-2284,12,-19,-13
4917.049,308,-216,16396,-2284,12,-19,-13
4919.059,310,-216,16396,-2284,12,-19,-13
4924.879,310,-216,16396,-2284,12,-19,-13
4924.879,311,-220,16368,-2336,-60,-35,-4
4928.376,310,-220,16368,-2336,-60,-35,-4
4933.025,311,-220,16368,-2336,-60,-35,-4
4933.025,310,-220,16368,-2336,-60,-35,-4
4935.035,310,-220,16368,-2336,-60,-35,-4
4941.272,309,-220,16368,-2336,-60,-35,-4
4941.272,310,-220,16368,-2336,-60,-35,-4
4945.351,309,-208,16248,-2228,-53,-29,-23
4949.6900000000005,309,-208,16248,-2228,-53,-29,-23
4953.46,309,-208,16248,-2228,-53,-29,-23
4953.46,311,-208,16248,-2228,-53,-29,-23
4957.369,311,-208,16248,-2228,-53,-29,-23
4957.369,310,-208,16248,-2228,-53,-29,-23
4957.369,310,-208,16248,-2228,-53,-29,-23
4965.495,311,-208,16292,-2248,14,-46,1
4969.523999999999,311,-208,16292,-2248,14,-46,1
4969.523999999999,311,-208,16292,-2248,14,-46,1
4974.026,311,-208,16292,-2248,14,-46,1
4978.093000000001,311,-208,16292,-2248,14,-46,1
4978.093000000001,311,-208,16292,-2248,14,-46,1
4984.187999999999,311,-208,16292,-2248,14,-46,1
4984.494,310,-224,16368,-2248,-28,-39,4
4984.494,311,-224,16368,-2248,-28,-39,4
4990.408,311,-224,16368,-2248,-28,-39,4
4992.415,311,-224,16368,-2248,-28,-39,4
4992.415,310,-224,16368,-2248,-28,-39,4
4999.608,311,-224,16368,-2248,-28,-39,4
5001.868,311,-224,16368,-2248,-28,-39,4
5001.868,311,-216,16312,-2284,-73,-31,-4
5006.8460000000005,310,-216,16312,-2284,-73,-31,-4
5010.8949999999995,309,-216,16312,-2284,-73,-31,-4
5015.104,309,-216,16312,-2284,-73,-31,-4
5015.844999999999,309,-216,16312,-2284,-73,-31,-4
5015.844999999999,309,-216,16312,-2284,-73,-31,-4
5023.41,309,-216,16312,-2284,-73,-31,-4
5024.405,308,-264,16300,-2252,-11,-41,-4
5025.064,308,-264,16300,-2252,-11,-41,-4
5031.322,309,-264,16300,-2252,-11,-41,-4
5032.041,308,-264,16300,-2252,-11,-41,-4
5033.327,309,-264,16300,-2252,-11,-41,-4
5039.644,310,-264,16300,-2252,-11,-41,-4
5039.644,310,-264,16300,-2252,-11,-41,-4
5043.642,310,-204,16364,-2280,10,-31,-21
5047.9839999999995,311,-204,16364,-2280,10,-31,-21
5049.57,310,-204,16364,-2280,10,-31,-21
5052.116,310,-204,16364,-2280,10,-31,-21
5055.919,310,-204,16364,-2280,10,-31,-21
5060.005,310,-204,16364,-2280,10,-31,-21
5060.005,311,-204,16364,-2280,10,-31,-21
5064.113,310,-188,16364,-2292,-74,-22,-13
5066.1630000000005,310,-188,16364,-2292,-74,-22,-13
5066.1630000000005,309,-188,16364,-2292,-74,-22,-13
5072.374,310,-188,16364,-2292,-74,-22,-13
5076.392,310,-188,16364,-2292,-74,-22,-13
5080.763,310,-188,16364,-2292,-74,-22,-13
5080.763,310,-188,16364,-2292,-74,-22,-13
5082.809,309,-168,16316,-2316,-33,-42,-10
5088.94,309,-168,16316,-2316,-33,-42,-10
5090.103,308,-168,16316,-2316,-33,-42,-10
5090.103,308,-168,16316,-2316,-33,-42,-10
5097.244,310,-168,16316,-2316,-33,-42,-10
5099.425,310,-168,16316,-2316,-33,-42,-10
5101.436,310,-168,16316,-2316,-33,-42,-10
5105.05,310,-228,16320,-2276,12,-38,11
5105.05,308,-228,16320,-2276,12,-38,11
5105.05,307,-228,16320,-2276,12,-38,11
5113.275,307,-228,16320,-2276,12,-38,11
5116.487,308,-228,16320,-2276,12,-38,11
5118.936,308,-228,16320,-2276,12,-38,11
5121.434,308,-228,16320,-2276,12,-38,11
5121.434,309,-180,16324,-2248,-68,-45,-19
5121.434,310,-180,16324,-2248,-68,-45,-19
5129.61,309,-180,16324,-2248,-68,-45,-19
5133.911999999999,309,-180,16324,-2248,-68,-45,-19
5137.833,309,-180,16324,-2248,-68,-45,-19
5138.89,308,-180,16324,-2248,-68,-45,-19
5140.116,308,-180,16324,-2248,-68,-45,-19
5146.066,308,-176,16348,-2268,-77,-16,6
5146.066,308,-176,16348,-2268,-77,-16,6
5150.574,310,-176,16348,-2268,-77,-16,6
5154.099999999999,308,-176,16348,-2268,-77,-16,6
5154.099999999999,309,-176,16348,-2268,-77,-16,6
5154.099999999999,308,-176,16348,-2268,-77,-16,6
5162.436,307,-176,16348,-2268,-77,-16,6
5163.642000000001,307,-176,16348,-2268,-77,-16,6
5165.677,308,-224,16412,-2244,11,-34,-18
5170.817,308,-224,16412,-2244,11,-34,-18
5174.704000000001,308,-224,16412,-2244,11,-34,-18
5174.704000000001,309,-224,16412,-2244,11,-34,-18
5178.7919999999995,310,-224,16412,-2244,11,-34,-18
5180.545,310,-224,16412,-2244,11,-34,-18
5183.828,310,-224,16412,-2244,11,-34,-18
5186.903,309,-196,16280,-2308,-58,-24,-15
5191.015,309,-196,16280,-2308,-58,-24,-15
5191.015,309,-196,16280,-2308,-58,-24,-15
5195.178,309,-196,16280,-2308,-58,-24,-15
5195.178,308,-196,16280,-2308,-58,-24,-15
5202.598,309,-196,16280,-2308,-58,-24,-15
5203.607,310,-196,16280,-2308,-58,-24,-15
5207.504,309,-240,16324,-2248,-71,-21,-6
5211.6720000000005,307,-240,16324,-2248,-71,-21,-6
5211.6720000000005,307,-240,16324,-2248,-71,-21,-6
5216.29,308,-240,16324,-2248,-71,-21,-6
5219.705,309,-240,16324,-2248,-71,-21,-6
5219.705,309,-240,16324,-2248,-71,-21,-6
5223.865,310,-240,16324,-2248,-71,-21,-6
5227.939,309,-212,16408,-2236,12,-48,10
5227.939,308,-212,16408,-2236,12,-48,10
5227.939,308,-212,16408,-2236,12,-48,10
5236.2339999999995,308,-212,16408,-2236,12,-48,10
5236.2339999999995,308,-212,16408,-2236,12,-48,10
5240.2519999999995,309,-212,16408,-2236,12,-48,10
5244.376,309,-212,16408,-2236,12,-48,10
5249.851,309,-200,16368,-2312,-31,-37,-3
5249.851,309,-200,16368,-2312,-31,-37,-3
5252.398999999999,309,-200,16368,-2312,-31,-37,-3
5256.6269999999995,308,-200,16368,-2312,-31,-37,-3
5256.6269999999995,308,-200,16368,-2312,-31,-37,-3
5260.724,308,-200,16368,-2312,-31,-37,-3
5260.724,309,-200,16368,-2312,-31,-37,-3
5266.337,309,-176,16292,-2280,-86,-40,-25
5268.352,309,-176,16292,-2280,-86,-40,-25
5272.997,308,-176,16292,-2280,-86,-40,-25
5277.102,308,-176,16292,-2280,-86,-40,-25
5277.102,308,-176,16292,-2280,-86,-40,-25
5277.102,310,-176,16292,-2280,-86,-40,-25
5284.941,310,-176,16292,-2280,-86,-40,-25
5284.941,310,-192,16312,-2284,7,-25,-10
5286.952,309,-192,16312,-2284,7,-25,-10
5292.883,309,-192,16312,-2284,7,-25,-10
5292.883,309,-192,16312,-2284,7,-25,-10
5296.928,309,-192,16312,-2284,7,-25,-10
5301.457,308,-192,16312,-2284,7,-25,-10
5301.457,307,-192,16312,-2284,7,-25,-10
5305.804,309,-196,16404,-2276,-1,-39,-23
5309.898999999999,308,-196,16404,-2276,-1,-39,-23
5309.898999999999,308,-196,16404,-2276,-1,-39,-23
5309.898999999999,309,-196,16404,-2276,-1,-39,-23
5318.214,309,-196,16404,-2276,-1,-39,-23
5322.166,309,-196,16404,-2276,-1,-39,-23
5322.166,309,-196,16404,-2276,-1,-39,-23
5326.271000000001,308,-164,16364,-2340,-82,-30,-6
5327.196,308,-164,16364,-2340,-82,-30,-6
5327.196,308,-164,16364,-2340,-82,-30,-6
5334.561,309,-164,16364,-2340,-82,-30,-6
5335.46,309,-164,16364,-2340,-82,-30,-6
5335.46,309,-164,16364,-2340,-82,-30,-6
5343.044,309,-164,16364,-2340,-82,-30,-6
5343.044,309,-208,16288,-2280,-37,-35,2
5343.044,310,-208,16288,-2280,-37,-35,2
5351.155000000001,310,-208,16288,-2280,-37,-35,2
5352.666,309,-208,16288,-2280,-37,-35,2
5352.666,308,-208,16288,-2280,-37,-35,2
5352.666,307,-208,16288,-2280,-37,-35,2
5359.62,308,-208,16288,-2280,-37,-35,2
5366.957,310,-192,16344,-2260,31,-34,-21
5367.966,310,-192,16344,-2260,31,-34,-21
5369.382,309,-192,16344,-2260,31,-34,-21
5374.527999999999,309,-192,16344,-2260,31,-34,-21
5374.527999999999,309,-192,16344,-2260,31,-34,-21
5376.286999999999,309,-192,16344,-2260,31,-34,-21
5383.24,309,-192,16344,-2260,31,-34,-21
5384.884,308,-192,16368,-2288,-106,-34,-32
5386.3060000000005,309,-192,16368,-2288,-106,-34,-32
5388.312,309,-192,16368,-2288,-106,-34,-32
5395.516,309,-192,16368,-2288,-106,-34,-32
5395.516,310,-192,16368,-2288,-106,-34,-32
5402.431,309,-192,16368,-2288,-106,-34,-32
5404.07,310,-192,16368,-2288,-106,-34,-32
5407.593000000001,309,-236,16368,-2252,-76,-37,-15
5407.593000000001,310,-236,16368,-2252,-76,-37,-15
5412.284,309,-236,16368,-2252,-76,-37,-15
5415.2880000000005,309,-236,16368,-2252,-76,-37,-15
5418.438,309,-236,16368,-2252,-76,-37,-15
5420.423000000001,309,-236,16368,-2252,-76,-37,-15
5420.423000000001,310,-236,16368,-2252,-76,-37,-15
5420.423000000001,310,-180,16380,-2276,45,-36,7
5428.652999999999,310,-180,16380,-2276,45,-36,7
5433.753000000001,311,-180,16380,-2276,45,-36,7
5434.763,309,-180,16380,-2276,45,-36,7
5436.813,308,-180,16380,-2276,45,-36,7
5439.924999999999,308,-180,16380,-2276,45,-36,7
5439.924999999999,308,-180,16380,-2276,45,-36,7
5445.053,308,-232,16360,-2280,-51,-11,3
5448.64,308,-232,16360,-2280,-51,-11,3
5450.653,309,-232,16360,-2280,-51,-11,3
5453.126,308,-232,16360,-2280,-51,-11,3
5456.155,309,-232,16360,-2280,-51,-11,3
5456.155,309,-232,16360,-2280,-51,-11,3
5458.755,309,-232,16360,-2280,-51,-11,3
5458.755,310,-232,16360,-2280,-51,-11,3
5466.476000000001,309,-216,16356,-2280,-60,-34,-3
5468.487999999999,309,-216,16356,-2280,-60,-34,-3
5473.661,309,-216,16356,-2280,-60,-34,-3
5477.778,308,-216,16356,-2280,-60,-34,-3
5477.778,308,-216,16356,-2280,-60,-34,-3
5482.863,309,-216,16356,-2280,-60,-34,-3
5484.875,309,-216,16356,-2280,-60,-34,-3
5484.875,309,-196,16380,-2280,11,-42,-8
5490.02,309,-196,16380,-2280,11,-42,-8
5491.042,309,-196,16380,-2280,11,-42,-8
5491.042,310,-196,16380,-2280,11,-42,-8
5499.1269999999995,309,-196,16380,-2280,11,-42,-8
5503.281,309,-196,16380,-2280,11,-42,-8
5503.281,310,-196,16380,-2280,11,-42,-8
5506.48,310,-168,16332,-2300,-52,-61,0
5510.5380000000005,308,-168,16332,-2300,-52,-61,0
5510.5380000000005,308,-168,16332,-2300,-52,-61,0
5514.552,307,-168,16332,-2300,-52,-61,0
5518.079,308,-168,16332,-2300,-52,-61,0
5518.079,308,-168,16332,-2300,-52,-61,0
5522.099,310,-168,16332,-2300,-52,-61,0
5526.112999999999,310,-204,16304,-2288,-83,-24,1
5526.112999999999,309,-204,16304,-2288,-83,-24,1
5530.128000000001,310,-204,16304,-2288,-83,-24,1
5534.758,309,-204,16304,-2288,-83,-24,1
5534.758,310,-204,16304,-2288,-83,-24,1
5538.774,310,-204,16304,-2288,-83,-24,1
5542.794,310,-204,16304,-2288,-83,-24,1
5542.794,309,-204,16304,-2288,-83,-24,1
5545.738,309,-176,16352,-2236,1,-35,-18
5549.04,309,-176,16352,-2236,1,-35,-18
5552.949,309,-176,16352,-2236,1,-35,-18
5554.956,309,-176,16352,-2236,1,-35,-18
5556.704,309,-176,16352,-2236,1,-35,-18
5556.704,309,-176,16352,-2236,1,-35,-18
5556.704,310,-176,16352,-2236,1,-35,-18
5566.062,309,-216,16416,-2256,-41,-20,5
5568.441,308,-216,16416,-2256,-41,-20,5
5570.022,309,-216,16416,-2256,-41,-20,5
5573.526,308,-216,16416,-2256,-41,-20,5
5573.526,309,-216,16416,-2256,-41,-20,5
5573.526,308,-216,16416,-2256,-41,-20,5
5581.719,309,-216,16416,-2256,-41,-20,5
5581.719,310,-168,16308,-2248,-65,-33,0
5589.744,309,-168,16308,-2248,-65,-33,0
5589.744,309,-168,16308,-2248,-65,-33,0
5589.744,310,-168,16308,-2248,-65,-33,0
5589.744,309,-168,16308,-2248,-65,-33,0
5599.981,309,-168,16308,-2248,-65,-33,0
5599.981,310,-168,16308,-2248,-65,-33,0
5606.39,311,-208,16324,-2292,6,-40,-7
5606.39,309,-208,16324,-2292,6,-40,-7
5606.39,310,-208,16324,-2292,6,-40,-7
5606.39,309,-208,16324,-2292,6,-40,-7
5614.495,309,-208,16324,-2292,6,-40,-7
5614.495,309,-208,16324,-2292,6,-40,-7
5614.495,308,-208,16324,-2292,6,-40,-7
5622.664000000001,309,-208,16324,-2292,6,-40,-7
5622.664000000001,309,-212,16336,-2268,-25,-22,-22
5622.664000000001,309,-212,16336,-2268,-25,-22,-22
5633.683,308,-212,16336,-2268,-25,-22,-22
5633.683,309,-212,16336,-2268,-25,-22,-22
5639.184,310,-212,16336,-2268,-25,-22,-22
5639.184,310,-212,16336,-2268,-25,-22,-22
5639.184,309,-212,16336,-2268,-25,-22,-22
5647.347,309,-236,16336,-2260,-59,-54,5
5647.347,308,-236,16336,-2260,-59,-54,5
5653.059,309,-236,16336,-2260,-59,-54,5
5655.387,308,-236,16336,-2260,-59,-54,5
5655.387,309,-236,16336,-2260,-59,-54,5
5655.387,308,-236,16336,-2260,-59,-54,5
5663.907,310,-236,16336,-2260,-59,-54,5
5667.084,309,-212,16300,-2268,-34,-45,-15
5667.084,310,-212,16300,-2268,-34,-45,-15
5672.005999999999,309,-212,16300,-2268,-34,-45,-15
5672.005999999999,309,-212,16300,-2268,-34,-45,-15
5672.005999999999,310,-212,16300,-2268,-34,-45,-15
5680.322,309,-212,16300,-2268,-34,-45,-15
5683.474999999999,309,-212,16300,-2268,-34,-45,-15
5683.474999999999,309,-204,16372,-2296,14,-38,1
5688.44,308,-204,16372,-2296,14,-38,1
5688.44,309,-204,16372,-2296,14,-38,1
5688.44,309,-204,16372,-2296,14,-38,1
5699.295,309,-204,16372,-2296,14,-38,1
5703.437,310,-204,16372,-2296,14,-38,1
5704.799999999999,310,-204,16372,-2296,14,-38,1
5704.799999999999,310,-212,16416,-2252,-56,-45,-15
5704.799999999999,310,-212,16416,-2252,-56,-45,-15
5704.799999999999,309,-212,16416,-2252,-56,-45,-15
5713.309,308,-212,16416,-2252,-56,-45,-15
5717.045,309,-212,16416,-2252,-56,-45,-15
5721.577,308,-212,16416,-2252,-56,-45,-15
5721.577,308,-212,16416,-2252,-56,-45,-15
5721.577,309,-212,16348,-2236,-69,-35,-24
5729.932,308,-212,16348,-2236,-69,-35,-24
5729.932,307,-212,16348,-2236,-69,-35,-24
5733.521,307,-212,16348,-2236,-69,-35,-24
5739.722000000001,307,-212,16348,-2236,-69,-35,-24
5739.722000000001,308,-212,16348,-2236,-69,-35,-24
5739.722000000001,308,-212,16348,-2236,-69,-35,-24
5746.974,309,-200,16284,-2276,15,-55,3
5750.027,308,-200,16284,-2276,15,-55,3
5753.168,308,-200,16284,-2276,15,-55,3
5754.182,309,-200,16284,-2276,15,-55,3
5754.182,309,-200,16284,-2276,15,-55,3
5754.182,309,-200,16284,-2276,15,-55,3
5763.929,309,-200,16284,-2276,15,-55,3
5765.96,309,-200,16284,-2276,15,-55,3
5767.814,309,-212,16312,-2336,-12,-27,-13
5771.456,309,-212,16312,-2336,-12,-27,-13
5771.456,308,-212,16312,-2336,-12,-27,-13
5771.456,308,-212,16312,-2336,-12,-27,-13
5781.2789999999995,308,-212,16312,-2336,-12,-27,-13
5784.84,308,-212,16312,-2336,-12,-27,-13
5786.732,309,-212,16312,-2336,-12,-27,-13
5789.6,309,-228,16328,-2292,-100,-25,-19
5793.0650000000005,307,-228,16328,-2292,-100,-25,-19
5794.900000000001,308,-228,16328,-2292,-100,-25,-19
5797.861,308,-228,16328,-2292,-100,-25,-19
5802.566,309,-228,16328,-2292,-100,-25,-19
5804.929999999999,308,-228,16328,-2292,-100,-25,-19
5807.457,308,-180,16344,-2208,-46,-53,-12
5810.334,306,-180,16344,-2208,-46,-53,-12
5812.235000000001,307,-180,16344,-2208,-46,-53,-12
5812.235000000001,307,-180,16344,-2208,-46,-53,-12
5818.668,307,-180,16344,-2208,-46,-53,-12
5822.173000000001,307,-180,16344,-2208,-46,-53,-12
5826.102,307,-180,16344,-2208,-46,-53,-12
5828.522999999999,307,-208,16332,-2300,32,-37,-10
5830.478,307,-208,16332,-2300,32,-37,-10
5834.478,306,-208,16332,-2300,32,-37,-10
5835.675,306,-208,16332,-2300,32,-37,-10
5838.313999999999,306,-208,16332,-2300,32,-37,-10
5842.727,308,-208,16332,-2300,32,-37,-10
5845.6320000000005,309,-208,16332,-2300,32,-37,-10
5845.6320000000005,308,-184,16332,-2340,-95,-52,-4
5851.093,308,-184,16332,-2340,-95,-52,-4
5853.489,307,-184,16332,-2340,-95,-52,-4
5853.489,307,-184,16332,-2340,-95,-52,-4
5859.178,307,-184,16332,-2340,-95,-52,-4
5863.011,307,-184,16332,-2340,-95,-52,-4
5863.011,308,-184,16332,-2340,-95,-52,-4
5867.614,307,-232,16336,-2268,-68,-44,-1
5868.801,307,-232,16336,-2268,-68,-44,-1
5868.801,307,-232,16336,-2268,-68,-44,-1
5876.34,307,-232,16336,-2268,-68,-44,-1
5876.853,307,-232,16336,-2268,-68,-44,-1
5880.927,308,-232,16336,-2268,-68,-44,-1
5883.997,308,-232,16336,-2268,-68,-44,-1
5883.997,308,-220,16380,-2244,8,-42,-8
5883.997,308,-220,16380,-2244,8,-42,-8
5892.921,307,-220,16380,-2244,8,-42,-8
5893.431,307,-220,16380,-2244,8,-42,-8
5893.431,307,-220,16380,-2244,8,-42,-8
5900.156,307,-220,16380,-2244,8,-42,-8
5903.736,308,-220,16380,-2244,8,-42,-8
5903.736,308,-220,16380,-2244,8,-42,-8
5908.258,308,-172,16352,-2296,-51,-23,-24
5908.258,307,-172,16352,-2296,-51,-23,-24
5908.258,307,-172,16352,-2296,-51,-23,-24
5918.264,307,-172,16352,-2296,-51,-23,-24
5918.264,307,-172,16352,-2296,-51,-23,-24
5923.412,308,-172,16352,-2296,-51,-23,-24
5924.939,307,-172,16352,-2296,-51,-23,-24
5928.3460000000005,308,-204,16336,-2288,-56,-46,-25
5933.329,308,-204,16336,-2288,-56,-46,-25
5934.5160000000005,307,-204,16336,-2288,-56,-46,-25
5934.5160000000005,307,-204,16336,-2288,-56,-46,-25
5934.5160000000005,307,-204,16336,-2288,-56,-46,-25
5944.907,308,-204,16336,-2288,-56,-46,-25
5944.907,308,-232,16364,-2284,-18,-29,1
5950.148,307,-232,16364,-2284,-18,-29,1
5950.148,306,-232,16364,-2284,-18,-29,1
5953.741,306,-232,16364,-2284,-18,-29,1
5953.741,307,-232,16364,-2284,-18,-29,1
5961.280000000001,308,-232,16364,-2284,-18,-29,1
5961.881,307,-232,16364,-2284,-18,-29,1
5966.725,308,-232,16364,-2284,-18,-29,1
5969.476000000001,308,-268,16336,-2308,-31,-36,-2
5969.476000000001,307,-268,16336,-2308,-31,-36,-2
5975.066,307,-268,16336,-2308,-31,-36,-2
5975.066,308,-268,16336,-2308,-31,-36,-2
5975.066,308,-268,16336,-2308,-31,-36,-2
5983.4310000000005,309,-268,16336,-2308,-31,-36,-2
5985.448,307,-268,16336,-2308,-31,-36,-2
5989.763,308,-236,16408,-2252,-41,-38,-9
5991.695,307,-236,16408,-2252,-41,-38,-9
5991.695,307,-236,16408,-2252,-41,-38,-9
5994.815,307,-236,16408,-2252,-41,-38,-9
6000.135,307,-236,16408,-2252,-41,-38,-9
6000.135,307,-236,16408,-2252,-41,-38,-9
6000.135,308,-236,16408,-2252,-41,-38,-9
6000.135,307,-188,16316,-2256,-43,-46,2
6008.434,307,-188,16316,-2256,-43,-46,2
6011.2,307,-188,16316,-2256,-43,-46,2
6016.57,307,-188,16316,-2256,-43,-46,2
6016.57,307,-188,16316,-2256,-43,-46,2
6016.57,306,-188,16316,-2256,-43,-46,2
6026.634,305,-188,16316,-2256,-43,-46,2
6026.634,306,-220,16376,-2288,-47,-34,2
6028.8769999999995,306,-220,16376,-2288,-47,-34,2
6033.697,306,-220,16376,-2288,-47,-34,2
6033.697,307,-220,16376,-2288,-47,-34,2
6036.927000000001,306,-220,16376,-2288,-47,-34,2
6041.071,307,-220,16376,-2288,-47,-34,2
6041.071,307,-220,16376,-2288,-47,-34,2
6041.071,307,-176,16368,-2272,-5,-41,-16
6050.124000000001,308,-176,16368,-2272,-5,-41,-16
6050.124000000001,307,-176,16368,-2272,-5,-41,-16
6054.254,306,-176,16368,-2272,-5,-41,-16
6058.94,307,-176,16368,-2272,-5,-41,-16
6058.94,307,-176,16368,-2272,-5,-41,-16
6062.1720000000005,307,-176,16368,-2272,-5,-41,-16
6067.513,307,-228,16276,-2324,-59,-31,-2
6067.513,307,-228,16276,-2324,-59,-31,-2
6067.513,308,-228,16276,-2324,-59,-31,-2
6074.497,307,-228,16276,-2324,-59,-31,-2
6079.64,306,-228,16276,-2324,-59,-31,-2
6079.64,307,-228,16276,-2324,-59,-31,-2
6084.733,307,-228,16276,-2324,-59,-31,-2
6084.733,307,-228,16276,-2324,-59,-31,-2
6084.733,306,-176,16284,-2276,-26,-46,-11
6091.919,306,-176,16284,-2276,-26,-46,-11
6091.919,305,-176,16284,-2276,-26,-46,-11
6100.311,307,-176,16284,-2276,-26,-46,-11
6100.311,307,-176,16284,-2276,-26,-46,-11
6100.311,307,-176,16284,-2276,-26,-46,-11
6107.639,308,-232,16356,-2300,20,-14,-20
6109.655,307,-232,16356,-2300,20,-14,-20
6112.682000000001,307,-232,16356,-2300,20,-14,-20
6117.282999999999,308,-232,16356,-2300,20,-14,-20
6118.214,308,-232,16356,-2300,20,-14,-20
6119.883,308,-232,16356,-2300,20,-14,-20
6123.986000000001,308,-232,16356,-2300,20,-14,-20
6125.999,307,-196,16308,-2284,-51,-42,0
6125.999,307,-196,16308,-2284,-51,-42,0
6133.332,306,-196,16308,-2284,-51,-42,0
6133.332,306,-196,16308,-2284,-51,-42,0
6136.927,306,-196,16308,-2284,-51,-42,0
6140.607,306,-196,16308,-2284,-51,-42,0
6143.1810000000005,306,-196,16308,-2284,-51,-42,0
6143.1810000000005,307,-196,16308,-2284,-51,-42,0
6148.823,308,-180,16356,-2220,-57,-25,4
6150.2210000000005,307,-180,16356,-2220,-57,-25,4
6154.432,308,-180,16356,-2220,-57,-25,4
6157.188999999999,307,-180,16356,-2220,-57,-25,4
6159.2,307,-180,16356,-2220,-57,-25,4
6159.2,307,-180,16356,-2220,-57,-25,4
6166.254999999999,307,-180,16356,-2220,-57,-25,4
6168.279,308,-236,16368,-2276,8,-33,-31
6168.279,308,-236,16368,-2276,8,-33,-31
6173.824,307,-236,16368,-2276,8,-33,-31
6173.824,308,-236,16368,-2276,8,-33,-31
6173.824,307,-236,16368,-2276,8,-33,-31
6182.169,307,-236,16368,-2276,8,-33,-31
6182.169,307,-236,16368,-2276,8,-33,-31
6182.169,308,-192,16376,-2308,-15,-39,-15
6190.455,308,-192,16376,-2308,-15,-39,-15
6194.458,307,-192,16376,-2308,-15,-39,-15
6194.458,307,-192,16376,-2308,-15,-39,-15
6199.643,307,-192,16376,-2308,-15,-39,-15
6202.62,307,-192,16376,-2308,-15,-39,-15
6206.883000000001,307,-192,16376,-2308,-15,-39,-15
6206.883000000001,307,-212,16336,-2272,-89,-42,-8
6210.995,307,-212,16336,-2272,-89,-42,-8
6215.352,307,-212,16336,-2272,-89,-42,-8
6216.985000000001,307,-212,16336,-2272,-89,-42,-8
6219.679,307,-212,16336,-2272,-89,-42,-8
6223.267,308,-212,16336,-2272,-89,-42,-8
6223.267,308,-212,16336,-2272,-89,-42,-8
6225.025,308,-176,16336,-2252,8,-42,-7
6231.528,308,-176,16336,-2252,8,-42,-7
6234.27,308,-176,16336,-2252,8,-42,-7
6235.228,308,-176,16336,-2252,8,-42,-7
6239.629,307,-176,16336,-2252,8,-42,-7
6239.629,308,-176,16336,-2252,8,-42,-7
6239.629,308,-176,16336,-2252,8,-42,-7
6248.051,309,-176,16336,-2252,8,-42,-7
6248.051,308,-212,16328,-2292,-38,-38,-20
6249.815,308,-212,16328,-2292,-38,-38,-20
6256.525,307,-212,16328,-2292,-38,-38,-20
6256.525,307,-212,16328,-2292,-38,-38,-20
6256.525,307,-212,16328,-2292,-38,-38,-20
6264.1359999999995,307,-212,16328,-2292,-38,-38,-20
6267.093,307,-212,16328,-2292,-38,-38,-20
6267.093,307,-184,16360,-2264,-60,-13,-4
6272.145,306,-184,16360,-2264,-60,-13,-4
6276.527,306,-184,16360,-2264,-60,-13,-4
6276.527,306,-184,16360,-2264,-60,-13,-4
6280.551,307,-184,16360,-2264,-60,-13,-4
6284.888,307,-184,16360,-2264,-60,-13,-4
6288.764999999999,307,-184,16360,-2264,-60,-13,-4
6288.764999999999,307,-204,16340,-2288,-9,-47,16
6288.764999999999,307,-204,16340,-2288,-9,-47,16
6297.071,306,-204,16340,-2288,-9,-47,16
6297.071,306,-204,16340,-2288,-9,-47,16
6299.341,308,-204,16340,-2288,-9,-47,16
6304.468,307,-204,16340,-2288,-9,-47,16
6305.478,307,-204,16340,-2288,-9,-47,16
6305.478,307,-160,16328,-2264,-25,-27,2
6311.715,306,-160,16328,-2264,-25,-27,2
6313.729,306,-160,16328,-2264,-25,-27,2
6313.729,306,-160,16328,-2264,-25,-27,2
6321.885,307,-160,16328,-2264,-25,-27,2
6322.384999999999,308,-160,16328,-2264,-25,-27,2
6322.384999999999,307,-160,16328,-2264,-25,-27,2
6322.384999999999,307,-176,16364,-2244,-70,-33,-11
6329.9580000000005,306,-176,16364,-2244,-70,-33,-11
6333.818,307,-176,16364,-2244,-70,-33,-11
6338.201,307,-176,16364,-2244,-70,-33,-11
6338.201,305,-176,16364,-2244,-70,-33,-11
6338.201,305,-176,16364,-2244,-70,-33,-11
6346.42,305,-176,16364,-2244,-70,-33,-11
6350.186,306,-216,16352,-2228,-23,-40,-12
6350.844999999999,306,-216,16352,-2228,-23,-40,-12
6354.5740000000005,306,-216,16352,-2228,-23,-40,-12
6356.086,306,-216,16352,-2228,-23,-40,-12
6356.086,306,-216,16352,-2228,-23,-40,-12
6362.672,306,-216,16352,-2228,-23,-40,-12
6366.519,306,-216,16352,-2228,-23,-40,-12
6370.832,306,-216,16320,-2260,-37,-31,-6
6370.832,307,-216,16320,-2260,-37,-31,-6
6374.919,307,-216,16320,-2260,-37,-31,-6
6374.919,307,-216,16320,-2260,-37,-31,-6
6379.2,308,-216,16320,-2260,-37,-31,-6
6383.968999999999,308,-216,16320,-2260,-37,-31,-6
6383.968999999999,307,-216,16320,-2260,-37,-31,-6
6387.437,307,-224,16316,-2268,-44,-40,-1
6387.437,306,-224,16316,-2268,-44,-40,-1
6395.939,306,-224,16316,-2268,-44,-40,-1
6395.939,306,-224,16316,-2268,-44,-40,-1
6400.9169999999995,307,-224,16316,-2268,-44,-40,-1
6404.028,307,-224,16316,-2268,-44,-40,-1
6404.028,306,-224,16316,-2268,-44,-40,-1
6404.028,307,-196,16288,-2272,-51,-21,-19
6412.314,307,-196,16288,-2272,-51,-21,-19
6412.314,307,-196,16288,-2272,-51,-21,-19
6417.385,308,-196,16288,-2272,-51,-21,-19
6420.539,308,-196,16288,-2272,-51,-21,-19
6422.031,307,-196,16288,-2272,-51,-21,-19
6427.073,307,-196,16288,-2272,-51,-21,-19
6428.934,306,-156,16348,-2248,-30,-32,-10
6432.857,306,-156,16348,-2248,-30,-32,-10
6432.857,305,-156,16348,-2248,-30,-32,-10
6437.277,305,-156,16348,-2248,-30,-32,-10
6437.277,306,-156,16348,-2248,-30,-32,-10
6437.277,306,-156,16348,-2248,-30,-32,-10
6445.369000000001,307,-156,16348,-2248,-30,-32,-10
6450.454,307,-188,16372,-2264,-50,-44,-1
6450.454,307,-188,16372,-2264,-50,-44,-1
6456.436,307,-188,16372,-2264,-50,-44,-1
6456.436,307,-188,16372,-2264,-50,-44,-1
6456.436,307,-188,16372,-2264,-50,-44,-1
6461.739,308,-188,16372,-2264,-50,-44,-1
6468.171,307,-188,16372,-2264,-50,-44,-1
6469.935,307,-200,16348,-2276,-60,-33,-20
6473.12,307,-200,16348,-2276,-60,-33,-20
6473.12,308,-200,16348,-2276,-60,-33,-20
6478.0160000000005,307,-200,16348,-2276,-60,-33,-20
6481.347000000001,308,-200,16348,-2276,-60,-33,-20
6481.347000000001,307,-200,16348,-2276,-60,-33,-20
6489.464,308,-200,16348,-2276,-60,-33,-20
6489.464,307,-208,16356,-2276,-14,-42,-13
6489.464,307,-208,16356,-2276,-14,-42,-13
6494.91,307,-208,16356,-2276,-14,-42,-13
6500.402,308,-208,16356,-2276,-14,-42,-13
6501.087,307,-208,16356,-2276,-14,-42,-13
6505.865,308,-208,16356,-2276,-14,-42,-13
6505.865,307,-196,16324,-2240,-47,-44,-5
6511.534000000001,306,-196,16324,-2240,-47,-44,-5
6511.534000000001,307,-196,16324,-2240,-47,-44,-5
6517.771,306,-196,16324,-2240,-47,-44,-5
6519.789000000001,306,-196,16324,-2240,-47,-44,-5
6522.233,306,-196,16324,-2240,-47,-44,-5
6522.233,308,-196,16324,-2240,-47,-44,-5
6522.233,307,-196,16324,-2240,-47,-44,-5
6530.433999999999,307,-152,16400,-2264,-53,-24,-11
6533.133000000001,306,-152,16400,-2264,-53,-24,-11
6538.628,306,-152,16400,-2264,-53,-24,-11
6539.112,306,-152,16400,-2264,-53,-24,-11
6539.112,307,-152,16400,-2264,-53,-24,-11
6546.834,307,-152,16400,-2264,-53,-24,-11
6547.883,307,-204,16356,-2204,-59,-26,-1
6550.776,307,-204,16356,-2204,-59,-26,-1
6552.92,307,-204,16356,-2204,-59,-26,-1
6556.434,307,-204,16356,-2204,-59,-26,-1
6556.434,308,-204,16356,-2204,-59,-26,-1
6563.1810000000005,307,-204,16356,-2204,-59,-26,-1
6565.836,307,-204,16356,-2204,-59,-26,-1
6566.932000000001,308,-192,16336,-2256,-13,-35,-2
6571.793000000001,308,-192,16336,-2256,-13,-35,-2
6575.527,308,-192,16336,-2256,-13,-35,-2
6577.4980000000005,307,-192,16336,-2256,-13,-35,-2
6579.969,307,-192,16336,-2256,-13,-35,-2
6581.152,308,-192,16336,-2256,-13,-35,-2
6585.674,308,-192,16336,-2256,-13,-35,-2
6585.674,307,-184,16320,-2288,-66,-33,-9
6585.674,307,-184,16320,-2288,-66,-33,-9
6593.995,308,-184,16320,-2288,-66,-33,-9
6593.995,307,-184,16320,-2288,-66,-33,-9
6600.619,307,-184,16320,-2288,-66,-33,-9
6602.4580000000005,307,-184,16320,-2288,-66,-33,-9
6602.4580000000005,307,-184,16320,-2288,-66,-33,-9
6602.4580000000005,308,-184,16320,-2288,-66,-33,-9
6612.373,308,-212,16364,-2240,-50,-36,2
6612.373,307,-212,16364,-2240,-50,-36,2
6617.0419999999995,307,-212,16364,-2240,-50,-36,2
6618.875,308,-212,16364,-2240,-50,-36,2
6618.875,307,-212,16364,-2240,-50,-36,2
6618.875,308,-212,16364,-2240,-50,-36,2
6627.313,308,-212,16364,-2240,-50,-36,2
6627.313,308,-216,16352,-2252,-36,-33,-29
6627.313,308,-216,16352,-2252,-36,-33,-29
6635.3679999999995,308,-216,16352,-2252,-36,-33,-29
6635.3679999999995,308,-216,16352,-2252,-36,-33,-29
6635.3679999999995,308,-216,16352,-2252,-36,-33,-29
6643.838,308,-216,16352,-2252,-36,-33,-29
6643.838,308,-216,16352,-2252,-36,-33,-29
6643.838,307,-212,16344,-2312,-35,-31,-5
6652.158,308,-212,16344,-2312,-35,-31,-5
6656.964,307,-212,16344,-2312,-35,-31,-5
6656.964,307,-212,16344,-2312,-35,-31,-5
6661.423,307,-212,16344,-2312,-35,-31,-5
6663.312,308,-212,16344,-2312,-35,-31,-5
6668.35,308,-212,16344,-2312,-35,-31,-5
6668.35,307,-152,16300,-2320,-49,-34,-12
6668.35,307,-152,16300,-2320,-49,-34,-12
6676.675,307,-152,16300,-2320,-49,-34,-12
6676.675,307,-152,16300,-2320,-49,-34,-12
6676.675,308,-152,16300,-2320,-49,-34,-12
6686.083,307,-152,16300,-2320,-49,-34,-12
6686.083,308,-152,16300,-2320,-49,-34,-12
6690.202,307,-148,16312,-2220,-47,-39,-2
6693.526999999999,308,-148,16312,-2220,-47,-39,-2
6693.526999999999,307,-148,16312,-2220,-47,-39,-2
6699.789,307,-148,16312,-2220,-47,-39,-2
6702.896,308,-148,16312,-2220,-47,-39,-2
6704.903,308,-148,16312,-2220,-47,-39,-2
6706.909,308,-148,16312,-2220,-47,-39,-2
6709.727,308,-160,16356,-2304,-10,-35,-12
6714.761,308,-160,16356,-2304,-10,-35,-12
6717.128,307,-160,16356,-2304,-10,-35,-12
6718.143999999999,307,-160,16356,-2304,-10,-35,-12
6718.143999999999,307,-160,16356,-2304,-10,-35,-12
6726.229,307,-160,16356,-2304,-10,-35,-12
6726.229,307,-160,16356,-2304,-10,-35,-12
6726.229,306,-188,16352,-2320,-52,-53,-23
6734.734,306,-188,16352,-2320,-52,-53,-23
6734.734,306,-188,16352,-2320,-52,-53,-23
6736.963000000001,308,-188,16352,-2320,-52,-53,-23
6742.977,308,-188,16352,-2320,-52,-53,-23
6742.977,308,-188,16352,-2320,-52,-53,-23
6742.977,308,-188,16380,-2232,-71,-38,-30
6751.195,307,-188,16380,-2232,-71,-38,-30
6754.022,308,-188,16380,-2232,-71,-38,-30
6757.141,308,-188,16380,-2232,-71,-38,-30
6759.684,308,-188,16380,-2232,-71,-38,-30
6760.697,308,-188,16380,-2232,-71,-38,-30
6767.9220000000005,308,-188,16380,-2232,-71,-38,-30
6767.9220000000005,308,-228,16304,-2260,-49,-46,-26
6767.9220000000005,307,-228,16304,-2260,-49,-46,-26
6776.1269999999995,307,-228,16304,-2260,-49,-46,-26
6776.1269999999995,307,-228,16304,-2260,-49,-46,-26
6779.432,308,-228,16304,-2260,-49,-46,-26
6784.452,307,-228,16304,-2260,-49,-46,-26
6784.452,308,-228,16304,-2260,-49,-46,-26
6784.452,307,-204,16356,-2304,-15,-41,-2
6792.022,307,-204,16356,-2304,-15,-41,-2
6792.022,307,-204,16356,-2304,-15,-41,-2
6792.022,307,-204,16356,-2304,-15,-41,-2
6800.156,308,-204,16356,-2304,-15,-41,-2
6800.156,308,-204,16356,-2304,-15,-41,-2
6800.156,307,-204,16356,-2304,-15,-41,-2
6808.545999999999,307,-196,16368,-2276,-42,-32,-14
6808.545999999999,307,-196,16368,-2276,-42,-32,-14
6816.641,307,-196,16368,-2276,-42,-32,-14
6816.641,308,-196,16368,-2276,-42,-32,-14
6816.641,307,-196,16368,-2276,-42,-32,-14
6825.308,308,-196,16368,-2276,-42,-32,-14
6825.308,308,-196,16368,-2276,-42,-32,-14
6825.308,307,-196,16348,-2204,-69,-37,-15
6834.197999999999,307,-196,16348,-2204,-69,-37,-15
6837.626,307,-196,16348,-2204,-69,-37,-15
6837.626,307,-196,16348,-2204,-69,-37,-15
6841.232,306,-196,16348,-2204,-69,-37,-15
6841.232,306,-196,16348,-2204,-69,-37,-15
6841.232,307,-196,16348,-2204,-69,-37,-15
6850.231,307,-228,16304,-2252,-40,-28,-9
6850.231,306,-228,16304,-2252,-40,-28,-9
6858.065,307,-228,16304,-2252,-40,-28,-9
6858.601000000001,306,-228,16304,-2252,-40,-28,-9
6858.601000000001,307,-228,16304,-2252,-40,-28,-9
6866.572999999999,307,-228,16304,-2252,-40,-28,-9
6866.572999999999,307,-228,16304,-2252,-40,-28,-9
6866.572999999999,306,-204,16340,-2292,-29,-24,-10
6874.3679999999995,306,-204,16340,-2292,-29,-24,-10
6874.3679999999995,307,-204,16340,-2292,-29,-24,-10
6874.3679999999995,306,-204,16340,-2292,-29,-24,-10
6882.92,307,-204,16340,-2292,-29,-24,-10
6883.999,307,-204,16340,-2292,-29,-24,-10
6883.999,307,-204,16340,-2292,-29,-24,-10
6889.422,307,-220,16360,-2264,-61,-44,1
6889.422,307,-220,16360,-2264,-61,-44,1
6889.422,307,-220,16360,-2264,-61,-44,1
6899.763,308,-220,16360,-2264,-61,-44,1
6902.745999999999,307,-220,16360,-2264,-61,-44,1
6902.745999999999,308,-220,16360,-2264,-61,-44,1
6905.811,307,-220,16360,-2264,-61,-44,1
6905.811,307,-208,16364,-2308,-36,-46,-12
6905.811,306,-208,16364,-2308,-36,-46,-12
6916.341,307,-208,16364,-2308,-36,-46,-12
6917.813,307,-208,16364,-2308,-36,-46,-12
6922.403,307,-208,16364,-2308,-36,-46,-12
6922.403,308,-208,16364,-2308,-36,-46,-12
6922.403,308,-208,16364,-2308,-36,-46,-12
6931.732,307,-212,16344,-2248,-31,-39,-6
6932.8099999999995,306,-212,16344,-2248,-31,-39,-6
6934.827,306,-212,16344,-2248,-31,-39,-6
6939.974,305,-212,16344,-2248,-31,-39,-6
6944.02,307,-212,16344,-2248,-31,-39,-6
6944.02,306,-212,16344,-2248,-31,-39,-6
6947.528,307,-212,16344,-2248,-31,-39,-6
6952.213000000001,307,-224,16328,-2244,-69,-55,-15
6952.213000000001,306,-224,16328,-2244,-69,-55,-15
6955.851,306,-224,16328,-2244,-69,-55,-15
6959.38,307,-224,16328,-2244,-69,-55,-15
6961.396,307,-224,16328,-2244,-69,-55,-15
6964.157,307,-224,16328,-2244,-69,-55,-15
6968.993,307,-224,16328,-2244,-69,-55,-15
6972.821,307,-192,16316,-2252,-46,-22,-13
6972.821,307,-192,16316,-2252,-46,-22,-13
6972.821,307,-192,16316,-2252,-46,-22,-13
6981.085,307,-192,16316,-2252,-46,-22,-13
6982.426,307,-192,16316,-2252,-46,-22,-13
6982.907,307,-192,16316,-2252,-46,-22,-13
6989.186,307,-192,16316,-2252,-46,-22,-13
6989.186,307,-264,16336,-2288,5,-37,-15
6989.186,307,-264,16336,-2288,5,-37,-15
6997.393,307,-264,16336,-2288,5,-37,-15
6999.849,307,-264,16336,-2288,5,-37,-15
7002.925,307,-264,16336,-2288,5,-37,-15
7005.594999999999,307,-264,16336,-2288,5,-37,-15
7005.594999999999,307,-264,16336,-2288,5,-37,-15
7005.594999999999,307,-184,16324,-2276,-73,-49,-33
7013.876,306,-184,16324,-2276,-73,-49,-33
7016.4,307,-184,16324,-2276,-73,-49,-33
7018.993,307,-184,16324,-2276,-73,-49,-33
7021.9800000000005,307,-184,16324,-2276,-73,-49,-33
7024.003000000001,307,-184,16324,-2276,-73,-49,-33
7030.4529999999995,307,-184,16324,-2276,-73,-49,-33
7030.4529999999995,308,-204,16344,-2260,-37,-20,3
7034.038,307,-204,16344,-2260,-37,-20,3
7038.469,307,-204,16344,-2260,-37,-20,3
7038.469,307,-204,16344,-2260,-37,-20,3
7038.469,308,-204,16344,-2260,-37,-20,3
7046.583,307,-204,16344,-2260,-37,-20,3
7046.583,308,-204,16344,-2260,-37,-20,3
7046.583,308,-228,16328,-2296,5,-29,5
7055.72,307,-228,16328,-2296,5,-29,5
7056.743,307,-228,16328,-2296,5,-29,5
7057.275,308,-228,16328,-2296,5,-29,5
7057.275,308,-228,16328,-2296,5,-29,5
7062.851000000001,308,-228,16328,-2296,5,-29,5
7062.851000000001,309,-228,16328,-2296,5,-29,5
7062.851000000001,307,-228,16328,-2296,5,-29,5
7071.103,308,-200,16380,-2260,-50,-53,-8
7075.219,308,-200,16380,-2260,-50,-53,-8
7075.219,307,-200,16380,-2260,-50,-53,-8
7079.311,307,-200,16380,-2260,-50,-53,-8
7083.764999999999,307,-200,16380,-2260,-50,-53,-8
7083.764999999999,307,-200,16380,-2260,-50,-53,-8
7088.326999999999,307,-200,16380,-2260,-50,-53,-8
7088.326999999999,308,-204,16300,-2280,-64,-28,4
7092.564,307,-204,16300,-2280,-64,-28,4
7096.644,307,-204,16300,-2280,-64,-28,4
7099.804,307,-204,16300,-2280,-64,-28,4
7103.830999999999,307,-204,16300,-2280,-64,-28,4
7103.830999999999,308,-204,16300,-2280,-64,-28,4
7107.852,308,-204,16300,-2280,-64,-28,4
7111.882,308,-164,16360,-2268,-7,-38,-10
7111.882,307,-164,16360,-2268,-7,-38,-10
7115.9039999999995,307,-164,16360,-2268,-7,-38,-10
7119.938,307,-164,16360,-2268,-7,-38,-10
7119.938,307,-164,16360,-2268,-7,-38,-10
7124.469,308,-164,16360,-2268,-7,-38,-10
7128.247,308,-164,16360,-2268,-7,-38,-10
7132.273999999999,308,-192,16336,-2284,-41,-33,-12
7132.585,306,-192,16336,-2284,-41,-33,-12
7136.362,306,-192,16336,-2284,-41,-33,-12
7140.393,307,-192,16336,-2284,-41,-33,-12
7140.393,306,-192,16336,-2284,-41,-33,-12
7144.425,308,-192,16336,-2284,-41,-33,-12
7148.458,307,-192,16336,-2284,-41,-33,-12
7150.496999999999,307,-208,16348,-2252,-73,-40,-8
7152.515,307,-208,16348,-2252,-73,-40,-8
7157.563,307,-208,16348,-2252,-73,-40,-8
7160.596,307,-208,16348,-2252,-73,-40,-8
7160.596,307,-208,16348,-2252,-73,-40,-8
7164.621,307,-208,16348,-2252,-73,-40,-8
7168.656,307,-208,16348,-2252,-73,-40,-8
7168.656,306,-208,16332,-2292,-14,-31,-16
7168.656,307,-208,16332,-2292,-14,-31,-16
7177.09,307,-208,16332,-2292,-14,-31,-16
7181.12,307,-208,16332,-2292,-14,-31,-16
7183.131,308,-208,16332,-2292,-14,-31,-16
7185.354,308,-208,16332,-2292,-14,-31,-16
7189.3859999999995,308,-208,16332,-2292,-14,-31,-16
7189.3859999999995,308,-184,16360,-2308,-22,-37,-27
7193.404,308,-184,16360,-2308,-22,-37,-27
7193.404,307,-184,16360,-2308,-22,-37,-27
7201.592,307,-184,16360,-2308,-22,-37,-27
7201.592,307,-184,16360,-2308,-22,-37,-27
7201.592,307,-184,16360,-2308,-22,-37,-27
7209.714,308,-184,16360,-2308,-22,-37,-27
7209.714,307,-152,16368,-2228,-70,-39,-13
7213.746999999999,308,-152,16368,-2228,-70,-39,-13
7217.776,307,-152,16368,-2228,-70,-39,-13
7221.813,308,-152,16368,-2228,-70,-39,-13
7223.828,308,-152,16368,-2228,-70,-39,-13
7225.85,309,-152,16368,-2228,-70,-39,-13
7230.675,308,-152,16368,-2228,-70,-39,-13
7230.675,307,-200,16296,-2228,-56,-31,-9
7234.2570000000005,307,-200,16296,-2228,-56,-31,-9
7234.2570000000005,307,-200,16296,-2228,-56,-31,-9
7234.2570000000005,307,-200,16296,-2228,-56,-31,-9
7242.384999999999,307,-200,16296,-2228,-56,-31,-9
7242.384999999999,307,-200,16296,-2228,-56,-31,-9
7249.443,307,-200,16296,-2228,-56,-31,-9
7250.463,307,-188,16344,-2232,-24,-45,-3
7252.483,307,-188,16344,-2232,-24,-45,-3
7259.3730000000005,307,-188,16344,-2232,-24,-45,-3
7259.3730000000005,308,-188,16344,-2232,-24,-45,-3
7259.3730000000005,307,-188,16344,-2232,-24,-45,-3
7266.875,307,-188,16344,-2232,-24,-45,-3
7266.875,308,-188,16344,-2232,-24,-45,-3
7266.875,308,-184,16356,-2272,-35,-47,-30
7275.08,307,-184,16356,-2272,-35,-47,-30
7279.987,307,-184,16356,-2272,-35,-47,-30
7279.987,309,-184,16356,-2272,-35,-47,-30
7284.091,308,-184,16356,-2272,-35,-47,-30
7286.723,308,-184,16356,-2272,-35,-47,-30
7286.723,308,-184,16356,-2272,-35,-47,-30
7290.7390000000005,308,-192,16336,-2324,-82,-49,-11
7290.7390000000005,308,-192,16336,-2324,-82,-49,-11
7299.233,308,-192,16336,-2324,-82,-49,-11
7301.255,308,-192,16336,-2324,-82,-49,-11
7301.255,307,-192,16336,-2324,-82,-49,-11
7307.9710000000005,308,-192,16336,-2324,-82,-49,-11
7307.9710000000005,308,-212,16308,-2248,-3,-35,-10
7307.9710000000005,308,-212,16308,-2248,-3,-35,-10
7316.696,308,-212,16308,-2248,-3,-35,-10
7316.696,307,-212,16308,-2248,-3,-35,-10
7316.696,308,-212,16308,-2248,-3,-35,-10
7324.9839999999995,308,-212,16308,-2248,-3,-35,-10
7325.8640000000005,308,-212,16308,-2248,-3,-35,-10
7325.8640000000005,308,-220,16416,-2252,16,-50,-22
7334.06,307,-220,16416,-2252,16,-50,-22
7334.06,307,-220,16416,-2252,16,-50,-22
7334.06,307,-220,16416,-2252,16,-50,-22
7341.072999999999,307,-220,16416,-2252,16,-50,-22
7341.072999999999,308,-220,16416,-2252,16,-50,-22
7341.072999999999,307,-220,16416,-2252,16,-50,-22
7350.316000000001,308,-220,16416,-2252,16,-50,-22
7352.337,308,-184,16364,-2244,-100,-36,5
7352.337,307,-184,16364,-2244,-100,-36,5
7357.84,308,-184,16364,-2244,-100,-36,5
7357.84,308,-184,16364,-2244,-100,-36,5
7357.84,307,-184,16364,-2244,-100,-36,5
7365.965,307,-184,16364,-2244,-100,-36,5
7365.965,307,-184,16364,-2244,-100,-36,5
7374.2119999999995,307,-160,16296,-2264,-9,-36,5
7374.2119999999995,306,-160,16296,-2264,-9,-36,5
7374.2119999999995,306,-160,16296,-2264,-9,-36,5
7382.295,306,-160,16296,-2264,-9,-36,5
7383.602,307,-160,16296,-2264,-9,-36,5
7383.602,308,-160,16296,-2264,-9,-36,5
7388.054,307,-160,16296,-2264,-9,-36,5
7390.069,307,-204,16396,-2252,35,-32,6
7392.0830000000005,307,-204,16396,-2252,35,-32,6
7392.0830000000005,307,-204,16396,-2252,35,-32,6
7398.333,307,-204,16396,-2252,35,-32,6
7398.333,308,-204,16396,-2252,35,-32,6
7398.333,308,-204,16396,-2252,35,-32,6
7406.597,307,-204,16396,-2252,35,-32,6
7406.597,307,-204,16396,-2252,35,-32,6
7406.597,307,-208,16344,-2296,-73,-38,-17
7414.811000000001,308,-208,16344,-2296,-73,-38,-17
7420.001,307,-208,16344,-2296,-73,-38,-17
7423.009,307,-208,16344,-2296,-73,-38,-17
7423.009,308,-208,16344,-2296,-73,-38,-17
7423.009,307,-208,16344,-2296,-73,-38,-17
7431.408,307,-176,16276,-2232,-79,-21,-16
7431.408,307,-176,16276,-2232,-79,-21,-16
7431.408,307,-176,16276,-2232,-79,-21,-16
7439.652,307,-176,16276,-2232,-79,-21,-16
7443.819,308,-176,16276,-2232,-79,-21,-16
7444.783,308,-176,16276,-2232,-79,-21,-16
7447.908,307,-176,16276,-2232,-79,-21,-16
7447.908,308,-256,16340,-2260,27,-38,-17
7447.908,307,-256,16340,-2260,27,-38,-17
7456.333,307,-256,16340,-2260,27,-38,-17
7457.913,307,-256,16340,-2260,27,-38,-17
7457.913,306,-256,16340,-2260,27,-38,-17
7464.444,307,-256,16340,-2260,27,-38,-17
7464.444,306,-256,16340,-2260,27,-38,-17
7472.785,307,-240,16372,-2240,-29,-19,-25
7472.785,307,-240,16372,-2240,-29,-19,-25
7472.785,306,-240,16372,-2240,-29,-19,-25
7472.785,307,-240,16372,-2240,-29,-19,-25
7481.237,307,-240,16372,-2240,-29,-19,-25
7481.237,308,-240,16372,-2240,-29,-19,-25
7489.344,308,-240,16372,-2240,-29,-19,-25
7493.3769999999995,308,-192,16312,-2252,-118,-32,-21
7493.3769999999995,307,-192,16312,-2252,-118,-32,-21
7497.499000000001,308,-192,16312,-2252,-118,-32,-21
7497.499000000001,307,-192,16312,-2252,-118,-32,-21
7505.618,308,-192,16312,-2252,-118,-32,-21
7505.618,307,-192,16312,-2252,-118,-32,-21
7509.339,308,-192,16312,-2252,-118,-32,-21
7510.729,307,-188,16292,-2280,50,-43,7
7513.848999999999,308,-188,16292,-2280,50,-43,7
7513.848999999999,307,-188,16292,-2280,50,-43,7
7513.848999999999,307,-188,16292,-2280,50,-43,7
7522.316,307,-188,16292,-2280,50,-43,7
7522.316,307,-188,16292,-2280,50,-43,7
7522.316,307,-188,16292,-2280,50,-43,7
7530.518,307,-224,16400,-2316,-15,-32,-2
7532.927,307,-224,16400,-2316,-15,-32,-2
7532.927,306,-224,16400,-2316,-15,-32,-2
7538.835,306,-224,16400,-2316,-15,-32,-2
7542.148,307,-224,16400,-2316,-15,-32,-2
7543.965,307,-224,16400,-2316,-15,-32,-2
7547.175,307,-224,16400,-2316,-15,-32,-2
7549.737999999999,307,-216,16312,-2260,-137,-31,-39
7549.737999999999,307,-216,16312,-2260,-137,-31,-39
7557.984,307,-216,16312,-2260,-137,-31,-39
7557.984,308,-216,16312,-2260,-137,-31,-39
7559.997,307,-216,16312,-2260,-137,-31,-39
7566.947,308,-216,16312,-2260,-137,-31,-39
7566.947,308,-216,16312,-2260,-137,-31,-39
7566.947,307,-208,16336,-2204,3,-29,-16
7575.082,307,-208,16336,-2204,3,-29,-16
7579.018,307,-208,16336,-2204,3,-29,-16
7580.324,307,-208,16336,-2204,3,-29,-16
7583.759,307,-208,16336,-2204,3,-29,-16
7583.759,307,-208,16336,-2204,3,-29,-16
7588.4349999999995,308,-208,16336,-2204,3,-29,-16
7591.572,307,-164,16412,-2324,24,-45,-7
7591.572,305,-164,16412,-2324,24,-45,-7
7596.853,306,-164,16412,-2324,24,-45,-7
7596.853,306,-164,16412,-2324,24,-45,-7
7596.853,307,-164,16412,-2324,24,-45,-7
7604.9220000000005,307,-164,16412,-2324,24,-45,-7
7606.403,307,-164,16412,-2324,24,-45,-7
7609.964,307,-164,16412,-2324,24,-45,-7
7613.045,306,-180,16376,-2284,-105,-41,-6
7614.87,307,-180,16376,-2284,-105,-41,-6
7614.87,306,-180,16376,-2284,-105,-41,-6
7621.349,307,-180,16376,-2284,-105,-41,-6
7624.091,307,-180,16376,-2284,-105,-41,-6
7624.091,308,-180,16376,-2284,-105,-41,-6
7629.664,307,-216,16324,-2236,-31,-30,-8
7633.789,306,-216,16324,-2236,-31,-30,-8
7636.803,306,-216,16324,-2236,-31,-30,-8
7640.454,306,-216,16324,-2236,-31,-30,-8
7640.454,307,-216,16324,-2236,-31,-30,-8
7643.4259999999995,307,-216,16324,-2236,-31,-30,-8
7646.186,307,-216,16324,-2236,-31,-30,-8
7650.223999999999,306,-216,16324,-2236,-31,-30,-8
7653.429,307,-228,16344,-2296,17,-25,-25
7656.825000000001,306,-228,16344,-2296,17,-25,-25
7660.902,307,-228,16344,-2296,17,-25,-25
7660.902,307,-228,16344,-2296,17,-25,-25
7666.1849999999995,308,-228,16344,-2296,17,-25,-25
7668.6269999999995,307,-228,16344,-2296,17,-25,-25
7670.236,307,-228,16344,-2296,17,-25,-25
7673.206999999999,306,-184,16328,-2272,-112,-44,-4
7673.206999999999,306,-184,16328,-2272,-112,-44,-4
7673.206999999999,307,-184,16328,-2272,-112,-44,-4
7681.4,307,-184,16328,-2272,-112,-44,-4
7685.063999999999,307,-184,16328,-2272,-112,-44,-4
7689.593000000001,307,-184,16328,-2272,-112,-44,-4
7689.593000000001,307,-200,16368,-2240,-61,-39,3
7689.593000000001,306,-200,16368,-2240,-61,-39,3
7697.777,307,-200,16368,-2240,-61,-39,3
7699.594,307,-200,16368,-2240,-61,-39,3
7700.3009999999995,307,-200,16368,-2240,-61,-39,3
7705.948,307,-200,16368,-2240,-61,-39,3
7705.948,307,-200,16368,-2240,-61,-39,3
7710.074,307,-200,16368,-2240,-61,-39,3
7714.174,307,-220,16300,-2264,25,-27,-21
7717.024,307,-220,16300,-2264,25,-27,-21
7719.0380000000005,307,-220,16300,-2264,25,-27,-21
7722.338,307,-220,16300,-2264,25,-27,-21
7722.338,307,-220,16300,-2264,25,-27,-21
7722.338,307,-220,16300,-2264,25,-27,-21
7730.569,307,-220,16300,-2264,25,-27,-21
7734.591,307,-224,16372,-2328,-51,-30,-5
7736.603999999999,307,-224,16372,-2328,-51,-30,-5
7738.647,306,-224,16372,-2328,-51,-30,-5
7740.322,307,-224,16372,-2328,-51,-30,-5
7740.322,306,-224,16372,-2328,-51,-30,-5
7746.85,307,-224,16372,-2328,-51,-30,-5
7749.954,307,-224,16372,-2328,-51,-30,-5
7753.218000000001,307,-168,16320,-2252,-130,-33,-8
7755.078,306,-168,16320,-2252,-130,-33,-8
7758.638999999999,306,-168,16320,-2252,-130,-33,-8
7763.4169999999995,307,-168,16320,-2252,-130,-33,-8
7763.4169999999995,307,-168,16320,-2252,-130,-33,-8
7766.557,307,-168,16320,-2252,-130,-33,-8
7771.771000000001,308,-168,16320,-2252,-130,-33,-8
7771.771000000001,306,-172,16368,-2252,23,-21,-3
7775.074,305,-172,16368,-2252,23,-21,-3
7779.794,305,-172,16368,-2252,23,-21,-3
7779.794,307,-172,16368,-2252,23,-21,-3
7782.809,308,-172,16368,-2252,23,-21,-3
7787.929,308,-172,16368,-2252,23,-21,-3
7787.929,307,-172,16368,-2252,23,-21,-3
7787.929,307,-216,16332,-2284,0,-35,-10
7796.362,306,-216,16332,-2284,0,-35,-10
7796.362,307,-216,16332,-2284,0,-35,-10
7799.833,306,-216,16332,-2284,0,-35,-10
7804.808,306,-216,16332,-2284,0,-35,-10
7804.808,307,-216,16332,-2284,0,-35,-10
7808.362,307,-216,16332,-2284,0,-35,-10
7812.965,307,-240,16328,-2300,-106,-43,-25
7812.965,306,-240,16328,-2300,-106,-43,-25
7817.814,306,-240,16328,-2300,-106,-43,-25
7819.9529999999995,306,-240,16328,-2300,-106,-43,-25
7821.466,306,-240,16328,-2300,-106,-43,-25
7821.466,307,-240,16328,-2300,-106,-43,-25
7829.7080000000005,306,-240,16328,-2300,-106,-43,-25
7833.539,306,-232,16324,-2280,-47,-29,-19
7833.539,307,-232,16324,-2280,-47,-29,-19
7838.18,306,-232,16324,-2280,-47,-29,-19
7841.3279999999995,307,-232,16324,-2280,-47,-29,-19
7841.3279999999995,307,-232,16324,-2280,-47,-29,-19
7847.795,307,-232,16324,-2280,-47,-29,-19
7850.345,307,-232,16324,-2280,-47,-29,-19
7850.345,307,-192,16368,-2272,16,-35,-12
7857.71,308,-192,16368,-2272,16,-35,-12
7858.757,306,-192,16368,-2272,16,-35,-12
7858.757,307,-192,16368,-2272,16,-35,-12
7862.8949999999995,308,-192,16368,-2272,16,-35,-12
7867.469,308,-192,16368,-2272,16,-35,-12
7867.469,307,-192,16368,-2272,16,-35,-12
7874.093,307,-220,16372,-2312,-75,-40,-18
7874.762,306,-220,16372,-2312,-75,-40,-18
7879.692,306,-220,16372,-2312,-75,-40,-18
7879.692,306,-220,16372,-2312,-75,-40,-18
7884.192,306,-220,16372,-2312,-75,-40,-18
7884.192,307,-220,16372,-2312,-75,-40,-18
7888.12,307,-220,16372,-2312,-75,-40,-18
7888.12,306,-200,16376,-2224,-77,-32,-7
7898.469999999999,306,-200,16376,-2224,-77,-32,-7
7900.302,306,-200,16376,-2224,-77,-32,-7
7902.315,307,-200,16376,-2224,-77,-32,-7
7906.673,307,-200,16376,-2224,-77,-32,-7
7906.673,307,-200,16376,-2224,-77,-32,-7
7909.862999999999,307,-200,16376,-2224,-77,-32,-7
7914.798,307,-248,16372,-2244,-22,-48,-16
7917.228,306,-248,16372,-2244,-22,-48,-16
7917.875999999999,307,-248,16372,-2244,-22,-48,-16
7923.0109999999995,307,-248,16372,-2244,-22,-48,-16
7924.383,308,-248,16372,-2244,-22,-48,-16
7924.383,308,-248,16372,-2244,-22,-48,-16
7931.477,308,-248,16372,-2244,-22,-48,-16
7933.6539999999995,307,-220,16316,-2276,-23,-19,-17
7933.6539999999995,306,-220,16316,-2276,-23,-19,-17
7939.864,307,-220,16316,-2276,-23,-19,-17
7943.554,308,-220,16316,-2276,-23,-19,-17
7943.554,307,-220,16316,-2276,-23,-19,-17
7947.93,307,-220,16316,-2276,-23,-19,-17
7952.726000000001,307,-176,16372,-2248,-102,-31,-29
7955.806,307,-176,16372,-2248,-102,-31,-29
7955.806,307,-176,16372,-2248,-102,-31,-29
7958.738,307,-176,16372,-2248,-102,-31,-29
7963.931,308,-176,16372,-2248,-102,-31,-29
7963.931,308,-176,16372,-2248,-102,-31,-29
7963.931,307,-176,16372,-2248,-102,-31,-29
7972.1140000000005,307,-128,16336,-2244,-12,-30,8
7976.418,307,-128,16336,-2244,-12,-30,8
7976.418,307,-128,16336,-2244,-12,-30,8
7980.2429999999995,307,-128,16336,-2244,-12,-30,8
7980.2429999999995,308,-128,16336,-2244,-12,-30,8
7985.933,308,-128,16336,-2244,-12,-30,8
7988.706999999999,306,-128,16336,-2244,-12,-30,8
7990.719999999999,307,-212,16356,-2232,-1,-43,-3
7990.719999999999,307,-212,16356,-2232,-1,-43,-3
7996.812,307,-212,16356,-2232,-1,-43,-3
7999.566,307,-212,16356,-2232,-1,-43,-3
8004.99,307,-212,16356,-2232,-1,-43,-3
8004.99,308,-212,16356,-2232,-1,-43,-3
8004.99,308,-212,16356,-2232,-1,-43,-3
8004.99,308,-212,16356,-2232,-1,-43,-3
8013.539,307,-256,16332,-2244,-54,-24,-8
8016.378,307,-256,16332,-2244,-54,-24,-8
8020.123999999999,308,-256,16332,-2244,-54,-24,-8
8022.569,308,-256,16332,-2244,-54,-24,-8
8023.114,308,-256,16332,-2244,-54,-24,-8
8023.114,308,-256,16332,-2244,-54,-24,-8
8030.23,308,-256,16332,-2244,-54,-24,-8
8033.716,307,-164,16356,-2216,-37,-41,-11
8033.716,308,-164,16356,-2216,-37,-41,-11
8038.617,307,-164,16356,-2216,-37,-41,-11
8038.617,307,-164,16356,-2216,-37,-41,-11
8038.617,308,-164,16356,-2216,-37,-41,-11
8046.996999999999,308,-164,16356,-2216,-37,-41,-11
8051.365000000001,308,-164,16356,-2216,-37,-41,-11
8052.585000000001,307,-220,16348,-2328,9,-8,-9
8055.1630000000005,307,-220,16348,-2328,9,-8,-9
8059.106,307,-220,16348,-2328,9,-8,-9
8063.368,308,-220,16348,-2328,9,-8,-9
8066.670999999999,307,-220,16348,-2328,9,-8,-9
8067.465999999999,308,-220,16348,-2328,9,-8,-9
8067.465999999999,308,-220,16348,-2328,9,-8,-9
8071.438,307,-200,16376,-2280,-21,-34,-11
8071.438,307,-200,16376,-2280,-21,-34,-11
8071.438,308,-200,16376,-2280,-21,-34,-11
8081.796,307,-200,16376,-2280,-21,-34,-11
8083.815,307,-200,16376,-2280,-21,-34,-11
8085.831000000001,308,-200,16376,-2280,-21,-34,-11
8090.971,309,-200,16376,-2280,-21,-34,-11
8094.159,308,-216,16280,-2276,-61,-41,-2
8095.983,307,-216,16280,-2276,-61,-41,-2
8095.983,307,-216,16280,-2276,-61,-41,-2
8095.983,307,-216,16280,-2276,-61,-41,-2
8104.894,308,-216,16280,-2276,-61,-41,-2
8104.894,308,-216,16280,-2276,-61,-41,-2
8104.894,307,-216,16280,-2276,-61,-41,-2
8112.740000000001,307,-224,16360,-2252,-17,-50,5
8116.272999999999,308,-224,16360,-2252,-17,-50,5
8116.272999999999,307,-224,16360,-2252,-17,-50,5
8121.73,308,-224,16360,-2252,-17,-50,5
8124.998,308,-224,16360,-2252,-17,-50,5
8125.512000000001,308,-224,16360,-2252,-17,-50,5
8129.928,308,-224,16360,-2252,-17,-50,5
8129.928,308,-252,16452,-2264,-22,-22,-2
8135.146000000001,307,-252,16452,-2264,-22,-22,-2
8137.162,308,-252,16452,-2264,-22,-22,-2
8137.162,307,-252,16452,-2264,-22,-22,-2
8137.162,307,-252,16452,-2264,-22,-22,-2
8145.498999999999,308,-252,16452,-2264,-22,-22,-2
8149.85,308,-252,16452,-2264,-22,-22,-2
8149.85,307,-192,16264,-2272,-72,-31,-12
8155.936000000001,306,-192,16264,-2272,-72,-31,-12
8155.936000000001,307,-192,16264,-2272,-72,-31,-12
8159.061,307,-192,16264,-2272,-72,-31,-12
8162.084999999999,307,-192,16264,-2272,-72,-31,-12
8165.803999999999,308,-192,16264,-2272,-72,-31,-12
8170.5740000000005,308,-192,16264,-2272,-72,-31,-12
8173.147,307,-196,16332,-2284,-42,-35,-5
8176.790999999999,306,-196,16332,-2284,-42,-35,-5
8178.808,306,-196,16332,-2284,-42,-35,-5
8179.882,307,-196,16332,-2284,-42,-35,-5
8185.253,307,-196,16332,-2284,-42,-35,-5
8187.015,307,-196,16332,-2284,-42,-35,-5
8189.325999999999,307,-196,16332,-2284,-42,-35,-5
8189.325999999999,307,-220,16368,-2284,-2,-32,-11
8195.297999999999,307,-220,16368,-2284,-2,-32,-11
8195.297999999999,307,-220,16368,-2284,-2,-32,-11
8195.297999999999,307,-220,16368,-2284,-2,-32,-11
8203.587000000001,306,-220,16368,-2284,-2,-32,-11
8203.587000000001,307,-220,16368,-2284,-2,-32,-11
8203.587000000001,307,-220,16368,-2284,-2,-32,-11
8213.860999999999,307,-204,16348,-2308,-41,-35,-4
8213.860999999999,306,-204,16348,-2308,-41,-35,-4
8218.253,307,-204,16348,-2308,-41,-35,-4
8221.949999999999,306,-204,16348,-2308,-41,-35,-4
8221.949999999999,307,-204,16348,-2308,-41,-35,-4
8221.949999999999,308,-204,16348,-2308,-41,-35,-4
8228.153,308,-204,16348,-2308,-41,-35,-4
8228.153,307,-176,16292,-2268,-87,-13,-20
8235.552,307,-176,16292,-2268,-87,-13,-20
8236.572,307,-176,16292,-2268,-87,-13,-20
8236.572,306,-176,16292,-2268,-87,-13,-20
8244.694000000001,307,-176,16292,-2268,-87,-13,-20
8246.712000000001,307,-176,16292,-2268,-87,-13,-20
8251.172,307,-176,16292,-2268,-87,-13,-20
8252.914999999999,307,-188,16328,-2268,4,-19,-22
8255.576,307,-188,16328,-2268,4,-19,-22
8259.142,307,-188,16328,-2268,4,-19,-22
8261.159,307,-188,16328,-2268,4,-19,-22
8261.159,307,-188,16328,-2268,4,-19,-22
8267.244,307,-188,16328,-2268,4,-19,-22
8268.582999999999,307,-188,16328,-2268,4,-19,-22
8271.129,307,-188,16328,-2268,4,-19,-22
8271.129,307,-196,16336,-2296,-3,-50,-17
8278.164,306,-196,16336,-2296,-3,-50,-17
8278.164,306,-196,16336,-2296,-3,-50,-17
8278.164,307,-196,16336,-2296,-3,-50,-17
8286.47,307,-196,16336,-2296,-3,-50,-17
8286.47,306,-196,16336,-2296,-3,-50,-17
8286.47,307,-196,16336,-2296,-3,-50,-17
8295.014,307,-172,16384,-2256,-82,-39,-2
8295.014,306,-172,16384,-2256,-82,-39,-2
8300.912,306,-172,16384,-2256,-82,-39,-2
8303.151,307,-172,16384,-2256,-82,-39,-2
8306.44,307,-172,16384,-2256,-82,-39,-2
8306.44,306,-172,16384,-2256,-82,-39,-2
8311.285,306,-172,16384,-2256,-82,-39,-2
8311.285,306,-156,16324,-2224,-44,-25,-13
8317.568,307,-156,16324,-2224,-44,-25,-13
8319.324999999999,306,-156,16324,-2224,-44,-25,-13
8319.324999999999,307,-156,16324,-2224,-44,-25,-13
8327.156,308,-156,16324,-2224,-44,-25,-13
8329.174,308,-156,16324,-2224,-44,-25,-13
8329.174,308,-156,16324,-2224,-44,-25,-13
8335.649,306,-208,16348,-2288,31,-31,5
8335.649,307,-208,16348,-2288,31,-31,5
8335.649,307,-208,16348,-2288,31,-31,5
8335.649,307,-208,16348,-2288,31,-31,5
8345.841999999999,308,-208,16348,-2288,31,-31,5
8349.421,307,-208,16348,-2288,31,-31,5
8350.341,307,-208,16348,-2288,31,-31,5
8352.779999999999,307,-188,16372,-2284,-58,-49,-16
8352.779999999999,307,-188,16372,-2284,-58,-49,-16
8360.545999999998,306,-188,16372,-2284,-58,-49,-16
8360.545999999998,306,-188,16372,-2284,-58,-49,-16
8366.568,307,-188,16372,-2284,-58,-49,-16
8369.695,307,-188,16372,-2284,-58,-49,-16
8369.695,308,-188,16372,-2284,-58,-49,-16
8369.695,307,-220,16392,-2224,-64,-33,-26
8377.29,307,-220,16392,-2224,-64,-33,-26
8381.176,306,-220,16392,-2224,-64,-33,-26
8383.256,307,-220,16392,-2224,-64,-33,-26
8385.792,307,-220,16392,-2224,-64,-33,-26
8387.81,308,-220,16392,-2224,-64,-33,-26
8387.81,307,-220,16392,-2224,-64,-33,-26
8394.237000000001,306,-212,16368,-2272,-6,-19,-7
8398.197,307,-212,16368,-2272,-6,-19,-7
8400.317,307,-212,16368,-2272,-6,-19,-7
8402.661,307,-212,16368,-2272,-6,-19,-7
8406.393,307,-212,16368,-2272,-6,-19,-7
8406.393,307,-212,16368,-2272,-6,-19,-7
8411.037,307,-212,16368,-2272,-6,-19,-7
8411.037,307,-212,16364,-2312,-23,-33,-27
8416.956,307,-212,16364,-2312,-23,-33,-27
8420.133,307,-212,16364,-2312,-23,-33,-27
8422.857,308,-212,16364,-2312,-23,-33,-27
8427.557999999999,308,-212,16364,-2312,-23,-33,-27
8427.557999999999,308,-212,16364,-2312,-23,-33,-27
8427.557999999999,307,-212,16364,-2312,-23,-33,-27
8427.557999999999,307,-196,16368,-2300,-63,-19,3
8435.891,307,-196,16368,-2300,-63,-19,3
8435.891,307,-196,16368,-2300,-63,-19,3
8435.891,307,-196,16368,-2300,-63,-19,3
8444.21,307,-196,16368,-2300,-63,-19,3
8444.21,308,-196,16368,-2300,-63,-19,3
8452.861,308,-196,16368,-2300,-63,-19,3
8455.535,308,-196,16380,-2260,-26,-25,-13
8455.535,307,-196,16380,-2260,-26,-25,-13
8459.752999999999,307,-196,16380,-2260,-26,-25,-13
8463.916,307,-196,16380,-2260,-26,-25,-13
8463.916,307,-196,16380,-2260,-26,-25,-13
8463.916,307,-196,16380,-2260,-26,-25,-13
8469.69,307,-196,16380,-2260,-26,-25,-13
8469.69,307,-228,16332,-2252,-27,-48,-10
8477.380000000001,307,-228,16332,-2252,-27,-48,-10
8477.380000000001,307,-228,16332,-2252,-27,-48,-10
8477.380000000001,308,-228,16332,-2252,-27,-48,-10
8485.547,308,-228,16332,-2252,-27,-48,-10
8485.547,307,-228,16332,-2252,-27,-48,-10
8485.547,307,-228,16332,-2252,-27,-48,-10
8496.705,306,-196,16316,-2292,-46,-44,-26
8496.705,307,-196,16316,-2292,-46,-44,-26
8500.298,307,-196,16316,-2292,-46,-44,-26
8503.417000000001,307,-196,16316,-2292,-46,-44,-26
8505.428,307,-196,16316,-2292,-46,-44,-26
8509.447,308,-196,16316,-2292,-46,-44,-26
8512.458,307,-196,16316,-2292,-46,-44,-26
8517.014,307,-196,16340,-2252,-54,-41,-23
8517.014,307,-196,16340,-2252,-54,-41,-23
8518.775,307,-196,16340,-2252,-54,-41,-23
8518.775,308,-196,16340,-2252,-54,-41,-23
8526.806,307,-196,16340,-2252,-54,-41,-23
8528.82,307,-196,16340,-2252,-54,-41,-23
8533.117,307,-196,16340,-2252,-54,-41,-23
8537.565,307,-216,16340,-2276,-24,-29,-19
8537.565,307,-216,16340,-2276,-24,-29,-19
8537.565,307,-216,16340,-2276,-24,-29,-19
8545.315999999999,308,-216,16340,-2276,-24,-29,-19
8547.331,308,-216,16340,-2276,-24,-29,-19
8550.282,308,-216,16340,-2276,-24,-29,-19
8551.794,306,-204,16332,-2244,-23,-27,-21
8551.794,306,-204,16332,-2244,-23,-27,-21
8551.794,306,-204,16332,-2244,-23,-27,-21
8560.050000000001,307,-204,16332,-2244,-23,-27,-21
8560.050000000001,307,-204,16332,-2244,-23,-27,-21
8560.050000000001,307,-204,16332,-2244,-23,-27,-21
8568.827000000001,306,-204,16332,-2244,-23,-27,-21
8568.827000000001,307,-184,16336,-2304,-34,-40,5
8576.492,306,-184,16336,-2304,-34,-40,5
8578.502,306,-184,16336,-2304,-34,-40,5
8580.609,307,-184,16336,-2304,-34,-40,5
8584.756000000001,307,-184,16336,-2304,-34,-40,5
8584.756000000001,307,-184,16336,-2304,-34,-40,5
8584.756000000001,307,-184,16336,-2304,-34,-40,5
8592.985999999999,307,-176,16332,-2288,-34,-47,-7
8592.985999999999,306,-176,16332,-2288,-34,-47,-7
8597.255000000001,307,-176,16332,-2288,-34,-47,-7
8601.773,307,-176,16332,-2288,-34,-47,-7
8601.773,307,-176,16332,-2288,-34,-47,-7
8601.773,308,-176,16332,-2288,-34,-47,-7
8611.52,308,-176,16332,-2288,-34,-47,-7
8611.52,308,-176,16332,-2288,-34,-47,-7
8614.327,307,-244,16364,-2280,-39,-60,-6
8617.555,307,-244,16364,-2280,-39,-60,-6
8617.555,307,-244,16364,-2280,-39,-60,-6
8617.555,307,-244,16364,-2280,-39,-60,-6
8625.662,307,-244,16364,-2280,-39,-60,-6
8625.662,307,-244,16364,-2280,-39,-60,-6
8625.662,307,-244,16364,-2280,-39,-60,-6
8634.869999999999,307,-224,16324,-2276,-42,-34,-5
8640.286,307,-224,16324,-2276,-42,-34,-5
8642.043,308,-224,16324,-2276,-42,-34,-5
8644.244,308,-224,16324,-2276,-42,-34,-5
8644.244,307,-224,16324,-2276,-42,-34,-5
8649.516,308,-224,16324,-2276,-42,-34,-5
8652.194,307,-224,16324,-2276,-42,-34,-5
8652.194,306,-200,16280,-2216,-41,-44,-18
8659.91,307,-200,16280,-2216,-41,-44,-18
8659.91,307,-200,16280,-2216,-41,-44,-18
8659.91,307,-200,16280,-2216,-41,-44,-18
8667.172,307,-200,16280,-2216,-41,-44,-18
8667.172,307,-200,16280,-2216,-41,-44,-18
8667.172,307,-200,16280,-2216,-41,-44,-18
8677.22,307,-188,16332,-2304,-34,-34,-7
8680.498,308,-188,16332,-2304,-34,-34,-7
8680.498,307,-188,16332,-2304,-34,-34,-7
8684.77,308,-188,16332,-2304,-34,-34,-7
8688.878,308,-188,16332,-2304,-34,-34,-7
8688.878,308,-188,16332,-2304,-34,-34,-7
8693.9,307,-188,16332,-2304,-34,-34,-7
8693.9,307,-200,16328,-2260,-20,-27,-6
8699.315999999999,307,-200,16328,-2260,-20,-27,-6
8702.393,307,-200,16328,-2260,-20,-27,-6
8704.409,307,-200,16328,-2260,-20,-27,-6
8708.432999999999,307,-200,16328,-2260,-20,-27,-6
8708.432999999999,308,-200,16328,-2260,-20,-27,-6
8708.432999999999,308,-200,16328,-2260,-20,-27,-6
8716.478000000001,308,-236,16336,-2260,-31,-24,11
8716.478000000001,308,-236,16336,-2260,-31,-24,11
8716.478000000001,308,-236,16336,-2260,-31,-24,11
8724.863,308,-236,16336,-2260,-31,-24,11
8724.863,307,-236,16336,-2260,-31,-24,11
8724.863,308,-236,16336,-2260,-31,-24,11
8732.83,307,-236,16336,-2260,-31,-24,11
8734.970000000001,306,-212,16340,-2280,-39,-32,18
8734.970000000001,307,-212,16340,-2280,-39,-32,18
8741.287,307,-212,16340,-2280,-39,-32,18
8741.287,307,-212,16340,-2280,-39,-32,18
8747.939,307,-212,16340,-2280,-39,-32,18
8751.125,308,-212,16340,-2280,-39,-32,18
8751.125,308,-212,16340,-2280,-39,-32,18
8751.125,307,-192,16360,-2240,-7,-36,-23
8757.114,307,-192,16360,-2240,-7,-36,-23
8760.173,308,-192,16360,-2240,-7,-36,-23
8760.173,308,-192,16360,-2240,-7,-36,-23
8766.223,308,-192,16360,-2240,-7,-36,-23
8766.223,308,-192,16360,-2240,-7,-36,-23
8766.223,307,-192,16360,-2240,-7,-36,-23
8774.963,308,-208,16404,-2268,-56,-27,-3
8774.963,308,-208,16404,-2268,-56,-27,-3
8782.216999999999,308,-208,16404,-2268,-56,-27,-3
8783.663,308,-208,16404,-2268,-56,-27,-3
8783.663,308,-208,16404,-2268,-56,-27,-3
8791.518999999998,308,-208,16404,-2268,-56,-27,-3
8791.518999999998,308,-208,16404,-2268,-56,-27,-3
8791.518999999998,307,-224,16284,-2276,-78,-25,-15
8799.081,307,-224,16284,-2276,-78,-25,-15
8800.878,307,-224,16284,-2276,-78,-25,-15
8800.878,308,-224,16284,-2276,-78,-25,-15
8806.31,308,-224,16284,-2276,-78,-25,-15
8806.31,308,-224,16284,-2276,-78,-25,-15
8806.31,307,-224,16284,-2276,-78,-25,-15
8816.631,307,-228,16308,-2256,27,-18,-20
8820.188999999998,307,-228,16308,-2256,27,-18,-20
8820.188999999998,307,-228,16308,-2256,27,-18,-20
8823.708,308,-228,16308,-2256,27,-18,-20
8823.708,308,-228,16308,-2256,27,-18,-20
8830.966999999999,308,-228,16308,-2256,27,-18,-20
8832.511999999999,308,-228,16308,-2256,27,-18,-20
8835.648000000001,307,-212,16352,-2264,-25,-39,-9
8839.425000000001,307,-212,16352,-2264,-25,-39,-9
8841.443,307,-212,16352,-2264,-25,-39,-9
8845.478,308,-212,16352,-2264,-25,-39,-9
8847.493999999999,309,-212,16352,-2264,-25,-39,-9
8849.509,308,-212,16352,-2264,-25,-39,-9
8853.551,308,-212,16352,-2264,-25,-39,-9
8855.572,308,-196,16348,-2292,-74,-44,2
8857.587000000001,307,-196,16348,-2292,-74,-44,2
8862.134,307,-196,16348,-2292,-74,-44,2
8863.898000000001,308,-196,16348,-2292,-74,-44,2
8865.913,307,-196,16348,-2292,-74,-44,2
8869.947,308,-196,16348,-2292,-74,-44,2
8871.964,308,-196,16348,-2292,-74,-44,2
8873.976,308,-240,16304,-2268,-4,-15,-12
8878.009,307,-240,16304,-2268,-4,-15,-12
8882.399,307,-240,16304,-2268,-4,-15,-12
8883.473,308,-240,16304,-2268,-4,-15,-12
8885.487,308,-240,16304,-2268,-4,-15,-12
8889.238000000001,308,-240,16304,-2268,-4,-15,-12
8893.269999999999,308,-240,16304,-2268,-4,-15,-12
8895.283,307,-208,16384,-2272,-19,-40,-3
8898.821999999998,307,-208,16384,-2272,-19,-40,-3
8902.296,307,-208,16384,-2272,-19,-40,-3
8904.313999999998,308,-208,16384,-2272,-19,-40,-3
8906.333,307,-208,16384,-2272,-19,-40,-3
8910.368,307,-208,16384,-2272,-19,-40,-3
8912.387,307,-208,16384,-2272,-19,-40,-3
8914.402,307,-248,16436,-2248,-80,-32,6
8918.426,307,-248,16436,-2248,-80,-32,6
8920.235,308,-248,16436,-2248,-80,-32,6
8920.235,308,-248,16436,-2248,-80,-32,6
8926.085000000001,308,-248,16436,-2248,-80,-32,6
8928.104,308,-248,16436,-2248,-80,-32,6
8930.122000000001,308,-248,16436,-2248,-80,-32,6
8934.153999999999,308,-208,16360,-2228,-32,-21,-16
8938.186,308,-208,16360,-2228,-32,-21,-16
8940.204,307,-208,16360,-2228,-32,-21,-16
8942.223,307,-208,16360,-2228,-32,-21,-16
8946.253,308,-208,16360,-2228,-32,-21,-16
8948.268,309,-208,16360,-2228,-32,-21,-16
8948.268,308,-208,16360,-2228,-32,-21,-16
8952.697,308,-224,16308,-2248,-3,-36,-7
8952.697,307,-224,16308,-2248,-3,-36,-7
8960.046999999999,308,-224,16308,-2248,-3,-36,-7
8963.087,307,-224,16308,-2248,-3,-36,-7
8965.101,307,-224,16308,-2248,-3,-36,-7
8967.116,307,-224,16308,-2248,-3,-36,-7
8971.027,307,-224,16308,-2248,-3,-36,-7
8973.045,308,-224,16308,-2248,-3,-36,-7
8975.063,307,-236,16312,-2280,-84,-46,-14
8977.080000000002,307,-236,16312,-2280,-84,-46,-14
8982.332,307,-236,16312,-2280,-84,-46,-14
8985.567,307,-236,16312,-2280,-84,-46,-14
8985.567,307,-236,16312,-2280,-84,-46,-14
8985.567,308,-236,16312,-2280,-84,-46,-14
8993.872,307,-236,16368,-2224,-45,-34,-16
8993.872,307,-236,16368,-2224,-45,-34,-16
8993.872,307,-236,16368,-2224,-45,-34,-16
9004.227,307,-236,16368,-2224,-45,-34,-16
9004.227,307,-236,16368,-2224,-45,-34,-16
9004.227,307,-236,16368,-2224,-45,-34,-16
9012.442000000001,307,-236,16368,-2224,-45,-34,-16
9012.442000000001,307,-232,16296,-2276,7,-32,-35
9015.646,307,-232,16296,-2276,7,-32,-35
9018.302,308,-232,16296,-2276,7,-32,-35
9018.302,308,-232,16296,-2276,7,-32,-35
9018.302,307,-232,16296,-2276,7,-32,-35
9028.869999999999,308,-232,16296,-2276,7,-32,-35
9030.502999999999,307,-232,16296,-2276,7,-32,-35
9030.502999999999,307,-232,16296,-2276,7,-32,-35
9034.537999999999,308,-224,16384,-2292,-66,-18,-12
9034.537999999999,307,-224,16384,-2292,-66,-18,-12
9042.662,307,-224,16384,-2292,-66,-18,-12
9045.295,308,-224,16384,-2292,-66,-18,-12
9045.295,307,-224,16384,-2292,-66,-18,-12
9050.884,307,-224,16384,-2292,-66,-18,-12
9054.928,307,-224,16384,-2292,-66,-18,-12
9057.616,307,-244,16356,-2276,-53,-47,-9
9060.465,307,-244,16356,-2276,-53,-47,-9
9060.465,307,-244,16356,-2276,-53,-47,-9
9060.465,307,-244,16356,-2276,-53,-47,-9
9067.38,307,-244,16356,-2276,-53,-47,-9
9067.38,308,-244,16356,-2276,-53,-47,-9
9067.38,307,-244,16356,-2276,-53,-47,-9
9075.938,306,-228,16308,-2292,-6,-30,-24
9075.938,307,-228,16308,-2292,-6,-30,-24
9075.938,306,-228,16308,-2292,-6,-30,-24
9084.206,307,-228,16308,-2292,-6,-30,-24
9084.206,308,-228,16308,-2292,-6,-30,-24
9084.206,308,-228,16308,-2292,-6,-30,-24
9092.677,307,-228,16308,-2292,-6,-30,-24
9092.677,307,-184,16332,-2316,-69,-27,-24
9100.875,307,-184,16332,-2316,-69,-27,-24
9103.043,307,-184,16332,-2316,-69,-27,-24
9103.043,308,-184,16332,-2316,-69,-27,-24
9109.042000000001,307,-184,16332,-2316,-69,-27,-24
9110.879,307,-184,16332,-2316,-69,-27,-24
9110.879,307,-188,16384,-2232,-72,-33,-2
9117.322,307,-188,16384,-2232,-72,-33,-2
9117.322,308,-188,16384,-2232,-72,-33,-2
9117.322,307,-188,16384,-2232,-72,-33,-2
9125.78,307,-188,16384,-2232,-72,-33,-2
9125.78,307,-188,16384,-2232,-72,-33,-2
9125.78,307,-188,16384,-2232,-72,-33,-2
9134.145999999999,307,-188,16384,-2232,-72,-33,-2
9134.145999999999,307,-236,16304,-2272,-27,-35,-17
9134.145999999999,308,-236,16304,-2272,-27,-35,-17
9142.385,308,-236,16304,-2272,-27,-35,-17
9142.385,307,-236,16304,-2272,-27,-35,-17
9151.692000000001,307,-236,16304,-2272,-27,-35,-17
9154.030999999999,309,-236,16304,-2272,-27,-35,-17
9156.15,308,-272,16344,-2276,-33,-30,3
9158.429,307,-272,16344,-2276,-33,-30,3
9160.657000000001,307,-272,16344,-2276,-33,-30,3
9163.793,308,-272,16344,-2276,-33,-30,3
9165.808,307,-272,16344,-2276,-33,-30,3
9166.99,308,-272,16344,-2276,-33,-30,3
9166.99,307,-272,16344,-2276,-33,-30,3
9166.99,307,-272,16344,-2276,-33,-30,3
9176.583,307,-204,16364,-2272,-52,-29,-6
9176.583,307,-204,16364,-2272,-52,-29,-6
9183.892,307,-204,16364,-2272,-52,-29,-6
9183.892,308,-204,16364,-2272,-52,-29,-6
9183.892,308,-204,16364,-2272,-52,-29,-6
9191.105,308,-204,16364,-2272,-52,-29,-6
9193.122000000001,308,-204,16364,-2272,-52,-29,-6
9196.895,307,-220,16308,-2276,-9,-43,-11
9200.677000000001,307,-220,16308,-2276,-9,-43,-11
9202.152999999998,307,-220,16308,-2276,-9,-43,-11
9205.113000000001,307,-220,16308,-2276,-9,-43,-11
9207.364,307,-220,16308,-2276,-9,-43,-11
9207.364,307,-220,16308,-2276,-9,-43,-11
9207.364,307,-220,16308,-2276,-9,-43,-11
9217.707,307,-184,16348,-2260,-43,-26,-10
9221.597,308,-184,16348,-2260,-43,-26,-10
9223.675,307,-184,16348,-2260,-43,-26,-10
9223.675,307,-184,16348,-2260,-43,-26,-10
9223.675,307,-184,16348,-2260,-43,-26,-10
9231.85,308,-184,16348,-2260,-43,-26,-10
9233.494999999999,307,-184,16348,-2260,-43,-26,-10
9235.999,306,-200,16380,-2224,-59,-44,-19
9241.930999999999,307,-200,16380,-2224,-59,-44,-19
9241.930999999999,307,-200,16380,-2224,-59,-44,-19
9241.930999999999,307,-200,16380,-2224,-59,-44,-19
9249.064,308,-200,16380,-2224,-59,-44,-19
9249.064,308,-200,16380,-2224,-59,-44,-19
9249.064,307,-200,16380,-2224,-59,-44,-19
9258.514,307,-164,16360,-2276,-42,-38,-16
9261.074,306,-164,16360,-2276,-42,-38,-16
9264.677000000001,306,-164,16360,-2276,-42,-38,-16
9264.677000000001,307,-164,16360,-2276,-42,-38,-16
9264.677000000001,307,-164,16360,-2276,-42,-38,-16
9272.752,308,-164,16360,-2276,-42,-38,-16
9274.621,307,-256,16332,-2260,-21,-36,-9
9274.621,307,-256,16332,-2260,-21,-36,-9
9282.791,307,-256,16332,-2260,-21,-36,-9
9282.791,307,-256,16332,-2260,-21,-36,-9
9286.383000000002,307,-256,16332,-2260,-21,-36,-9
9289.015,307,-256,16332,-2260,-21,-36,-9
9289.015,307,-256,16332,-2260,-21,-36,-9
9289.015,307,-172,16336,-2312,-22,-24,-17
9297.277,306,-172,16336,-2312,-22,-24,-17
9301.175000000001,307,-172,16336,-2312,-22,-24,-17
9302.071,308,-172,16336,-2312,-22,-24,-17
9305.532,308,-172,16336,-2312,-22,-24,-17
9305.532,308,-172,16336,-2312,-22,-24,-17
9313.751,307,-172,16336,-2312,-22,-24,-17
9313.751,306,-220,16356,-2276,-64,-33,-10
9319.174,307,-220,16356,-2276,-64,-33,-10
9322.024000000001,308,-220,16356,-2276,-64,-33,-10
9325.121,307,-220,16356,-2276,-64,-33,-10
9327.621000000001,308,-220,16356,-2276,-64,-33,-10
9330.99,308,-220,16356,-2276,-64,-33,-10
9330.99,308,-220,16356,-2276,-64,-33,-10
9334.97,307,-220,16376,-2288,-17,-40,8
9338.824,308,-220,16376,-2288,-17,-40,8
9338.824,307,-220,16376,-2288,-17,-40,8
9338.824,307,-220,16376,-2288,-17,-40,8
9347.366,308,-220,16376,-2288,-17,-40,8
9350.243,308,-220,16376,-2288,-17,-40,8
9350.243,309,-220,16376,-2288,-17,-40,8
9355.517000000002,307,-188,16312,-2320,-32,-19,15
9355.517000000002,307,-188,16312,-2320,-32,-19,15
9361.057,307,-188,16312,-2320,-32,-19,15
9363.795,307,-188,16312,-2320,-32,-19,15
9363.795,307,-188,16312,-2320,-32,-19,15
9368.833999999999,307,-188,16312,-2320,-32,-19,15
9372.286,308,-188,16312,-2320,-32,-19,15
9372.286,307,-172,16340,-2284,-35,-29,14
9372.286,307,-172,16340,-2284,-35,-29,14
9380.742,307,-172,16340,-2284,-35,-29,14
9380.742,307,-172,16340,-2284,-35,-29,14
9387.848999999998,307,-172,16340,-2284,-35,-29,14
9389.451,307,-172,16340,-2284,-35,-29,14
9389.451,307,-172,16340,-2284,-35,-29,14
9389.451,306,-172,16340,-2284,-35,-29,14
9396.92,307,-208,16332,-2284,-54,-40,-20
9399.489000000001,307,-208,16332,-2284,-54,-40,-20
9404.329,308,-208,16332,-2284,-54,-40,-20
9405.349,308,-208,16332,-2284,-54,-40,-20
9405.349,308,-208,16332,-2284,-54,-40,-20
9413.368999999999,307,-208,16332,-2284,-54,-40,-20
9416.207,307,-200,16280,-2256,-42,-41,-13
