Time (ms),EMG,AccX,AccY,AccZ,GyroX,GyroY,GyroZ
1.398,308,40,16500,-2464,314,-39,-22
3.4050000000000002,308,40,16500,-2464,314,-39,-22
4.136,307,40,16500,-2464,314,-39,-22
4.832999999999999,308,40,16500,-2464,314,-39,-22
1550.001,0,0,0,0,0,0,0
1550.001,307,0,0,0,0,0,0
1550.001,308,0,0,0,0,0,0
1550.001,308,0,0,0,0,0,0
1550.001,308,0,0,0,0,0,0
1556.824,308,0,0,0,0,0,0
1557.325,307,0,0,0,0,0,0
1559.249,307,0,0,0,0,0,0
1560.915,307,0,0,0,0,0,0
1562.0430000000001,307,0,0,0,0,0,0
1562.0430000000001,307,0,0,0,0,0,0
1562.0430000000001,307,0,0,0,0,0,0
1562.0430000000001,307,0,0,0,0,0,0
1567.6000000000001,308,0,0,0,0,0,0
1567.6000000000001,308,0,0,0,0,0,0
1567.6000000000001,307,0,0,0,0,0,0
1572.972,307,0,0,0,0,0,0
1572.972,308,0,0,0,0,0,0
1575.691,308,28,16328,-2360,-47,-30,-14
1579.342,307,28,16328,-2360,-47,-30,-14
1579.342,308,28,16328,-2360,-47,-30,-14
1584.147,307,28,16328,-2360,-47,-30,-14
1587.059,307,28,16328,-2360,-47,-30,-14
1588.269,307,28,16328,-2360,-47,-30,-14
1593.556,308,28,16328,-2360,-47,-30,-14
1595.346,308,28,16328,-2360,-47,-30,-14
1595.346,308,28,16308,-2424,-49,-47,16
1600.233,308,28,16308,-2424,-49,-47,16
1604.211,308,28,16308,-2424,-49,-47,16
1606.381,308,28,16308,-2424,-49,-47,16
1608.305,308,28,16308,-2424,-49,-47,16
1609.831,307,28,16308,-2424,-49,-47,16
1609.831,308,28,16308,-2424,-49,-47,16
1609.831,307,-44,16328,-2368,-33,-43,-6
1620.46,308,-44,16328,-2368,-33,-43,-6
1622.03,308,-44,16328,-2368,-33,-43,-6
1622.03,307,-44,16328,-2368,-33,-43,-6
1628.1460000000002,308,-44,16328,-2368,-33,-43,-6
1631.464,308,-44,16328,-2368,-33,-43,-6
1633.667,308,-44,16328,-2368,-33,-43,-6
1636.055,308,0,16336,-2376,-27,-31,-22
1636.055,308,0,16336,-2376,-27,-31,-22
1636.055,308,0,16336,-2376,-27,-31,-22
1644.512,308,0,16336,-2376,-27,-31,-22
1644.512,307,0,16336,-2376,-27,-31,-22
1649.963,308,0,16336,-2376,-27,-31,-22
1651.3629999999998,307,0,16336,-2376,-27,-31,-22
1651.3629999999998,307,0,16336,-2376,-27,-31,-22
1656.49,308,-4,16344,-2412,-9,-43,-15
1659.2579999999998,308,-4,16344,-2412,-9,-43,-15
1661.8980000000001,308,-4,16344,-2412,-9,-43,-15
1664.9879999999998,308,-4,16344,-2412,-9,-43,-15
1668.8899999999999,308,-4,16344,-2412,-9,-43,-15
1668.8899999999999,308,-4,16344,-2412,-9,-43,-15
1673.238,308,-4,16344,-2412,-9,-43,-15
1675.583,308,-16,16380,-2340,-60,-26,-7
1679.567,308,-16,16380,-2340,-60,-26,-7
1681.17,308,-16,16380,-2340,-60,-26,-7
1681.17,308,-16,16380,-2340,-60,-26,-7
1681.17,307,-16,16380,-2340,-60,-26,-7
1689.4,308,-16,16380,-2340,-60,-26,-7
1689.4,308,-16,16380,-2340,-60,-26,-7
1696.015,307,-16,16380,-2340,-60,-26,-7
1698.458,308,-12,16296,-2352,-33,-30,-18
1701.813,307,-12,16296,-2352,-33,-30,-18
1705.509,308,-12,16296,-2352,-33,-30,-18
1707.3970000000002,308,-12,16296,-2352,-33,-30,-18
1709.415,308,-12,16296,-2352,-33,-30,-18
1713.446,308,-12,16296,-2352,-33,-30,-18
1715.98,308,-12,16296,-2352,-33,-30,-18
1717.012,308,4,16264,-2388,-43,-22,-9
1721.925,308,4,16264,-2388,-43,-22,-9
1721.925,308,4,16264,-2388,-43,-22,-9
1726.4109999999998,307,4,16264,-2388,-43,-22,-9
1728.511,308,4,16264,-2388,-43,-22,-9
1730.2900000000002,308,4,16264,-2388,-43,-22,-9
1734.779,308,4,16264,-2388,-43,-22,-9
1736.277,308,36,16344,-2380,-14,-25,-5
1737.002,307,36,16344,-2380,-14,-25,-5
1737.002,308,36,16344,-2380,-14,-25,-5
1744.9840000000002,307,36,16344,-2380,-14,-25,-5
1745.5529999999999,307,36,16344,-2380,-14,-25,-5
1748.732,307,36,16344,-2380,-14,-25,-5
1748.732,307,36,16344,-2380,-14,-25,-5
1748.732,308,36,16344,-2380,-14,-25,-5
1756.665,308,-16,16332,-2316,-36,-48,-11
1761.69,307,-16,16332,-2316,-36,-48,-11
1763.5449999999998,307,-16,16332,-2316,-36,-48,-11
1765.1200000000001,308,-16,16332,-2316,-36,-48,-11
1765.1200000000001,308,-16,16332,-2316,-36,-48,-11
1772.362,308,-16,16332,-2316,-36,-48,-11
1773.094,307,-16,16332,-2316,-36,-48,-11
1778.5,307,16,16308,-2392,-37,-36,-7
1779.866,307,16,16308,-2392,-37,-36,-7
1783.5149999999999,308,16,16308,-2392,-37,-36,-7
1785.5049999999999,308,16,16308,-2392,-37,-36,-7
1787.78,308,16,16308,-2392,-37,-36,-7
1790.143,307,16,16308,-2392,-37,-36,-7
1793.232,308,16,16308,-2392,-37,-36,-7
1794.982,308,16,16320,-2368,-35,-42,7
1798.6899999999998,307,16,16320,-2368,-35,-42,7
1801.78,308,16,16320,-2368,-35,-42,7
1803.49,307,16,16320,-2368,-35,-42,7
1803.49,307,16,16320,-2368,-35,-42,7
1806.8090000000002,308,16,16320,-2368,-35,-42,7
1811.661,307,16,16320,-2368,-35,-42,7
1812.661,307,16,16320,-2368,-35,-42,7
1815.172,308,8,16360,-2328,-6,-34,-4
1820.545,308,8,16360,-2328,-6,-34,-4
1820.545,307,8,16360,-2328,-6,-34,-4
1823.258,307,8,16360,-2328,-6,-34,-4
1825.273,308,8,16360,-2328,-6,-34,-4
1827.163,307,8,16360,-2328,-6,-34,-4
1832.287,307,8,16360,-2328,-6,-34,-4
1832.287,308,8,16360,-2328,-6,-34,-4
1836.603,308,8,16396,-2380,-57,-43,-9
1837.269,307,8,16396,-2380,-57,-43,-9
1839.6129999999998,307,8,16396,-2380,-57,-43,-9
1844.861,307,8,16396,-2380,-57,-43,-9
1844.861,308,8,16396,-2380,-57,-43,-9
1847.808,308,8,16396,-2380,-57,-43,-9
1851.753,308,8,16396,-2380,-57,-43,-9
1851.753,307,8,16396,-2380,-57,-43,-9
1856.0529999999999,307,-20,16280,-2408,-20,-53,13
1860.287,307,-20,16280,-2408,-20,-53,13
1860.287,307,-20,16280,-2408,-20,-53,13
1864.6560000000002,308,-20,16280,-2408,-20,-53,13
1869.728,308,-20,16280,-2408,-20,-53,13
1869.728,307,-20,16280,-2408,-20,-53,13
1873.656,308,-20,16280,-2408,-20,-53,13
1876.4050000000002,308,-24,16356,-2380,-41,-38,5
1876.4050000000002,307,-24,16356,-2380,-41,-38,5
1881.226,307,-24,16356,-2380,-41,-38,5
1881.226,307,-24,16356,-2380,-41,-38,5
1887.304,308,-24,16356,-2380,-41,-38,5
1889.467,307,-24,16356,-2380,-41,-38,5
1893.404,308,-24,16356,-2380,-41,-38,5
1894.877,308,-24,16356,-2380,-41,-38,5
1898.251,307,16,16396,-2344,-6,-50,-11
1900.53,308,16,16396,-2344,-6,-50,-11
1902.2730000000001,307,16,16396,-2344,-6,-50,-11
1906.365,307,16,16396,-2344,-6,-50,-11
1906.365,308,16,16396,-2344,-6,-50,-11
1910.617,307,16,16396,-2344,-6,-50,-11
1914.614,307,16,16396,-2344,-6,-50,-11
1916.2459999999999,307,56,16316,-2380,-48,-50,-12
1917.254,307,56,16316,-2380,-48,-50,-12
1923.2769999999998,308,56,16316,-2380,-48,-50,-12
1923.2769999999998,307,56,16316,-2380,-48,-50,-12
1927.446,308,56,16316,-2380,-48,-50,-12
1931.786,307,56,16316,-2380,-48,-50,-12
1932.6460000000002,308,56,16316,-2380,-48,-50,-12
1934.462,308,56,16316,-2380,-48,-50,-12
1937.835,308,4,16304,-2340,-21,-38,19
1939.908,308,4,16304,-2340,-21,-38,19
1942.7369999999999,307,4,16304,-2340,-21,-38,19
1945.394,308,4,16304,-2340,-21,-38,19
1947.965,307,4,16304,-2340,-21,-38,19
1947.965,308,4,16304,-2340,-21,-38,19
1954.532,308,4,16304,-2340,-21,-38,19
1956.509,307,4,16348,-2396,-47,-43,-20
1959.3529999999998,307,4,16348,-2396,-47,-43,-20
1960.7079999999999,307,4,16348,-2396,-47,-43,-20
1964.6390000000001,307,4,16348,-2396,-47,-43,-20
1968.052,308,4,16348,-2396,-47,-43,-20
1968.052,308,4,16348,-2396,-47,-43,-20
1972.79,307,4,16348,-2396,-47,-43,-20
1976.009,308,4,16348,-2396,-47,-43,-20
1976.009,308,-64,16344,-2404,-21,-45,-11
1978.8909999999998,307,-64,16344,-2404,-21,-45,-11
1981.585,307,-64,16344,-2404,-21,-45,-11
1981.585,308,-64,16344,-2404,-21,-45,-11
1990.29,308,-64,16344,-2404,-21,-45,-11
1990.29,307,-64,16344,-2404,-21,-45,-11
1996.537,307,-64,16344,-2404,-21,-45,-11
1997.5,307,-8,16324,-2364,-45,-43,-6
2000.63,307,-8,16324,-2364,-45,-43,-6
2000.63,308,-8,16324,-2364,-45,-43,-6
2006.5430000000001,308,-8,16324,-2364,-45,-43,-6
2008.559,307,-8,16324,-2364,-45,-43,-6
2012.944,307,-8,16324,-2364,-45,-43,-6
2015.133,308,-8,16324,-2364,-45,-43,-6
2015.133,308,-28,16296,-2424,-51,-29,-14
2015.133,308,-28,16296,-2424,-51,-29,-14
2015.133,307,-28,16296,-2424,-51,-29,-14
2025.264,307,-28,16296,-2424,-51,-29,-14
2028.3790000000001,307,-28,16296,-2424,-51,-29,-14
2028.3790000000001,307,-28,16296,-2424,-51,-29,-14
2031.209,308,-28,16296,-2424,-51,-29,-14
2036.7459999999999,308,24,16300,-2324,-24,-46,-11
2038.56,307,24,16300,-2324,-24,-46,-11
2039.539,308,24,16300,-2324,-24,-46,-11
2045.591,308,24,16300,-2324,-24,-46,-11
2045.591,307,24,16300,-2324,-24,-46,-11
2049.638,308,24,16300,-2324,-24,-46,-11
2049.638,308,24,16300,-2324,-24,-46,-11
2049.638,308,24,16300,-2324,-24,-46,-11
2057.983,308,-8,16340,-2344,-25,-46,-2
2060.6330000000003,307,-8,16340,-2344,-25,-46,-2
2060.6330000000003,307,-8,16340,-2344,-25,-46,-2
2066.161,307,-8,16340,-2344,-25,-46,-2
2069.661,307,-8,16340,-2344,-25,-46,-2
2071.614,308,-8,16340,-2344,-25,-46,-2
2074.453,308,-8,16340,-2344,-25,-46,-2
2076.8970000000004,308,4,16404,-2388,-34,-38,-22
2079.286,308,4,16404,-2388,-34,-38,-22
2082.563,307,4,16404,-2388,-34,-38,-22
2084.319,307,4,16404,-2388,-34,-38,-22
2087.446,308,4,16404,-2388,-34,-38,-22
2090.337,307,4,16404,-2388,-34,-38,-22
2094.331,308,4,16404,-2388,-34,-38,-22
2094.331,308,4,16404,-2388,-34,-38,-22
2098.654,307,-24,16308,-2368,-33,-49,-12
2098.654,307,-24,16308,-2368,-33,-49,-12
2098.654,307,-24,16308,-2368,-33,-49,-12
2106.283,308,-24,16308,-2368,-33,-49,-12
2111.1620000000003,307,-24,16308,-2368,-33,-49,-12
2111.1620000000003,307,-24,16308,-2368,-33,-49,-12
2115.3019999999997,308,-24,16308,-2368,-33,-49,-12
2119.43,308,-16,16308,-2392,-42,-51,-1
2119.43,307,-16,16308,-2392,-42,-51,-1
2123.755,308,-16,16308,-2392,-42,-51,-1
2127.02,308,-16,16308,-2392,-42,-51,-1
2127.02,307,-16,16308,-2392,-42,-51,-1
2127.02,307,-16,16308,-2392,-42,-51,-1
2135.79,307,-16,16308,-2392,-42,-51,-1
2136.803,308,4,16368,-2408,-27,-32,-8
2136.803,307,4,16368,-2408,-27,-32,-8
2144.094,307,4,16368,-2408,-27,-32,-8
2145.245,308,4,16368,-2408,-27,-32,-8
2148.04,307,4,16368,-2408,-27,-32,-8
2150.442,307,4,16368,-2408,-27,-32,-8
2150.442,307,4,16368,-2408,-27,-32,-8
2156.26,308,4,16368,-2408,-27,-32,-8
2157.271,308,-4,16372,-2404,-18,-56,4
2160.2760000000003,308,-4,16372,-2404,-18,-56,4
2164.468,307,-4,16372,-2404,-18,-56,4
2165.482,307,-4,16372,-2404,-18,-56,4
2165.482,307,-4,16372,-2404,-18,-56,4
2172.654,308,-4,16372,-2404,-18,-56,4
2173.665,307,-4,16372,-2404,-18,-56,4
2176.087,307,-4,16372,-2404,-18,-56,4
2177.96,307,0,16312,-2404,-52,-44,-1
2180.933,308,0,16312,-2404,-52,-44,-1
2181.944,307,0,16312,-2404,-52,-44,-1
2181.944,307,0,16312,-2404,-52,-44,-1
2189.028,308,0,16312,-2404,-52,-44,-1
2193.172,308,0,16312,-2404,-52,-44,-1
2193.48,309,0,16312,-2404,-52,-44,-1
2197.2619999999997,307,8,16284,-2384,-27,-45,-4
2198.493,307,8,16284,-2384,-27,-45,-4
2198.493,308,8,16284,-2384,-27,-45,-4
2205.269,307,8,16284,-2384,-27,-45,-4
2206.78,308,8,16284,-2384,-27,-45,-4
2209.9570000000003,308,8,16284,-2384,-27,-45,-4
2213.584,308,8,16284,-2384,-27,-45,-4
2213.584,309,8,16284,-2384,-27,-45,-4
2217.149,308,20,16376,-2356,-34,-26,-3
2217.149,308,20,16376,-2356,-34,-26,-3
2223.1079999999997,307,20,16376,-2356,-34,-26,-3
2225.12,307,20,16376,-2356,-34,-26,-3
2229.987,307,20,16376,-2356,-34,-26,-3
2229.987,308,20,16376,-2356,-34,-26,-3
2234.081,308,20,16376,-2356,-34,-26,-3
2237.234,308,20,16376,-2356,-34,-26,-3
2239.1040000000003,308,-44,16296,-2368,-48,-28,-26
2242.892,307,-44,16296,-2368,-48,-28,-26
2246.382,307,-44,16296,-2368,-48,-28,-26
2246.382,308,-44,16296,-2368,-48,-28,-26
2250.092,308,-44,16296,-2368,-48,-28,-26
2254.563,308,-44,16296,-2368,-48,-28,-26
2254.563,308,-44,16296,-2368,-48,-28,-26
2258.116,307,24,16296,-2380,-27,-34,4
2259.458,308,24,16296,-2380,-27,-34,4
2259.458,307,24,16296,-2380,-27,-34,4
2266.9120000000003,308,24,16296,-2380,-27,-34,4
2266.9120000000003,308,24,16296,-2380,-27,-34,4
2266.9120000000003,308,24,16296,-2380,-27,-34,4
2275.0840000000003,308,24,16296,-2380,-27,-34,4
2276.569,308,4,16288,-2388,-37,-38,-18
2277.961,307,4,16288,-2388,-37,-38,-18
2283.3160000000003,308,4,16288,-2388,-37,-38,-18
2283.3160000000003,307,4,16288,-2388,-37,-38,-18
2287.328,307,4,16288,-2388,-37,-38,-18
2291.3779999999997,308,4,16288,-2388,-37,-38,-18
2293.3880000000004,308,4,16288,-2388,-37,-38,-18
2295.4379999999996,308,4,16288,-2388,-37,-38,-18
2299.582,308,-8,16336,-2388,-20,-32,-24
2299.582,307,-8,16336,-2388,-20,-32,-24
2303.7200000000003,307,-8,16336,-2388,-20,-32,-24
2308.059,307,-8,16336,-2388,-20,-32,-24
2308.059,307,-8,16336,-2388,-20,-32,-24
2311.826,307,-8,16336,-2388,-20,-32,-24
2311.826,307,-8,16336,-2388,-20,-32,-24
2316.536,308,-80,16328,-2380,-61,-36,-19
2320.116,308,-80,16328,-2380,-61,-36,-19
2324.713,307,-80,16328,-2380,-61,-36,-19
2326.184,307,-80,16328,-2380,-61,-36,-19
2328.183,308,-80,16328,-2380,-61,-36,-19
2332.86,308,-80,16328,-2380,-61,-36,-19
2334.969,307,-80,16328,-2380,-61,-36,-19
2337.483,308,-16,16316,-2352,-48,-38,-14
2341.12,307,-16,16316,-2352,-48,-38,-14
2344.25,308,-16,16316,-2352,-48,-38,-14
2344.25,308,-16,16316,-2352,-48,-38,-14
2348.393,308,-16,16316,-2352,-48,-38,-14
2352.913,307,-16,16316,-2352,-48,-38,-14
2352.913,308,-16,16316,-2352,-48,-38,-14
2352.913,308,16,16336,-2384,-30,-28,1
2361.072,307,16,16336,-2384,-30,-28,1
2361.072,308,16,16336,-2384,-30,-28,1
2363.479,307,16,16336,-2384,-30,-28,1
2369.2400000000002,308,16,16336,-2384,-30,-28,1
2369.2400000000002,307,16,16336,-2384,-30,-28,1
2372.584,308,16,16336,-2384,-30,-28,1
2374.364,308,16,16336,-2384,-30,-28,1
2377.212,308,4,16288,-2364,-23,-48,2
2381.3529999999996,307,4,16288,-2364,-23,-48,2
2381.3529999999996,308,4,16288,-2364,-23,-48,2
2385.64,307,4,16288,-2364,-23,-48,2
2385.64,307,4,16288,-2364,-23,-48,2
2385.64,308,4,16288,-2364,-23,-48,2
2393.906,308,4,16288,-2364,-23,-48,2
2394.3289999999997,308,4,16288,-2364,-23,-48,2
2394.3289999999997,308,-4,16364,-2372,-41,-36,-9
2399.758,307,-4,16364,-2372,-41,-36,-9
2399.758,307,-4,16364,-2372,-41,-36,-9
2406.122,307,-4,16364,-2372,-41,-36,-9
2410.173,307,-4,16364,-2372,-41,-36,-9
2410.173,308,-4,16364,-2372,-41,-36,-9
2413.516,308,-4,16364,-2372,-41,-36,-9
2418.4230000000002,308,-4,16364,-2372,-41,-36,-9
2418.4230000000002,307,16,16308,-2348,-40,-40,-11
2422.017,308,16,16308,-2348,-40,-40,-11
2426.2690000000002,307,16,16308,-2348,-40,-40,-11
2427.4170000000004,308,16,16308,-2348,-40,-40,-11
2429.086,307,16,16308,-2348,-40,-40,-11
2434.687,308,16,16308,-2348,-40,-40,-11
2434.687,308,16,16308,-2348,-40,-40,-11
2438.904,308,16,16304,-2348,-12,-50,-19
2443.1690000000003,307,16,16304,-2348,-12,-50,-19
2443.947,308,16,16304,-2348,-12,-50,-19
2447.087,308,16,16304,-2348,-12,-50,-19
2449.518,308,16,16304,-2348,-12,-50,-19
2449.518,308,16,16304,-2348,-12,-50,-19
2455.259,308,16,16304,-2348,-12,-50,-19
2457.592,307,-4,16340,-2376,-26,-49,-24
2459.961,307,-4,16340,-2376,-26,-49,-24
2463.448,308,-4,16340,-2376,-26,-49,-24
2467.567,307,-4,16340,-2376,-26,-49,-24
2467.567,307,-4,16340,-2376,-26,-49,-24
2471.013,307,-4,16340,-2376,-26,-49,-24
2475.558,308,-4,16340,-2376,-26,-49,-24
2476.605,307,-4,16340,-2376,-26,-49,-24
2478.384,307,36,16344,-2348,-43,-28,-24
2482.108,307,36,16344,-2348,-43,-28,-24
2482.108,308,36,16344,-2348,-43,-28,-24
2486.743,308,36,16344,-2348,-43,-28,-24
2490.464,308,36,16344,-2348,-43,-28,-24
2493.48,308,36,16344,-2348,-43,-28,-24
2496.2599999999998,308,36,16344,-2348,-43,-28,-24
2500.326,307,-20,16320,-2352,-33,-54,-6
2501.658,308,-20,16320,-2352,-33,-54,-6
2504.409,308,-20,16320,-2352,-33,-54,-6
2508.377,308,-20,16320,-2352,-33,-54,-6
2511.257,307,-20,16320,-2352,-33,-54,-6
2512.581,309,-20,16320,-2352,-33,-54,-6
2516.728,308,-20,16320,-2352,-33,-54,-6
2516.728,308,8,16308,-2344,-35,-47,5
2518.978,308,8,16308,-2344,-35,-47,5
2525.09,307,8,16308,-2344,-35,-47,5
2526.354,308,8,16308,-2344,-35,-47,5
2527.505,307,8,16308,-2344,-35,-47,5
2527.505,307,8,16308,-2344,-35,-47,5
2533.4089999999997,308,8,16308,-2344,-35,-47,5
2537.2,307,8,16308,-2344,-35,-47,5
2537.2,307,-36,16260,-2356,-45,-38,-14
2541.877,307,-36,16260,-2356,-45,-38,-14
2545.291,307,-36,16260,-2356,-45,-38,-14
2545.291,308,-36,16260,-2356,-45,-38,-14
2549.134,307,-36,16260,-2356,-45,-38,-14
2553.572,308,-36,16260,-2356,-45,-38,-14
2553.572,308,-36,16260,-2356,-45,-38,-14
2558.455,307,-44,16380,-2328,-34,-45,-3
2560.745,308,-44,16380,-2328,-34,-45,-3
2560.745,308,-44,16380,-2328,-34,-45,-3
2560.745,307,-44,16380,-2328,-34,-45,-3
2569.958,308,-44,16380,-2328,-34,-45,-3
2572.954,308,-44,16380,-2328,-34,-45,-3
2575.07,308,-44,16380,-2328,-34,-45,-3
2576.883,307,-44,16380,-2328,-34,-45,-3
2576.883,307,-28,16316,-2348,-46,-35,-4
2583.263,307,-28,16316,-2348,-46,-35,-4
2586.313,307,-28,16316,-2348,-46,-35,-4
2589.623,308,-28,16316,-2348,-46,-35,-4
2591.378,308,-28,16316,-2348,-46,-35,-4
2594.139,308,-28,16316,-2348,-46,-35,-4
2594.139,308,-28,16316,-2348,-46,-35,-4
2599.585,307,24,16312,-2380,-53,-39,7
2602.7219999999998,308,24,16312,-2380,-53,-39,7
2602.7219999999998,307,24,16312,-2380,-53,-39,7
2606.268,308,24,16312,-2380,-53,-39,7
2610.426,308,24,16312,-2380,-53,-39,7
2611.237,308,24,16312,-2380,-53,-39,7
2614.9900000000002,308,24,16312,-2380,-53,-39,7
2616.622,307,24,16312,-2380,-53,-39,7
2616.622,307,0,16380,-2384,-25,-59,-16
2622.9460000000004,307,0,16380,-2384,-25,-59,-16
2626.522,307,0,16380,-2384,-25,-59,-16
2628.358,307,0,16380,-2384,-25,-59,-16
2631.296,307,0,16380,-2384,-25,-59,-16
2633.217,307,0,16380,-2384,-25,-59,-16
2633.217,308,0,16380,-2384,-25,-59,-16
2640.101,308,-40,16344,-2316,-59,-38,-7
2643.217,307,-40,16344,-2316,-59,-38,-7
2644.674,307,-40,16344,-2316,-59,-38,-7
2647.79,307,-40,16344,-2316,-59,-38,-7
2649.8469999999998,308,-40,16344,-2316,-59,-38,-7
2649.8469999999998,307,-40,16344,-2316,-59,-38,-7
2655.941,307,-40,16344,-2316,-59,-38,-7
2659.611,308,20,16372,-2380,-38,-45,-15
2660.8900000000003,308,20,16372,-2380,-38,-45,-15
2663.974,308,20,16372,-2380,-38,-45,-15
2666.651,308,20,16372,-2380,-38,-45,-15
2666.651,308,20,16372,-2380,-38,-45,-15
2672.384,308,20,16372,-2380,-38,-45,-15
2676.153,308,20,16372,-2380,-38,-45,-15
2676.153,309,20,16372,-2380,-38,-45,-15
2680.56,307,-4,16360,-2400,-67,-47,-23
2683.3450000000003,307,-4,16360,-2400,-67,-47,-23
2683.3450000000003,307,-4,16360,-2400,-67,-47,-23
2683.3450000000003,308,-4,16360,-2400,-67,-47,-23
2692.935,307,-4,16360,-2400,-67,-47,-23
2694.143,308,-4,16360,-2400,-67,-47,-23
2694.143,308,-4,16360,-2400,-67,-47,-23
2700.987,307,24,16312,-2348,-17,-38,-3
2700.987,307,24,16312,-2348,-17,-38,-3
2705.143,307,24,16312,-2348,-17,-38,-3
2707.411,308,24,16312,-2348,-17,-38,-3
2710.2309999999998,307,24,16312,-2348,-17,-38,-3
2713.297,308,24,16312,-2348,-17,-38,-3
2715.556,309,24,16312,-2348,-17,-38,-3
2715.556,308,8,16344,-2332,-59,-25,-8
2721.525,307,8,16344,-2332,-59,-25,-8
2721.525,307,8,16344,-2332,-59,-25,-8
2725.3889999999997,307,8,16344,-2332,-59,-25,-8
2727.654,308,8,16344,-2332,-59,-25,-8
2727.654,307,8,16344,-2332,-59,-25,-8
2731.043,308,8,16344,-2332,-59,-25,-8
2731.043,308,8,16344,-2332,-59,-25,-8
2731.043,307,-36,16260,-2404,-20,-45,-6
2739.7079999999996,307,-36,16260,-2404,-20,-45,-6
2743.733,307,-36,16260,-2404,-20,-45,-6
2743.733,307,-36,16260,-2404,-20,-45,-6
2750.161,308,-36,16260,-2404,-20,-45,-6
2753.514,307,-36,16260,-2404,-20,-45,-6
2753.514,309,-36,16260,-2404,-20,-45,-6
2756.277,307,16,16276,-2380,-34,-49,-20
2759.7960000000003,308,16,16276,-2380,-34,-49,-20
2759.7960000000003,307,16,16276,-2380,-34,-49,-20
2766.5730000000003,308,16,16276,-2380,-34,-49,-20
2769.899,308,16,16276,-2380,-34,-49,-20
2769.899,308,16,16276,-2380,-34,-49,-20
2773.28,307,16,16276,-2380,-34,-49,-20
2776.552,307,16,16276,-2380,-34,-49,-20
2776.552,307,-36,16316,-2308,-19,-39,1
2782.95,307,-36,16316,-2308,-19,-39,1
2786.128,307,-36,16316,-2308,-19,-39,1
2786.128,308,-36,16316,-2308,-19,-39,1
2791.6479999999997,308,-36,16316,-2308,-19,-39,1
2793.087,308,-36,16316,-2308,-19,-39,1
2793.087,308,-36,16316,-2308,-19,-39,1
2799.329,308,-8,16300,-2348,-51,-37,-23
2799.329,307,-8,16300,-2348,-51,-37,-23
2799.329,308,-8,16300,-2348,-51,-37,-23
2806.355,308,-8,16300,-2348,-51,-37,-23
2809.641,308,-8,16300,-2348,-51,-37,-23
2809.641,308,-8,16300,-2348,-51,-37,-23
2815.715,308,-8,16300,-2348,-51,-37,-23
2818.7850000000003,308,-28,16316,-2356,-41,-41,-15
2818.7850000000003,307,-28,16316,-2356,-41,-41,-15
2822.775,308,-28,16316,-2356,-41,-41,-15
2826.911,308,-28,16316,-2356,-41,-41,-15
2826.911,309,-28,16316,-2356,-41,-41,-15
2832.0750000000003,307,-28,16316,-2356,-41,-41,-15
2835.29,308,-28,16316,-2356,-41,-41,-15
2835.29,308,-28,16316,-2356,-41,-41,-15
2839.599,308,24,16404,-2392,-21,-43,-6
2843.212,307,24,16404,-2392,-21,-43,-6
2843.212,308,24,16404,-2392,-21,-43,-6
2843.212,307,24,16404,-2392,-21,-43,-6
2852.605,307,24,16404,-2392,-21,-43,-6
2852.605,308,24,16404,-2392,-21,-43,-6
2852.605,307,24,16404,-2392,-21,-43,-6
2860.79,307,16,16348,-2312,-35,-45,-8
2861.16,307,16,16348,-2312,-35,-45,-8
2864.929,308,16,16348,-2312,-35,-45,-8
2868.947,308,16,16348,-2312,-35,-45,-8
2868.947,308,16,16348,-2312,-35,-45,-8
2868.947,308,16,16348,-2312,-35,-45,-8
2876.882,308,16,16348,-2312,-35,-45,-8
2877.859,308,16,16348,-2312,-35,-45,-8
2877.859,308,-56,16292,-2392,-26,-51,-14
2883.58,307,-56,16292,-2392,-26,-51,-14
2883.58,308,-56,16292,-2392,-26,-51,-14
2889.221,308,-56,16292,-2392,-26,-51,-14
2892.98,307,-56,16292,-2392,-26,-51,-14
2893.819,307,-56,16292,-2392,-26,-51,-14
2897.9089999999997,308,-56,16292,-2392,-26,-51,-14
2901.91,307,-4,16252,-2416,-62,-47,-12
2901.91,308,-4,16252,-2416,-62,-47,-12
2901.91,307,-4,16252,-2416,-62,-47,-12
2910.377,307,-4,16252,-2416,-62,-47,-12
2910.377,308,-4,16252,-2416,-62,-47,-12
2913.5170000000003,307,-4,16252,-2416,-62,-47,-12
2916.267,308,-4,16252,-2416,-62,-47,-12
2916.267,307,-8,16312,-2348,-1,-26,12
2922.957,307,-8,16312,-2348,-1,-26,12
2925.029,307,-8,16312,-2348,-1,-26,12
2926.98,308,-8,16312,-2348,-1,-26,12
2926.98,307,-8,16312,-2348,-1,-26,12
2934.6459999999997,308,-8,16312,-2348,-1,-26,12
2935.049,307,-8,16312,-2348,-1,-26,12
2935.049,307,-8,16312,-2348,-1,-26,12
2939.673,307,0,16324,-2356,-43,-33,3
2941.4660000000003,307,0,16324,-2356,-43,-33,3
2943.2,307,0,16324,-2356,-43,-33,3
2947.901,307,0,16324,-2356,-43,-33,3
2948.778,307,0,16324,-2356,-43,-33,3
2948.778,307,0,16324,-2356,-43,-33,3
2956.0460000000003,307,0,16324,-2356,-43,-33,3
2956.0460000000003,308,0,16324,-2356,-43,-33,3
2960.053,308,-12,16376,-2332,-17,-39,-12
2961.515,307,-12,16376,-2332,-17,-39,-12
2964.337,307,-12,16376,-2332,-17,-39,-12
2964.337,307,-12,16376,-2332,-17,-39,-12
2964.337,307,-12,16376,-2332,-17,-39,-12
2973.107,308,-12,16376,-2332,-17,-39,-12
2976.782,308,-12,16376,-2332,-17,-39,-12
2981.023,308,36,16316,-2364,-59,-54,3
2983.624,308,36,16316,-2364,-59,-54,3
2984.3320000000003,307,36,16316,-2364,-59,-54,3
2985.524,307,36,16316,-2364,-59,-54,3
2989.967,307,36,16316,-2364,-59,-54,3
2989.967,307,36,16316,-2364,-59,-54,3
2995.9190000000003,308,36,16316,-2364,-59,-54,3
2997.705,307,-12,16264,-2388,-27,-38,-31
2997.705,307,-12,16264,-2388,-27,-38,-31
2997.705,307,-12,16264,-2388,-27,-38,-31
3006.463,307,-12,16264,-2388,-27,-38,-31
3006.463,307,-12,16264,-2388,-27,-38,-31
3011.492,307,-12,16264,-2388,-27,-38,-31
3011.492,308,-12,16264,-2388,-27,-38,-31
3011.492,308,-12,16264,-2388,-27,-38,-31
3021.795,307,-4,16372,-2348,-36,-37,-10
3024.743,307,-4,16372,-2348,-36,-37,-10
3027.8450000000003,307,-4,16372,-2348,-36,-37,-10
3030.188,307,-4,16372,-2348,-36,-37,-10
3030.188,307,-4,16372,-2348,-36,-37,-10
3030.188,307,-4,16372,-2348,-36,-37,-10
3038.44,308,-4,16372,-2348,-36,-37,-10
3040.794,307,-12,16372,-2384,-29,-22,-10
3043.937,307,-12,16372,-2384,-29,-22,-10
3043.937,307,-12,16372,-2384,-29,-22,-10
3043.937,308,-12,16372,-2384,-29,-22,-10
3043.937,307,-12,16372,-2384,-29,-22,-10
3043.937,307,-12,16372,-2384,-29,-22,-10
3054.624,307,-12,16372,-2384,-29,-22,-10
3059.596,307,20,16332,-2372,-56,-48,-25
3059.596,308,20,16332,-2372,-56,-48,-25
3062.907,307,20,16332,-2372,-56,-48,-25
3068.927,307,20,16332,-2372,-56,-48,-25
3068.927,307,20,16332,-2372,-56,-48,-25
3070.938,308,20,16332,-2372,-56,-48,-25
3077.736,307,20,16332,-2372,-56,-48,-25
3077.736,308,8,16328,-2364,-51,-41,-22
3081.2650000000003,308,8,16328,-2364,-51,-41,-22
3086.183,307,8,16328,-2364,-51,-41,-22
3086.64,308,8,16328,-2364,-51,-41,-22
3087.65,308,8,16328,-2364,-51,-41,-22
3093.803,307,8,16328,-2364,-51,-41,-22
3093.803,308,8,16328,-2364,-51,-41,-22
3095.8770000000004,308,8,16328,-2364,-51,-41,-22
3095.8770000000004,307,8,16292,-2340,-24,-58,-6
3103.777,307,8,16292,-2340,-24,-58,-6
3106.3559999999998,307,8,16292,-2340,-24,-58,-6
3109.983,308,8,16292,-2340,-24,-58,-6
3109.983,308,8,16292,-2340,-24,-58,-6
3113.998,307,8,16292,-2340,-24,-58,-6
3113.998,307,8,16292,-2340,-24,-58,-6
3118.0099999999998,308,-20,16332,-2396,-38,-28,-22
3122.971,307,-20,16332,-2396,-38,-28,-22
3126.1440000000002,307,-20,16332,-2396,-38,-28,-22
3126.1440000000002,308,-20,16332,-2396,-38,-28,-22
3130.159,307,-20,16332,-2396,-38,-28,-22
3134.171,307,-20,16332,-2396,-38,-28,-22
3134.171,307,-20,16332,-2396,-38,-28,-22
3139.635,308,52,16280,-2400,-42,-55,4
3142.496,307,52,16280,-2400,-42,-55,4
3142.496,308,52,16280,-2400,-42,-55,4
3142.496,307,52,16280,-2400,-42,-55,4
3142.496,308,52,16280,-2400,-42,-55,4
3151.931,308,52,16280,-2400,-42,-55,4
3154.7619999999997,307,52,16280,-2400,-42,-55,4
3154.7619999999997,308,52,16280,-2400,-42,-55,4
3159.442,307,-32,16296,-2392,-33,-41,1
3159.442,307,-32,16296,-2392,-33,-41,1
3159.442,307,-32,16296,-2392,-33,-41,1
3166.098,307,-32,16296,-2392,-33,-41,1
3166.098,307,-32,16296,-2392,-33,-41,1
3166.098,308,-32,16296,-2392,-33,-41,1
3174.879,308,-32,16296,-2392,-33,-41,1
3179.004,308,-32,16296,-2392,-33,-41,1
3179.004,307,16,16364,-2392,-26,-36,-13
3184.496,307,16,16364,-2392,-26,-36,-13
3185.409,307,16,16364,-2392,-26,-36,-13
3185.409,308,16,16364,-2392,-26,-36,-13
3190.5519999999997,308,16,16364,-2392,-26,-36,-13
3195.522,308,16,16364,-2392,-26,-36,-13
3198.5389999999998,308,16,16364,-2392,-26,-36,-13
3200.237,308,0,16348,-2376,-46,-33,-26
3200.237,307,0,16348,-2376,-46,-33,-26
3207.21,307,0,16348,-2376,-46,-33,-26
3209.234,308,0,16348,-2376,-46,-33,-26
3211.859,308,0,16348,-2376,-46,-33,-26
3214.701,308,0,16348,-2376,-46,-33,-26
3214.701,307,0,16348,-2376,-46,-33,-26
3214.701,308,-8,16292,-2408,-48,-53,-17
3223.2729999999997,307,-8,16292,-2408,-48,-53,-17
3225.292,307,-8,16292,-2408,-48,-53,-17
3229.3790000000004,308,-8,16292,-2408,-48,-53,-17
3231.042,308,-8,16292,-2408,-48,-53,-17
3231.54,308,-8,16292,-2408,-48,-53,-17
3231.54,307,-8,16292,-2408,-48,-53,-17
3239.7670000000003,307,-8,16292,-2408,-48,-53,-17
3239.7670000000003,307,24,16312,-2344,-50,-44,-25
3245.7569999999996,307,24,16312,-2344,-50,-44,-25
3247.5429999999997,307,24,16312,-2344,-50,-44,-25
3248.008,308,24,16312,-2344,-50,-44,-25
3248.008,308,24,16312,-2344,-50,-44,-25
3256.462,308,24,16312,-2344,-50,-44,-25
3256.462,308,24,16312,-2344,-50,-44,-25
3259.027,308,-4,16444,-2400,-29,-31,-15
3264.256,308,-4,16444,-2400,-29,-31,-15
3264.256,308,-4,16444,-2400,-29,-31,-15
3264.256,308,-4,16444,-2400,-29,-31,-15
3272.554,308,-4,16444,-2400,-29,-31,-15
3273.1659999999997,309,-4,16444,-2400,-29,-31,-15
3278.778,309,-4,16444,-2400,-29,-31,-15
3280.504,309,12,16300,-2308,-65,-23,-17
3282.82,309,12,16300,-2308,-65,-23,-17
3282.82,309,12,16300,-2308,-65,-23,-17
3288.9460000000004,310,12,16300,-2308,-65,-23,-17
3289.841,310,12,16300,-2308,-65,-23,-17
3295.1510000000003,310,12,16300,-2308,-65,-23,-17
3295.1510000000003,309,12,16300,-2308,-65,-23,-17
3298.72,309,12,16300,-2308,-65,-23,-17
3300.549,309,-4,16328,-2388,-37,-26,-7
3305.695,310,-4,16328,-2388,-37,-26,-7
3306.734,310,-4,16328,-2388,-37,-26,-7
3306.734,310,-4,16328,-2388,-37,-26,-7
3313.7889999999998,309,-4,16328,-2388,-37,-26,-7
3314.3030000000003,309,-4,16328,-2388,-37,-26,-7
3314.3030000000003,309,-4,16328,-2388,-37,-26,-7
3321.8770000000004,309,-44,16312,-2376,-51,-33,-19
3323.0209999999997,309,-44,16312,-2376,-51,-33,-19
3323.0209999999997,310,-44,16312,-2376,-51,-33,-19
3330.06,309,-44,16312,-2376,-51,-33,-19
3331.94,309,-44,16312,-2376,-51,-33,-19
3333.214,309,-44,16312,-2376,-51,-33,-19
3338.462,309,-44,16312,-2376,-51,-33,-19
3339.9809999999998,309,8,16356,-2356,2,-43,-11
3339.9809999999998,308,8,16356,-2356,2,-43,-11
3346.5029999999997,309,8,16356,-2356,2,-43,-11
3347.9700000000003,309,8,16356,-2356,2,-43,-11
3347.9700000000003,308,8,16356,-2356,2,-43,-11
3354.497,308,8,16356,-2356,2,-43,-11
3356.491,308,8,16356,-2356,2,-43,-11
3356.491,309,8,16356,-2356,2,-43,-11
3356.491,308,-20,16320,-2324,-51,-48,-3
3364.5429999999997,308,-20,16320,-2324,-51,-48,-3
3365.649,309,-20,16320,-2324,-51,-48,-3
3365.649,308,-20,16320,-2324,-51,-48,-3
3373.0679999999998,308,-20,16320,-2324,-51,-48,-3
3373.0679999999998,308,-20,16320,-2324,-51,-48,-3
3377.631,308,-20,16320,-2324,-51,-48,-3
3377.631,309,-32,16356,-2372,8,-33,6
3377.631,308,-32,16356,-2372,8,-33,6
3384.14,308,-32,16356,-2372,8,-33,6
3384.14,307,-32,16356,-2372,8,-33,6
3389.8959999999997,307,-32,16356,-2372,8,-33,6
3392.5429999999997,308,-32,16356,-2372,8,-33,6
3394.689,308,-32,16356,-2372,8,-33,6
3395.702,308,-32,16356,-2372,8,-33,6
3401.618,307,12,16348,-2376,-74,-31,-11
3402.346,307,12,16348,-2376,-74,-31,-11
3402.346,308,12,16348,-2376,-74,-31,-11
3408.3100000000004,307,12,16348,-2376,-74,-31,-11
3408.3100000000004,307,12,16348,-2376,-74,-31,-11
3413.553,308,12,16348,-2376,-74,-31,-11
3416.171,307,12,16348,-2376,-74,-31,-11
3416.171,307,12,16348,-2376,-74,-31,-11
3416.171,307,16,16284,-2352,-20,-30,4
3424.556,307,16,16284,-2352,-20,-30,4
3424.556,307,16,16284,-2352,-20,-30,4
3430.459,308,16,16284,-2352,-20,-30,4
3432.742,308,16,16284,-2352,-20,-30,4
3433.422,307,16,16284,-2352,-20,-30,4
3433.422,307,16,16284,-2352,-20,-30,4
3441.3469999999998,307,-4,16256,-2364,-61,-46,-2
3441.3469999999998,307,-4,16256,-2364,-61,-46,-2
3446.278,307,-4,16256,-2364,-61,-46,-2
3448.007,307,-4,16256,-2364,-61,-46,-2
3449.814,307,-4,16256,-2364,-61,-46,-2
3449.814,307,-4,16256,-2364,-61,-46,-2
3456.714,307,-4,16256,-2364,-61,-46,-2
3458.32,307,-4,16256,-2364,-61,-46,-2
3458.32,306,80,16348,-2336,-12,-41,-12
3458.32,307,80,16348,-2336,-12,-41,-12
3466.44,307,80,16348,-2336,-12,-41,-12
3466.44,307,80,16348,-2336,-12,-41,-12
3472.911,307,80,16348,-2336,-12,-41,-12
3474.737,307,80,16348,-2336,-12,-41,-12
3476.8880000000004,306,80,16348,-2336,-12,-41,-12
3476.8880000000004,307,12,16340,-2380,-57,-44,-16
3482.9150000000004,307,12,16340,-2380,-57,-44,-16
3482.9150000000004,307,12,16340,-2380,-57,-44,-16
3488.8360000000002,306,12,16340,-2380,-57,-44,-16
3491.2239999999997,307,12,16340,-2380,-57,-44,-16
3493.431,306,12,16340,-2380,-57,-44,-16
3497.38,306,12,16340,-2380,-57,-44,-16
3499.7569999999996,306,12,16340,-2380,-57,-44,-16
3499.7569999999996,307,-20,16276,-2372,-19,-46,-1
3505.717,307,-20,16276,-2372,-19,-46,-1
3508.286,306,-20,16276,-2372,-19,-46,-1
3510.625,307,-20,16276,-2372,-19,-46,-1
3513.689,307,-20,16276,-2372,-19,-46,-1
3516.712,307,-20,16276,-2372,-19,-46,-1
3516.712,307,-20,16276,-2372,-19,-46,-1
3522.018,306,8,16364,-2352,-11,-31,2
3523.1569999999997,306,8,16364,-2352,-11,-31,2
3527.4269999999997,306,8,16364,-2352,-11,-31,2
3529.563,306,8,16364,-2352,-11,-31,2
3532.679,306,8,16364,-2352,-11,-31,2
3534.1330000000003,307,8,16364,-2352,-11,-31,2
3534.756,307,8,16364,-2352,-11,-31,2
3540.102,306,8,16364,-2352,-11,-31,2
3540.102,307,-8,16372,-2388,-36,-42,-1
3545.721,307,-8,16372,-2388,-36,-42,-1
3548.9500000000003,306,-8,16372,-2388,-36,-42,-1
3550.317,307,-8,16372,-2388,-36,-42,-1
3552.503,306,-8,16372,-2388,-36,-42,-1
3556.98,306,-8,16372,-2388,-36,-42,-1
3556.98,307,-8,16372,-2388,-36,-42,-1
3558.728,307,32,16308,-2348,-19,-47,-25
3558.728,306,32,16308,-2348,-19,-47,-25
3558.728,307,32,16308,-2348,-19,-47,-25
3569.448,307,32,16308,-2348,-19,-47,-25
3572.094,306,32,16308,-2348,-19,-47,-25
3574.477,307,32,16308,-2348,-19,-47,-25
3577.44,306,32,16308,-2348,-19,-47,-25
3577.44,306,32,16308,-2348,-19,-47,-25
3577.44,306,-16,16388,-2436,-81,-36,-16
3585.04,306,-16,16388,-2436,-81,-36,-16
3589.263,306,-16,16388,-2436,-81,-36,-16
3591.008,306,-16,16388,-2436,-81,-36,-16
3593.527,307,-16,16388,-2436,-81,-36,-16
3593.527,306,-16,16388,-2436,-81,-36,-16
3593.527,306,-16,16388,-2436,-81,-36,-16
3602.072,306,16,16384,-2352,4,-41,-22
3602.072,306,16,16384,-2352,4,-41,-22
3607.6009999999997,306,16,16384,-2352,4,-41,-22
3610.456,306,16,16384,-2352,4,-41,-22
3610.456,306,16,16384,-2352,4,-41,-22
3610.456,306,16,16384,-2352,4,-41,-22
3616.349,306,16,16384,-2352,4,-41,-22
3616.349,306,-12,16320,-2452,-49,-40,-16
3623.2479999999996,306,-12,16320,-2452,-49,-40,-16
3627.153,307,-12,16320,-2452,-49,-40,-16
3628.7690000000002,306,-12,16320,-2452,-49,-40,-16
3628.7690000000002,306,-12,16320,-2452,-49,-40,-16
3632.9950000000003,306,-12,16320,-2452,-49,-40,-16
3632.9950000000003,306,-12,16320,-2452,-49,-40,-16
3632.9950000000003,307,-4,16308,-2312,-58,-46,-34
3642.781,306,-4,16308,-2312,-58,-46,-34
3646.982,306,-4,16308,-2312,-58,-46,-34
3646.982,306,-4,16308,-2312,-58,-46,-34
3648.131,306,-4,16308,-2312,-58,-46,-34
3648.131,307,-4,16308,-2312,-58,-46,-34
3656.479,306,-4,16308,-2312,-58,-46,-34
3656.479,307,-4,16308,-2312,-58,-46,-34
3663.3559999999998,306,-16,16248,-2456,-34,-56,-15
3664.346,307,-16,16248,-2456,-34,-56,-15
3667.6479999999997,306,-16,16248,-2456,-34,-56,-15
3667.6479999999997,307,-16,16248,-2456,-34,-56,-15
3673.028,306,-16,16248,-2456,-34,-56,-15
3673.028,307,-16,16248,-2456,-34,-56,-15
3679.866,307,-16,16248,-2456,-34,-56,-15
3681.5299999999997,306,20,16316,-2328,-60,-31,-3
3684.979,307,20,16316,-2328,-60,-31,-3
3687.471,306,20,16316,-2328,-60,-31,-3
3687.471,307,20,16316,-2328,-60,-31,-3
3690.726,307,20,16316,-2328,-60,-31,-3
3694.3540000000003,306,20,16316,-2328,-60,-31,-3
3697.779,306,20,16316,-2328,-60,-31,-3
3700.572,307,-64,16432,-2368,13,-13,0
3704.4199999999996,307,-64,16432,-2368,13,-13,0
3706.067,306,-64,16432,-2368,13,-13,0
3708.078,306,-64,16432,-2368,13,-13,0
3711.475,306,-64,16432,-2368,13,-13,0
3712.932,306,-64,16432,-2368,13,-13,0
3714.4469999999997,306,-64,16432,-2368,13,-13,0
3720.383,306,-64,16432,-2368,13,-13,0
3720.969,306,-28,16272,-2336,-101,-36,-14
3724.663,307,-28,16272,-2336,-101,-36,-14
3726.682,306,-28,16272,-2336,-101,-36,-14
3726.682,306,-28,16272,-2336,-101,-36,-14
3732.614,307,-28,16272,-2336,-101,-36,-14
3736.6259999999997,306,-28,16272,-2336,-101,-36,-14
3740.163,306,-28,16272,-2336,-101,-36,-14
3740.163,307,-4,16324,-2396,35,-35,-11
3743.687,307,-4,16324,-2396,35,-35,-11
3743.687,307,-4,16324,-2396,35,-35,-11
3746.741,306,-4,16324,-2396,35,-35,-11
3746.741,307,-4,16324,-2396,35,-35,-11
3746.741,307,-4,16324,-2396,35,-35,-11
3754.887,306,-4,16324,-2396,35,-35,-11
3754.887,307,-8,16356,-2340,-82,-39,-8
3762.904,306,-8,16356,-2340,-82,-39,-8
3762.904,306,-8,16356,-2340,-82,-39,-8
3762.904,307,-8,16356,-2340,-82,-39,-8
3762.904,307,-8,16356,-2340,-82,-39,-8
3771.15,307,-8,16356,-2340,-82,-39,-8
3771.15,307,-8,16356,-2340,-82,-39,-8
3771.15,307,-8,16356,-2340,-82,-39,-8
3779.275,306,68,16288,-2356,17,-44,-4
3784.9230000000002,306,68,16288,-2356,17,-44,-4
3784.9230000000002,307,68,16288,-2356,17,-44,-4
3787.445,306,68,16288,-2356,17,-44,-4
3793.2380000000003,307,68,16288,-2356,17,-44,-4
3793.2380000000003,307,68,16288,-2356,17,-44,-4
3798.521,307,68,16288,-2356,17,-44,-4
3799.448,307,68,16288,-2356,17,-44,-4
3799.448,306,-4,16332,-2440,-64,-51,-17
3805.544,307,-4,16332,-2440,-64,-51,-17
3808.156,307,-4,16332,-2440,-64,-51,-17
3810.166,307,-4,16332,-2440,-64,-51,-17
3811.936,307,-4,16332,-2440,-64,-51,-17
3815.991,307,-4,16332,-2440,-64,-51,-17
3816.9719999999998,307,-4,16332,-2440,-64,-51,-17
3820.943,307,20,16284,-2344,-47,-36,-17
3820.943,306,20,16284,-2344,-47,-36,-17
3825.3379999999997,307,20,16284,-2344,-47,-36,-17
3828.478,307,20,16284,-2344,-47,-36,-17
3828.478,307,20,16284,-2344,-47,-36,-17
3828.478,308,20,16284,-2344,-47,-36,-17
3836.785,307,20,16284,-2344,-47,-36,-17
3841.431,306,80,16384,-2412,21,-38,12
3843.642,307,80,16384,-2412,21,-38,12
3847.495,308,80,16384,-2412,21,-38,12
3848.49,307,80,16384,-2412,21,-38,12
3849.257,307,80,16384,-2412,21,-38,12
3854.924,307,80,16384,-2412,21,-38,12
3856.9320000000002,307,80,16384,-2412,21,-38,12
3858.942,307,80,16384,-2412,21,-38,12
3860.69,307,-60,16312,-2372,-82,-42,-10
3864.704,307,-60,16312,-2372,-82,-42,-10
3866.712,308,-60,16312,-2372,-82,-42,-10
3868.718,307,-60,16312,-2372,-82,-42,-10
3868.718,307,-60,16312,-2372,-82,-42,-10
3876.848,307,-60,16312,-2372,-82,-42,-10
3878.909,307,-60,16312,-2372,-82,-42,-10
3878.909,307,-24,16324,-2368,17,-53,1
3878.909,307,-24,16324,-2368,17,-53,1
3886.424,306,-24,16324,-2368,17,-53,1
3889.792,308,-24,16324,-2368,17,-53,1
3891.802,307,-24,16324,-2368,17,-53,1
3893.561,307,-24,16324,-2368,17,-53,1
3893.561,307,-24,16324,-2368,17,-53,1
3893.561,307,-24,16324,-2368,17,-53,1
3901.7149999999997,307,-20,16336,-2372,-69,-36,0
3904.601,307,-20,16336,-2372,-69,-36,0
3906.6130000000003,307,-20,16336,-2372,-69,-36,0
3909.9089999999997,308,-20,16336,-2372,-69,-36,0
3909.9089999999997,307,-20,16336,-2372,-69,-36,0
3909.9089999999997,307,-20,16336,-2372,-69,-36,0
3918.2610000000004,307,-20,16336,-2372,-69,-36,0
3920.281,307,0,16380,-2352,-14,-37,-11
3923.593,307,0,16380,-2352,-14,-37,-11
3923.593,307,0,16380,-2352,-14,-37,-11
3928.555,307,0,16380,-2352,-14,-37,-11
3928.555,308,0,16380,-2352,-14,-37,-11
3928.555,307,0,16380,-2352,-14,-37,-11
3935.241,308,0,16380,-2352,-14,-37,-11
3935.241,307,0,16380,-2352,-14,-37,-11
3940.773,307,72,16280,-2352,-83,-51,-10
3945.343,307,72,16280,-2352,-83,-51,-10
3945.343,307,72,16280,-2352,-83,-51,-10
3948.828,307,72,16280,-2352,-83,-51,-10
3951.618,307,72,16280,-2352,-83,-51,-10
3951.618,308,72,16280,-2352,-83,-51,-10
3956.4689999999996,308,72,16280,-2352,-83,-51,-10
3959.8469999999998,308,-4,16376,-2360,-9,-33,-17
3959.8469999999998,307,-4,16376,-2360,-9,-33,-17
3959.8469999999998,307,-4,16376,-2360,-9,-33,-17
3968.196,307,-4,16376,-2360,-9,-33,-17
3968.196,308,-4,16376,-2360,-9,-33,-17
3974.812,308,-4,16376,-2360,-9,-33,-17
3976.556,308,-4,16376,-2360,-9,-33,-17
3976.556,307,-4,16376,-2360,-9,-33,-17
3976.556,307,-16,16420,-2404,-54,-31,-9
3984.9269999999997,307,-16,16420,-2404,-54,-31,-9
3984.9269999999997,307,-16,16420,-2404,-54,-31,-9
3991.07,308,-16,16420,-2404,-54,-31,-9
3995.2200000000003,307,-16,16420,-2404,-54,-31,-9
3995.2200000000003,308,-16,16420,-2404,-54,-31,-9
3995.2200000000003,307,-16,16420,-2404,-54,-31,-9
4001.4570000000003,308,4,16308,-2404,-61,-55,-38
4001.4570000000003,307,4,16308,-2404,-61,-55,-38
4007.852,307,4,16308,-2404,-61,-55,-38
4009.7529999999997,307,4,16308,-2404,-61,-55,-38
4009.7529999999997,307,4,16308,-2404,-61,-55,-38
4009.7529999999997,308,4,16308,-2404,-61,-55,-38
4017.834,307,4,16308,-2404,-61,-55,-38
4017.834,307,4,16308,-2404,-61,-55,-38
4024.204,307,-36,16316,-2352,-43,-51,-12
4025.9429999999998,307,-36,16316,-2352,-43,-51,-12
4025.9429999999998,307,-36,16316,-2352,-43,-51,-12
4025.9429999999998,307,-36,16316,-2352,-43,-51,-12
4036.2780000000002,308,-36,16316,-2352,-43,-51,-12
4036.2780000000002,307,-36,16316,-2352,-43,-51,-12
4041.025,307,-36,16316,-2352,-43,-51,-12
4043.501,307,-4,16300,-2380,-56,-32,-4
4043.501,307,-4,16300,-2380,-56,-32,-4
4043.501,308,-4,16300,-2380,-56,-32,-4
4051.1780000000003,308,-4,16300,-2380,-56,-32,-4
4051.1780000000003,309,-4,16300,-2380,-56,-32,-4
4051.1780000000003,308,-4,16300,-2380,-56,-32,-4
4059.6769999999997,308,-4,16300,-2380,-56,-32,-4
4059.6769999999997,308,-20,16360,-2332,-26,-29,-14
4059.6769999999997,307,-20,16360,-2332,-26,-29,-14
4068.15,308,-20,16360,-2332,-26,-29,-14
4068.15,308,-20,16360,-2332,-26,-29,-14
4075.0130000000004,308,-20,16360,-2332,-26,-29,-14
4076.687,307,-20,16360,-2332,-26,-29,-14
4076.687,308,-20,16360,-2332,-26,-29,-14
4076.687,308,36,16288,-2348,-46,-35,-8
4085.0299999999997,308,36,16288,-2348,-46,-35,-8
4090.1829999999995,307,36,16288,-2348,-46,-35,-8
4093.3900000000003,307,36,16288,-2348,-46,-35,-8
4093.3900000000003,307,36,16288,-2348,-46,-35,-8
4093.3900000000003,308,36,16288,-2348,-46,-35,-8
4093.3900000000003,307,36,16288,-2348,-46,-35,-8
4101.5779999999995,307,36,16288,-2348,-46,-35,-8
4102.92,307,40,16248,-2344,-95,-45,-21
4107.987999999999,307,40,16248,-2344,-95,-45,-21
4109.728999999999,307,40,16248,-2344,-95,-45,-21
4109.728999999999,307,40,16248,-2344,-95,-45,-21
4109.728999999999,308,40,16248,-2344,-95,-45,-21
4117.884,307,40,16248,-2344,-95,-45,-21
4117.884,306,40,16248,-2344,-95,-45,-21
4123.7789999999995,306,-16,16336,-2304,54,-26,-17
4125.938999999999,307,-16,16336,-2304,54,-26,-17
4127.964999999999,307,-16,16336,-2304,54,-26,-17
4127.964999999999,307,-16,16336,-2304,54,-26,-17
4134.316,307,-16,16336,-2304,54,-26,-17
4138.669,306,-16,16336,-2304,54,-26,-17
4141.192,306,-16,16336,-2304,54,-26,-17
4142.706999999999,306,-12,16400,-2408,-50,-43,-8
4146.7429999999995,306,-12,16400,-2408,-50,-43,-8
4146.7429999999995,306,-12,16400,-2408,-50,-43,-8
4150.896000000001,307,-12,16400,-2408,-50,-43,-8
4155.048,306,-12,16400,-2408,-50,-43,-8
4157.84,306,-12,16400,-2408,-50,-43,-8
4159.360000000001,306,-12,16400,-2408,-50,-43,-8
4159.360000000001,306,-12,16400,-2408,-50,-43,-8
4159.360000000001,306,-4,16276,-2308,-14,-32,-5
4167.668,305,-4,16276,-2308,-14,-32,-5
4168.56,306,-4,16276,-2308,-14,-32,-5
4173.546,306,-4,16276,-2308,-14,-32,-5
4175.830999999999,306,-4,16276,-2308,-14,-32,-5
4175.830999999999,305,-4,16276,-2308,-14,-32,-5
4175.830999999999,305,-4,16276,-2308,-14,-32,-5
4183.92,305,-16,16336,-2412,-77,-46,-13
4185.933999999999,306,-16,16336,-2412,-77,-46,-13
4187.945,306,-16,16336,-2412,-77,-46,-13
4191.967,305,-16,16336,-2412,-77,-46,-13
4191.967,305,-16,16336,-2412,-77,-46,-13
4191.967,305,-16,16336,-2412,-77,-46,-13
4200.683,306,-16,16336,-2412,-77,-46,-13
4201.194,305,-20,16300,-2320,-39,-50,-5
4205.825,305,-20,16300,-2320,-39,-50,-5
4208.902,305,-20,16300,-2320,-39,-50,-5
4211.139,305,-20,16300,-2320,-39,-50,-5
4211.139,306,-20,16300,-2320,-39,-50,-5
4216.165,305,-20,16300,-2320,-39,-50,-5
4220.58,305,-20,16300,-2320,-39,-50,-5
4220.58,304,-4,16348,-2416,31,-48,-2
4224.478,305,-4,16348,-2416,31,-48,-2
4224.478,305,-4,16348,-2416,31,-48,-2
4224.478,305,-4,16348,-2416,31,-48,-2
4232.7339999999995,305,-4,16348,-2416,31,-48,-2
4232.7339999999995,305,-4,16348,-2416,31,-48,-2
4232.7339999999995,305,-4,16348,-2416,31,-48,-2
4241.446,304,-4,16348,-2416,31,-48,-2
4241.446,304,12,16324,-2344,-78,-47,-17
4245.319,304,12,16324,-2344,-78,-47,-17
4249.380999999999,305,12,16324,-2344,-78,-47,-17
4249.380999999999,304,12,16324,-2344,-78,-47,-17
4249.380999999999,305,12,16324,-2344,-78,-47,-17
4257.825000000001,305,12,16324,-2344,-78,-47,-17
4257.825000000001,305,12,16324,-2344,-78,-47,-17
4259.838000000001,304,-28,16300,-2352,4,-41,-14
4259.838000000001,304,-28,16300,-2352,4,-41,-14
4266.304,304,-28,16300,-2352,4,-41,-14
4269.9800000000005,304,-28,16300,-2352,4,-41,-14
4270.75,305,-28,16300,-2352,4,-41,-14
4274.589,305,-28,16300,-2352,4,-41,-14
4274.589,304,-28,16300,-2352,4,-41,-14
4274.589,304,-28,16300,-2352,4,-41,-14
4282.848000000001,304,12,16316,-2380,-51,-42,-16
4282.848000000001,305,12,16316,-2380,-51,-42,-16
4290.295,304,12,16316,-2380,-51,-42,-16
4290.965,304,12,16316,-2380,-51,-42,-16
4294.192,304,12,16316,-2380,-51,-42,-16
4294.192,304,12,16316,-2380,-51,-42,-16
4299.096,304,12,16316,-2380,-51,-42,-16
4299.096,304,32,16324,-2356,-23,-48,-12
4299.096,304,32,16324,-2356,-23,-48,-12
4307.799,304,32,16324,-2356,-23,-48,-12
4307.799,305,32,16324,-2356,-23,-48,-12
4307.799,304,32,16324,-2356,-23,-48,-12
4315.6410000000005,305,32,16324,-2356,-23,-48,-12
4318.888,304,32,16324,-2356,-23,-48,-12
4323.985000000001,304,32,16324,-2356,-23,-48,-12
4326.248,304,-24,16360,-2336,-34,-51,-9
4326.248,304,-24,16360,-2336,-34,-51,-9
4331.177000000001,305,-24,16360,-2336,-34,-51,-9
4332.285,305,-24,16360,-2336,-34,-51,-9
4332.285,305,-24,16360,-2336,-34,-51,-9
4340.534,304,-24,16360,-2336,-34,-51,-9
4341.549,304,-24,16360,-2336,-34,-51,-9
4341.549,304,16,16336,-2344,0,-34,-9
4347.753,304,16,16336,-2344,0,-34,-9
4348.442999999999,305,16,16336,-2344,0,-34,-9
4351.66,305,16,16336,-2344,0,-34,-9
4351.66,305,16,16336,-2344,0,-34,-9
4356.7080000000005,305,16,16336,-2344,0,-34,-9
4357.738,305,16,16336,-2344,0,-34,-9
4357.738,304,16,16336,-2344,0,-34,-9
4357.738,304,28,16312,-2384,-37,-31,-9
4368.04,304,28,16312,-2384,-37,-31,-9
4368.04,306,28,16312,-2384,-37,-31,-9
4368.04,305,28,16312,-2384,-37,-31,-9
4375.513,305,28,16312,-2384,-37,-31,-9
4377.53,305,28,16312,-2384,-37,-31,-9
4377.53,305,28,16312,-2384,-37,-31,-9
4381.609,305,4,16320,-2372,-25,-35,-21
4381.609,305,4,16320,-2372,-25,-35,-21
4386.883,305,4,16320,-2372,-25,-35,-21
4390.031,305,4,16320,-2372,-25,-35,-21
4392.043000000001,306,4,16320,-2372,-25,-35,-21
4394.053000000001,306,4,16320,-2372,-25,-35,-21
4394.053000000001,306,4,16320,-2372,-25,-35,-21
4398.326,305,4,16320,-2372,-25,-35,-21
4398.326,305,-12,16320,-2344,-39,-33,-7
4398.326,306,-12,16320,-2344,-39,-33,-7
4407.304,306,-12,16320,-2344,-39,-33,-7
4410.154,306,-12,16320,-2344,-39,-33,-7
4410.154,307,-12,16320,-2344,-39,-33,-7
4415.084,306,-12,16320,-2344,-39,-33,-7
4418.77,306,-12,16320,-2344,-39,-33,-7
4418.77,306,-56,16348,-2356,-29,-44,-3
4425.620999999999,306,-56,16348,-2356,-29,-44,-3
4429.523999999999,306,-56,16348,-2356,-29,-44,-3
4429.523999999999,306,-56,16348,-2356,-29,-44,-3
4431.412,306,-56,16348,-2356,-29,-44,-3
4431.412,307,-56,16348,-2356,-29,-44,-3
4441.727,307,-56,16348,-2356,-29,-44,-3
4441.727,307,-12,16352,-2396,-54,-65,-3
4441.727,306,-12,16352,-2396,-54,-65,-3
4449.635,306,-12,16352,-2396,-54,-65,-3
4449.635,307,-12,16352,-2396,-54,-65,-3
4451.692,307,-12,16352,-2396,-54,-65,-3
4458.42,307,-12,16352,-2396,-54,-65,-3
4459.842,307,-12,16352,-2396,-54,-65,-3
4462.28,307,-12,16352,-2396,-54,-65,-3
4464.968,307,-88,16384,-2368,-30,-37,0
4464.968,307,-88,16384,-2368,-30,-37,0
4470.668,307,-88,16384,-2368,-30,-37,0
4470.668,307,-88,16384,-2368,-30,-37,0
4474.182,308,-88,16384,-2368,-30,-37,0
4478.339,307,-88,16384,-2368,-30,-37,0
4479.268,308,-88,16384,-2368,-30,-37,0
4479.983,307,4,16340,-2312,-2,-47,-13
4486.95,308,4,16340,-2312,-2,-47,-13
4486.95,308,4,16340,-2312,-2,-47,-13
4491.173,308,4,16340,-2312,-2,-47,-13
4491.173,309,4,16340,-2312,-2,-47,-13
4491.173,308,4,16340,-2312,-2,-47,-13
4498.647,308,4,16340,-2312,-2,-47,-13
4498.647,307,4,16340,-2312,-2,-47,-13
4502.526,307,8,16324,-2408,-40,-60,-15
4507.539000000001,307,8,16324,-2408,-40,-60,-15
4507.539000000001,307,8,16324,-2408,-40,-60,-15
4507.539000000001,308,8,16324,-2408,-40,-60,-15
4513.425,309,8,16324,-2408,-40,-60,-15
4513.425,308,8,16324,-2408,-40,-60,-15
4513.425,307,8,16324,-2408,-40,-60,-15
4523.686,307,44,16320,-2344,-17,-37,-19
4523.686,308,44,16320,-2344,-17,-37,-19
4523.686,308,44,16320,-2344,-17,-37,-19
4528.984,308,44,16320,-2344,-17,-37,-19
4528.984,308,44,16320,-2344,-17,-37,-19
4528.984,308,44,16320,-2344,-17,-37,-19
4537.362,308,44,16320,-2344,-17,-37,-19
4541.849,308,44,16320,-2344,-17,-37,-19
4544.1900000000005,308,24,16344,-2360,-51,-26,-15
4544.894,308,24,16344,-2360,-51,-26,-15
4544.894,308,24,16344,-2360,-51,-26,-15
4544.894,308,24,16344,-2360,-51,-26,-15
4554.255999999999,308,24,16344,-2360,-51,-26,-15
4557.960999999999,308,24,16344,-2360,-51,-26,-15
4557.960999999999,308,24,16344,-2360,-51,-26,-15
4561.066000000001,308,-4,16356,-2356,-5,-38,-3
4561.066000000001,309,-4,16356,-2356,-5,-38,-3
4561.066000000001,308,-4,16356,-2356,-5,-38,-3
4569.568,309,-4,16356,-2356,-5,-38,-3
4574.378000000001,309,-4,16356,-2356,-5,-38,-3
4576.696,308,-4,16356,-2356,-5,-38,-3
4577.78,309,-4,16356,-2356,-5,-38,-3
4577.78,308,-4,16356,-2356,-5,-38,-3
4583.63,308,4,16432,-2368,-57,-49,-19
4585.638,309,4,16432,-2368,-57,-49,-19
4589.9,309,4,16432,-2368,-57,-49,-19
4593.666,309,4,16432,-2368,-57,-49,-19
4593.666,308,4,16432,-2368,-57,-49,-19
4597.112,308,4,16432,-2368,-57,-49,-19
4600.972,308,4,16432,-2368,-57,-49,-19
4602.837,309,-8,16300,-2380,-39,-40,-1
4605.607,308,-8,16300,-2380,-39,-40,-1
4608.228,308,-8,16300,-2380,-39,-40,-1
4611.24,308,-8,16300,-2380,-39,-40,-1
4613.254000000001,309,-8,16300,-2380,-39,-40,-1
4617.458,309,-8,16300,-2380,-39,-40,-1
4618.464,309,-8,16300,-2380,-39,-40,-1
4618.464,308,-8,16300,-2380,-39,-40,-1
4618.464,308,12,16328,-2364,-36,-41,7
4626.545,309,12,16328,-2364,-36,-41,7
4630.222,308,12,16328,-2364,-36,-41,7
4630.222,309,12,16328,-2364,-36,-41,7
4630.222,309,12,16328,-2364,-36,-41,7
4638.385,309,12,16328,-2364,-36,-41,7
4638.385,308,12,16328,-2364,-36,-41,7
4642.22,308,12,16328,-2364,-36,-41,7
4643.229,309,28,16384,-2396,-19,-22,-20
4643.229,308,28,16384,-2396,-19,-22,-20
4643.229,309,28,16384,-2396,-19,-22,-20
4651.478,309,28,16384,-2396,-19,-22,-20
4651.478,308,28,16384,-2396,-19,-22,-20
4651.478,308,28,16384,-2396,-19,-22,-20
4659.522,307,28,16384,-2396,-19,-22,-20
4659.522,309,4,16324,-2376,-43,-45,-21
4659.522,309,4,16324,-2376,-43,-45,-21
4667.851,309,4,16324,-2376,-43,-45,-21
4667.851,309,4,16324,-2376,-43,-45,-21
4675.8949999999995,309,4,16324,-2376,-43,-45,-21
4675.8949999999995,308,4,16324,-2376,-43,-45,-21
4675.8949999999995,308,4,16324,-2376,-43,-45,-21
4683.982,308,24,16288,-2352,-34,-33,-14
4683.982,308,24,16288,-2352,-34,-33,-14
4688.888999999999,309,24,16288,-2352,-34,-33,-14
4708.512,308,24,16288,-2352,-34,-33,-14
4710.525,309,24,16288,-2352,-34,-33,-14
4712.54,309,24,16288,-2352,-34,-33,-14
4714.556,308,24,16288,-2352,-34,-33,-14
4716.571,308,24,16288,-2352,-34,-33,-14
4719.249,308,32,16284,-2356,-36,-55,1
4721.261,309,32,16284,-2356,-36,-55,1
4723.274,309,32,16284,-2356,-36,-55,1
4724.682,309,32,16284,-2356,-36,-55,1
4727.718000000001,308,32,16284,-2356,-36,-55,1
4728.943,308,32,16284,-2356,-36,-55,1
4730.973,308,32,16284,-2356,-36,-55,1
4731.79,308,16,16344,-2376,-22,-52,-7
4732.803,308,16,16344,-2376,-22,-52,-7
4734.817999999999,308,16,16344,-2376,-22,-52,-7
4736.192,309,16,16344,-2376,-22,-52,-7
4737.319,309,16,16344,-2376,-22,-52,-7
4742.487,309,16,16344,-2376,-22,-52,-7
4743.406,308,16,16344,-2376,-22,-52,-7
4745.415999999999,308,16,16344,-2376,-22,-52,-7
4759.178000000001,308,-20,16304,-2336,-10,-17,-14
4760.5779999999995,308,-20,16304,-2336,-10,-17,-14
4761.826,309,-20,16304,-2336,-10,-17,-14
4762.423,309,-20,16304,-2336,-10,-17,-14
4764.43,309,-20,16304,-2336,-10,-17,-14
4765.44,308,-20,16304,-2336,-10,-17,-14
4765.44,308,-20,16304,-2336,-10,-17,-14
4765.44,308,8,16332,-2352,-35,-63,-10
4765.44,308,8,16332,-2352,-35,-63,-10
4769.303,309,8,16332,-2352,-35,-63,-10
4773.317999999999,309,8,16332,-2352,-35,-63,-10
4775.525,309,8,16332,-2352,-35,-63,-10
4777.532,309,8,16332,-2352,-35,-63,-10
4781.776,308,8,16332,-2352,-35,-63,-10
4781.776,308,24,16316,-2340,-49,-44,-15
4781.776,309,24,16316,-2340,-49,-44,-15
4790.263000000001,309,24,16316,-2340,-49,-44,-15
4790.263000000001,308,24,16316,-2340,-49,-44,-15
4790.263000000001,308,24,16316,-2340,-49,-44,-15
4798.313,309,24,16316,-2340,-49,-44,-15
4798.313,308,24,16316,-2340,-49,-44,-15
4798.313,308,24,16316,-2340,-49,-44,-15
4806.353999999999,308,12,16312,-2384,-24,-34,-18
4806.353999999999,309,12,16312,-2384,-24,-34,-18
4806.353999999999,309,12,16312,-2384,-24,-34,-18
4814.803000000001,308,12,16312,-2384,-24,-34,-18
4814.803000000001,309,12,16312,-2384,-24,-34,-18
4814.803000000001,308,12,16312,-2384,-24,-34,-18
4822.84,308,12,16312,-2384,-24,-34,-18
4822.84,308,-20,16344,-2340,-40,-55,-9
4822.84,309,-20,16344,-2340,-40,-55,-9
4830.872,309,-20,16344,-2340,-40,-55,-9
4831.719,309,-20,16344,-2340,-40,-55,-9
4834.399,308,-20,16344,-2340,-40,-55,-9
4838.428000000001,308,-20,16344,-2340,-40,-55,-9
4838.428000000001,308,-20,16344,-2340,-40,-55,-9
4844.215,309,8,16360,-2372,-45,-22,-10
4846.224,308,8,16360,-2372,-45,-22,-10
4846.224,308,8,16360,-2372,-45,-22,-10
4846.224,308,8,16360,-2372,-45,-22,-10
4854.424,309,8,16360,-2372,-45,-22,-10
4857.576,308,8,16360,-2372,-45,-22,-10
4858.685,309,8,16360,-2372,-45,-22,-10
4862.526,309,8,16360,-2372,-45,-22,-10
4862.526,309,-24,16296,-2372,-35,-46,-7
4868.148999999999,308,-24,16296,-2372,-35,-46,-7
4872.1810000000005,308,-24,16296,-2372,-35,-46,-7
4874.196000000001,308,-24,16296,-2372,-35,-46,-7
4874.196000000001,309,-24,16296,-2372,-35,-46,-7
4877.95,308,-24,16296,-2372,-35,-46,-7
4877.95,308,-24,16296,-2372,-35,-46,-7
4877.95,309,-36,16328,-2344,-13,-29,1
4888.2519999999995,308,-36,16328,-2344,-13,-29,1
4888.2519999999995,309,-36,16328,-2344,-13,-29,1
4892.702,309,-36,16328,-2344,-13,-29,1
4894.592000000001,308,-36,16328,-2344,-13,-29,1
4894.592000000001,308,-36,16328,-2344,-13,-29,1
4894.592000000001,308,-36,16328,-2344,-13,-29,1
4902.6990000000005,308,-36,16328,-2344,-13,-29,1
4902.6990000000005,308,-68,16344,-2380,-35,-63,-14
4907.7789999999995,309,-68,16344,-2380,-35,-63,-14
4910.562,309,-68,16344,-2380,-35,-63,-14
4910.562,308,-68,16344,-2380,-35,-63,-14
4910.562,308,-68,16344,-2380,-35,-63,-14
4920.523,308,-68,16344,-2380,-35,-63,-14
4920.523,308,-68,16344,-2380,-35,-63,-14
4922.543,308,-24,16380,-2376,-53,-54,-15
4926.938,308,-24,16380,-2376,-53,-54,-15
4926.938,308,-24,16380,-2376,-53,-54,-15
4926.938,308,-24,16380,-2376,-53,-54,-15
4935.343,308,-24,16380,-2376,-53,-54,-15
4940.887,308,-24,16380,-2376,-53,-54,-15
4943.499,308,-24,16380,-2376,-53,-54,-15
4943.499,307,-12,16328,-2336,-44,-38,-22
4946.723000000001,308,-12,16328,-2336,-44,-38,-22
4946.723000000001,308,-12,16328,-2336,-44,-38,-22
4951.862,309,-12,16328,-2336,-44,-38,-22
4951.862,309,-12,16328,-2336,-44,-38,-22
4960.038,308,-12,16328,-2336,-44,-38,-22
4962.088,308,-12,16328,-2336,-44,-38,-22
4962.088,308,-32,16356,-2360,-27,-29,-17
4968.505999999999,308,-32,16356,-2360,-27,-29,-17
4968.505999999999,308,-32,16356,-2360,-27,-29,-17
4968.505999999999,308,-32,16356,-2360,-27,-29,-17
4976.971,309,-32,16356,-2360,-27,-29,-17
4976.971,308,-32,16356,-2360,-27,-29,-17
4976.971,307,-32,16356,-2360,-27,-29,-17
4985.401000000001,308,16,16296,-2328,-24,-26,-9
4985.401000000001,308,16,16296,-2328,-24,-26,-9
4985.401000000001,309,16,16296,-2328,-24,-26,-9
4993.602,309,16,16296,-2328,-24,-26,-9
4993.602,308,16,16296,-2328,-24,-26,-9
4993.602,309,16,16296,-2328,-24,-26,-9
5001.867,309,16,16296,-2328,-24,-26,-9
5004.179,308,-60,16316,-2336,-37,-32,-11
5007.256,309,-60,16316,-2336,-37,-32,-11
5010.2880000000005,309,-60,16316,-2336,-37,-32,-11
5013.338,309,-60,16316,-2336,-37,-32,-11
5014.6230000000005,309,-60,16316,-2336,-37,-32,-11
5018.618,309,-60,16316,-2336,-37,-32,-11
5018.618,309,-60,16316,-2336,-37,-32,-11
5021.543000000001,310,-4,16316,-2384,-56,-30,9
5026.851,311,-4,16316,-2384,-56,-30,9
5026.851,311,-4,16316,-2384,-56,-30,9
5029.759999999999,311,-4,16316,-2384,-56,-30,9
5034.875999999999,310,-4,16316,-2384,-56,-30,9
5034.875999999999,310,-4,16316,-2384,-56,-30,9
5034.875999999999,309,-4,16316,-2384,-56,-30,9
5042.601000000001,307,-4,16316,-2384,-56,-30,9
5042.601000000001,307,-24,16320,-2352,-24,-39,-7
5042.601000000001,306,-24,16320,-2352,-24,-39,-7
5051.485,305,-24,16320,-2352,-24,-39,-7
5051.485,304,-24,16320,-2352,-24,-39,-7
5051.485,301,-24,16320,-2352,-24,-39,-7
5058.284,299,-24,16320,-2352,-24,-39,-7
5058.284,298,-24,16320,-2352,-24,-39,-7
5064.408,298,-24,16320,-2352,-24,-39,-7
5067.6759999999995,297,8,16344,-2384,-31,-42,-26
5067.6759999999995,296,8,16344,-2384,-31,-42,-26
5072.558,296,8,16344,-2384,-31,-42,-26
5074.675,298,8,16344,-2384,-31,-42,-26
5074.675,297,8,16344,-2384,-31,-42,-26
5080.7339999999995,299,8,16344,-2384,-31,-42,-26
5082.978,298,8,16344,-2384,-31,-42,-26
5082.978,298,-24,16372,-2404,-32,-36,-14
5082.978,300,-24,16372,-2404,-32,-36,-14
5091.893,299,-24,16372,-2404,-32,-36,-14
5091.893,299,-24,16372,-2404,-32,-36,-14
5091.893,299,-24,16372,-2404,-32,-36,-14
5101.277,298,-24,16372,-2404,-32,-36,-14
5101.791,298,-24,16372,-2404,-32,-36,-14
5101.791,298,-36,16332,-2368,-53,-40,10
5107.771,298,-36,16332,-2368,-53,-40,10
5107.771,299,-36,16332,-2368,-53,-40,10
5107.771,298,-36,16332,-2368,-53,-40,10
5115.8099999999995,296,-36,16332,-2368,-53,-40,10
5115.8099999999995,297,-36,16332,-2368,-53,-40,10
5115.8099999999995,296,-36,16332,-2368,-53,-40,10
5123.966,297,0,16328,-2376,-24,-33,-18
5123.966,300,0,16328,-2376,-24,-33,-18
5123.966,300,0,16328,-2376,-24,-33,-18
5134.197999999999,300,0,16328,-2376,-24,-33,-18
5134.197999999999,300,0,16328,-2376,-24,-33,-18
5134.197999999999,299,0,16328,-2376,-24,-33,-18
5141.089,299,0,16328,-2376,-24,-33,-18
5142.685,297,0,16328,-2376,-24,-33,-18
5146.287,297,-16,16424,-2376,-44,-34,-5
5148.737999999999,297,-16,16424,-2376,-44,-34,-5
5148.737999999999,298,-16,16424,-2376,-44,-34,-5
5148.737999999999,299,-16,16424,-2376,-44,-34,-5
5158.036,300,-16,16424,-2376,-44,-34,-5
5158.036,300,-16,16424,-2376,-44,-34,-5
5158.036,301,-16,16424,-2376,-44,-34,-5
5165.301,300,-8,16288,-2372,-81,-46,16
5165.301,302,-8,16288,-2372,-81,-46,16
5165.301,302,-8,16288,-2372,-81,-46,16
5173.657999999999,302,-8,16288,-2372,-81,-46,16
5175.678,301,-8,16288,-2372,-81,-46,16
5177.9169999999995,301,-8,16288,-2372,-81,-46,16
5179.955,301,-8,16288,-2372,-81,-46,16
5181.713000000001,302,-8,16288,-2372,-81,-46,16
5181.713000000001,303,20,16252,-2320,-37,-51,-10
5190.031,303,20,16252,-2320,-37,-51,-10
5190.8,304,20,16252,-2320,-37,-51,-10
5190.8,304,20,16252,-2320,-37,-51,-10
5190.8,304,20,16252,-2320,-37,-51,-10
5199.530000000001,305,20,16252,-2320,-37,-51,-10
5199.530000000001,304,20,16252,-2320,-37,-51,-10
5199.530000000001,304,-36,16344,-2360,-4,-40,11
5207.281,305,-36,16344,-2360,-4,-40,11
5210.106,304,-36,16344,-2360,-4,-40,11
5210.106,304,-36,16344,-2360,-4,-40,11
5214.91,303,-36,16344,-2360,-4,-40,11
5214.91,303,-36,16344,-2360,-4,-40,11
5214.91,303,-36,16344,-2360,-4,-40,11
5223.150000000001,303,4,16320,-2356,-27,-53,-16
5223.150000000001,304,4,16320,-2356,-27,-53,-16
5223.150000000001,304,4,16320,-2356,-27,-53,-16
5231.5,303,4,16320,-2356,-27,-53,-16
5233.456,303,4,16320,-2356,-27,-53,-16
5233.456,303,4,16320,-2356,-27,-53,-16
5240.476000000001,304,4,16320,-2356,-27,-53,-16
5243.000999999999,304,4,16320,-2356,-27,-53,-16
5243.000999999999,304,16,16344,-2340,-45,-53,7
5247.967,306,16,16344,-2340,-45,-53,7
5247.967,306,16,16344,-2340,-45,-53,7
5247.967,307,16,16344,-2340,-45,-53,7
5256.187,306,16,16344,-2340,-45,-53,7
5257.474,305,16,16344,-2340,-45,-53,7
5257.474,304,16,16344,-2340,-45,-53,7
5264.986000000001,305,16,16344,-2340,-45,-53,7
5267.411,306,20,16304,-2388,-52,-39,-9
5269.686,306,20,16304,-2388,-52,-39,-9
5273.092000000001,307,20,16304,-2388,-52,-39,-9
5275.394,306,20,16304,-2388,-52,-39,-9
5276.791,306,20,16304,-2388,-52,-39,-9
5280.897000000001,306,20,16304,-2388,-52,-39,-9
5282.911999999999,307,20,16304,-2388,-52,-39,-9
5285.558,305,32,16324,-2340,-18,-39,-4
5289.041,304,32,16324,-2340,-18,-39,-4
5291.057000000001,304,32,16324,-2340,-18,-39,-4
5291.057000000001,305,32,16324,-2340,-18,-39,-4
5291.057000000001,305,32,16324,-2340,-18,-39,-4
5297.576,305,32,16324,-2340,-18,-39,-4
5297.576,306,32,16324,-2340,-18,-39,-4
5297.576,305,32,16324,-2340,-18,-39,-4
5305.973,306,-72,16328,-2364,-49,-21,3
5308.075,306,-72,16328,-2364,-49,-21,3
5308.075,306,-72,16328,-2364,-49,-21,3
5314.478,307,-72,16328,-2364,-49,-21,3
5314.478,307,-72,16328,-2364,-49,-21,3
5314.478,307,-72,16328,-2364,-49,-21,3
5322.6269999999995,307,-72,16328,-2364,-49,-21,3
5324.473,306,-60,16304,-2344,-53,-40,-9
5324.473,307,-60,16304,-2344,-53,-40,-9
5330.798,307,-60,16304,-2344,-53,-40,-9
5330.798,308,-60,16304,-2344,-53,-40,-9
5330.798,307,-60,16304,-2344,-53,-40,-9
5339.014,308,-60,16304,-2344,-53,-40,-9
5342.978999999999,306,-60,16304,-2344,-53,-40,-9
5342.978999999999,306,-60,16304,-2344,-53,-40,-9
5347.454,306,-40,16304,-2352,-49,-35,-1
5351.17,306,-40,16304,-2352,-49,-35,-1
5351.833,307,-40,16304,-2352,-49,-35,-1
5355.857999999999,308,-40,16304,-2352,-49,-35,-1
5357.844,308,-40,16304,-2352,-49,-35,-1
5357.844,308,-40,16304,-2352,-49,-35,-1
5364.003000000001,307,-40,16304,-2352,-49,-35,-1
5364.003000000001,307,8,16308,-2364,-52,-40,-11
5364.003000000001,307,8,16308,-2364,-52,-40,-11
5372.298,307,8,16308,-2364,-52,-40,-11
5372.298,308,8,16308,-2364,-52,-40,-11
5372.298,308,8,16308,-2364,-52,-40,-11
5372.298,306,8,16308,-2364,-52,-40,-11
5380.889,307,8,16308,-2364,-52,-40,-11
5380.889,308,24,16376,-2344,-12,-38,-4
5380.889,308,24,16376,-2344,-12,-38,-4
5389.1669999999995,308,24,16376,-2344,-12,-38,-4
5389.1669999999995,308,24,16376,-2344,-12,-38,-4
5389.1669999999995,308,24,16376,-2344,-12,-38,-4
5397.628,308,24,16376,-2344,-12,-38,-4
5397.628,308,24,16376,-2344,-12,-38,-4
5397.628,308,24,16376,-2344,-12,-38,-4
5406.06,307,-28,16352,-2372,-48,-33,-1
5406.06,307,-28,16352,-2372,-48,-33,-1
5406.06,308,-28,16352,-2372,-48,-33,-1
5414.1539999999995,309,-28,16352,-2372,-48,-33,-1
5414.1539999999995,307,-28,16352,-2372,-48,-33,-1
5414.1539999999995,306,-28,16352,-2372,-48,-33,-1
5422.401,305,-28,16352,-2372,-48,-33,-1
5422.401,306,20,16288,-2372,-41,-31,0
5422.401,307,20,16288,-2372,-41,-31,0
5430.493,308,20,16288,-2372,-41,-31,0
5430.493,307,20,16288,-2372,-41,-31,0
5430.493,307,20,16288,-2372,-41,-31,0
5438.82,308,20,16288,-2372,-41,-31,0
5442.0419999999995,308,20,16288,-2372,-41,-31,0
5444.117,308,20,16288,-2372,-41,-31,0
5447.29,309,-36,16344,-2396,-50,-47,-2
5447.29,308,-36,16344,-2396,-50,-47,-2
5447.29,309,-36,16344,-2396,-50,-47,-2
5455.423,309,-36,16344,-2396,-50,-47,-2
5456.2609999999995,309,-36,16344,-2396,-50,-47,-2
5456.2609999999995,309,-36,16344,-2396,-50,-47,-2
5456.2609999999995,309,-36,16344,-2396,-50,-47,-2
5465.957,309,-16,16336,-2372,-35,-32,-5
5465.957,308,-16,16336,-2372,-35,-32,-5
5471.8730000000005,309,-16,16336,-2372,-35,-32,-5
5471.8730000000005,309,-16,16336,-2372,-35,-32,-5
5471.8730000000005,308,-16,16336,-2372,-35,-32,-5
5471.8730000000005,309,-16,16336,-2372,-35,-32,-5
5480.194,309,-16,16336,-2372,-35,-32,-5
5480.194,309,-16,16336,-2372,-35,-32,-5
5480.194,310,-28,16284,-2368,-38,-32,-3
5488.701,310,-28,16284,-2368,-38,-32,-3
5493.33,309,-28,16284,-2368,-38,-32,-3
5493.33,309,-28,16284,-2368,-38,-32,-3
5496.957,309,-28,16284,-2368,-38,-32,-3
5496.957,309,-28,16284,-2368,-38,-32,-3
5496.957,309,-28,16284,-2368,-38,-32,-3
5505.080999999999,309,-32,16336,-2344,-37,-32,2
5508.355,309,-32,16336,-2344,-37,-32,2
5508.355,309,-32,16336,-2344,-37,-32,2
5513.122,309,-32,16336,-2344,-37,-32,2
5513.122,308,-32,16336,-2344,-37,-32,2
5521.293,308,-32,16336,-2344,-37,-32,2
5524.089,309,-32,16336,-2344,-37,-32,2
5524.089,308,-36,16332,-2412,-5,-47,-9
5524.089,308,-36,16332,-2412,-5,-47,-9
5531.5,309,-36,16332,-2412,-5,-47,-9
5532.5689999999995,309,-36,16332,-2412,-5,-47,-9
5532.5689999999995,310,-36,16332,-2412,-5,-47,-9
5539.521,310,-36,16332,-2412,-5,-47,-9
5541.5419999999995,309,-36,16332,-2412,-5,-47,-9
5543.057,309,-36,16332,-2412,-5,-47,-9
5547.777,310,0,16348,-2308,-62,-30,-24
5547.777,309,0,16348,-2308,-62,-30,-24
5547.777,310,0,16348,-2308,-62,-30,-24
5554.198,310,0,16348,-2308,-62,-30,-24
5557.059,311,0,16348,-2308,-62,-30,-24
5559.952,309,0,16348,-2308,-62,-30,-24
5562.233,309,0,16348,-2308,-62,-30,-24
5562.233,309,-16,16328,-2356,-22,-55,-24
5562.233,310,-16,16328,-2356,-22,-55,-24
5570.630999999999,310,-16,16328,-2356,-22,-55,-24
5574.428,309,-16,16328,-2356,-22,-55,-24
5574.428,310,-16,16328,-2356,-22,-55,-24
5578.988,309,-16,16328,-2356,-22,-55,-24
5578.988,309,-16,16328,-2356,-22,-55,-24
5578.988,309,-12,16320,-2324,-35,-19,3
5587.383,309,-12,16320,-2324,-35,-19,3
5591.09,308,-12,16320,-2324,-35,-19,3
5593.200000000001,309,-12,16320,-2324,-35,-19,3
5595.837,309,-12,16320,-2324,-35,-19,3
5595.837,308,-12,16320,-2324,-35,-19,3
5595.837,308,-12,16320,-2324,-35,-19,3
5604.827,309,-12,16320,-2324,-35,-19,3
5604.827,308,-36,16272,-2368,-20,-26,-15
5607.986999999999,308,-36,16272,-2368,-20,-26,-15
5612.355,308,-36,16272,-2368,-20,-26,-15
5617.071,308,-36,16272,-2368,-20,-26,-15
5617.071,308,-36,16272,-2368,-20,-26,-15
5620.592000000001,308,-36,16272,-2368,-20,-26,-15
5624.136,309,-36,16272,-2368,-20,-26,-15
5626.239,307,-24,16324,-2344,-40,-56,-15
5629.131,307,-24,16324,-2344,-40,-56,-15
5629.131,308,-24,16324,-2344,-40,-56,-15
5629.131,307,-24,16324,-2344,-40,-56,-15
5637.756,308,-24,16324,-2344,-40,-56,-15
5640.981,308,-24,16324,-2344,-40,-56,-15
5643.1230000000005,308,-24,16324,-2344,-40,-56,-15
5645.763,308,-24,16344,-2388,-27,-23,-22
5645.763,309,-24,16344,-2388,-27,-23,-22
5653.967,309,-24,16344,-2388,-27,-23,-22
5653.967,309,-24,16344,-2388,-27,-23,-22
5657.3099999999995,308,-24,16344,-2388,-27,-23,-22
5662.377,307,-24,16344,-2388,-27,-23,-22
5663.307,306,-24,16344,-2388,-27,-23,-22
5663.307,308,8,16328,-2376,-20,-40,13
5670.573,308,8,16328,-2376,-20,-40,13
5670.573,307,8,16328,-2376,-20,-40,13
5670.573,308,8,16328,-2376,-20,-40,13
5670.573,307,8,16328,-2376,-20,-40,13
5678.756,307,8,16328,-2376,-20,-40,13
5678.756,307,8,16328,-2376,-20,-40,13
5678.756,308,8,16328,-2376,-20,-40,13
5686.950000000001,306,16,16328,-2396,-21,-35,-28
5686.950000000001,306,16,16328,-2396,-21,-35,-28
5691.893999999999,307,16,16328,-2396,-21,-35,-28
5695.462,308,16,16328,-2396,-21,-35,-28
5695.462,307,16,16328,-2396,-21,-35,-28
5695.462,307,16,16328,-2396,-21,-35,-28
5703.862,308,16,16328,-2396,-21,-35,-28
5703.862,307,-16,16380,-2344,-15,-46,-15
5708.603,308,-16,16380,-2344,-15,-46,-15
5711.978,308,-16,16380,-2344,-15,-46,-15
5711.978,308,-16,16380,-2344,-15,-46,-15
5711.978,308,-16,16380,-2344,-15,-46,-15
5720.150000000001,306,-16,16380,-2344,-15,-46,-15
5720.150000000001,307,-16,16380,-2344,-15,-46,-15
5725.147,307,-4,16332,-2316,-62,-32,-8
5728.532999999999,308,-4,16332,-2316,-62,-32,-8
5731.858,308,-4,16332,-2316,-62,-32,-8
5732.869,307,-4,16332,-2316,-62,-32,-8
5736.566,308,-4,16332,-2316,-62,-32,-8
5736.566,308,-4,16332,-2316,-62,-32,-8
5744.162,308,-4,16332,-2316,-62,-32,-8
5744.65,309,-4,16332,-2316,-62,-32,-8
5746.493,308,20,16304,-2360,-52,-42,-22
5746.493,308,20,16304,-2360,-52,-42,-22
5752.641,309,20,16304,-2360,-52,-42,-22
5752.641,308,20,16304,-2360,-52,-42,-22
5757.1539999999995,308,20,16304,-2360,-52,-42,-22
5761.116999999999,308,20,16304,-2360,-52,-42,-22
5761.116999999999,307,20,16304,-2360,-52,-42,-22
5761.116999999999,307,-4,16332,-2356,-23,-42,-17
5769.321,308,-4,16332,-2356,-23,-42,-17
5769.321,307,-4,16332,-2356,-23,-42,-17
5773.799,308,-4,16332,-2356,-23,-42,-17
5778.188,308,-4,16332,-2356,-23,-42,-17
5781.341,308,-4,16332,-2356,-23,-42,-17
5784.884,308,-4,16332,-2356,-23,-42,-17
5785.929999999999,308,-16,16340,-2324,-32,-38,-30
5785.929999999999,308,-16,16340,-2324,-32,-38,-30
5792.514999999999,308,-16,16340,-2324,-32,-38,-30
5794.254,309,-16,16340,-2324,-32,-38,-30
5794.254,307,-16,16340,-2324,-32,-38,-30
5794.254,307,-16,16340,-2324,-32,-38,-30
5802.692,308,-16,16340,-2324,-32,-38,-30
5803.423000000001,308,-40,16304,-2392,-38,-50,-6
5806.913,307,-40,16304,-2392,-38,-50,-6
5810.835,307,-40,16304,-2392,-38,-50,-6
5810.835,307,-40,16304,-2392,-38,-50,-6
5810.835,307,-40,16304,-2392,-38,-50,-6
5810.835,307,-40,16304,-2392,-38,-50,-6
5821.411,307,-40,16304,-2392,-38,-50,-6
5825.715,308,-40,16304,-2392,-38,-50,-6
5825.715,308,-4,16316,-2320,-61,-45,-9
5827.544,308,-4,16316,-2320,-61,-45,-9
5834.5289999999995,307,-4,16316,-2320,-61,-45,-9
5834.5289999999995,308,-4,16316,-2320,-61,-45,-9
5836.121,308,-4,16316,-2320,-61,-45,-9
5840.499000000001,308,-4,16316,-2320,-61,-45,-9
5843.319,308,-4,16316,-2320,-61,-45,-9
5844.336,309,-32,16312,-2396,-41,-61,1
5850.079,309,-32,16312,-2396,-41,-61,1
5850.079,309,-32,16312,-2396,-41,-61,1
5852.62,308,-32,16312,-2396,-41,-61,1
5857.683,308,-32,16312,-2396,-41,-61,1
5857.683,308,-32,16312,-2396,-41,-61,1
5863.024,308,-32,16312,-2396,-41,-61,1
5863.024,308,-32,16312,-2396,-41,-61,1
5868.822,308,-8,16396,-2376,-17,-52,-17
5870.509,309,-8,16396,-2376,-17,-52,-17
5874.664,308,-8,16396,-2376,-17,-52,-17
5874.664,307,-8,16396,-2376,-17,-52,-17
5879.474,306,-8,16396,-2376,-17,-52,-17
5879.474,307,-8,16396,-2376,-17,-52,-17
5879.474,308,-8,16396,-2376,-17,-52,-17
5887.438,308,4,16324,-2372,-53,-44,-4
5891.453,309,4,16324,-2372,-53,-44,-4
5891.453,308,4,16324,-2372,-53,-44,-4
5895.296,308,4,16324,-2372,-53,-44,-4
5895.296,307,4,16324,-2372,-53,-44,-4
5895.296,308,4,16324,-2372,-53,-44,-4
5901.512000000001,307,4,16324,-2372,-53,-44,-4
5901.512000000001,308,4,16324,-2372,-53,-44,-4
5907.862,308,20,16364,-2364,-35,-41,-22
5909.597,307,20,16364,-2364,-35,-41,-22
5909.597,308,20,16364,-2364,-35,-41,-22
5914.073,307,20,16364,-2364,-35,-41,-22
5920.375,308,20,16364,-2364,-35,-41,-22
5920.375,309,20,16364,-2364,-35,-41,-22
5924.704000000001,309,20,16364,-2364,-35,-41,-22
5928.57,308,0,16320,-2404,-43,-26,-4
5928.57,309,0,16320,-2404,-43,-26,-4
5928.57,309,0,16320,-2404,-43,-26,-4
5936.827,309,0,16320,-2404,-43,-26,-4
5936.827,308,0,16320,-2404,-43,-26,-4
5941.380999999999,308,0,16320,-2404,-43,-26,-4
5942.625,309,0,16320,-2404,-43,-26,-4
5944.795,308,0,16320,-2404,-43,-26,-4
5948.803,308,-12,16384,-2372,-33,-50,-21
5948.803,308,-12,16384,-2372,-33,-50,-21
5953.203,308,-12,16384,-2372,-33,-50,-21
5953.203,309,-12,16384,-2372,-33,-50,-21
5961.286999999999,308,-12,16384,-2372,-33,-50,-21
5961.286999999999,309,-12,16384,-2372,-33,-50,-21
5965.169000000001,309,-12,16384,-2372,-33,-50,-21
5969.539,308,-40,16376,-2356,-37,-37,1
5969.539,309,-40,16376,-2356,-37,-37,1
5974.706,309,-40,16376,-2356,-37,-37,1
5977.433999999999,308,-40,16376,-2356,-37,-37,1
5977.947,308,-40,16376,-2356,-37,-37,1
5980.767,308,-40,16376,-2356,-37,-37,1
5982.953,307,-40,16376,-2356,-37,-37,1
5982.953,308,24,16344,-2372,-23,-51,-12
5988.941,308,24,16344,-2372,-23,-51,-12
5990.956,308,24,16344,-2372,-23,-51,-12
5990.956,307,24,16344,-2372,-23,-51,-12
5990.956,308,24,16344,-2372,-23,-51,-12
6001.037,308,24,16344,-2372,-23,-51,-12
6003.043,308,24,16344,-2372,-23,-51,-12
6007.06,308,24,16344,-2372,-23,-51,-12
6009.072,308,16,16256,-2388,-41,-36,6
6009.072,308,16,16256,-2388,-41,-36,6
6009.072,308,16,16256,-2388,-41,-36,6
6015.508,308,16,16256,-2388,-41,-36,6
6018.722000000001,308,16,16256,-2388,-41,-36,6
6018.722000000001,308,16,16256,-2388,-41,-36,6
6023.9580000000005,308,16,16256,-2388,-41,-36,6
6026.099,308,12,16272,-2368,-40,-37,-8
6030.264,309,12,16272,-2368,-40,-37,-8
6032.018,309,12,16272,-2368,-40,-37,-8
6035.113,309,12,16272,-2368,-40,-37,-8
6035.113,309,12,16272,-2368,-40,-37,-8
6042.297,309,12,16272,-2368,-40,-37,-8
6043.513,308,12,16272,-2368,-40,-37,-8
6043.513,309,12,16272,-2368,-40,-37,-8
6047.3949999999995,310,-4,16376,-2336,-36,-51,-10
6051.45,309,-4,16376,-2336,-36,-51,-10
6051.45,309,-4,16376,-2336,-36,-51,-10
6056.834,308,-4,16376,-2336,-36,-51,-10
6058.845,309,-4,16376,-2336,-36,-51,-10
6058.845,309,-4,16376,-2336,-36,-51,-10
6065.041,309,-4,16376,-2336,-36,-51,-10
6067.887,309,24,16340,-2356,-24,-64,-20
6067.887,309,24,16340,-2356,-24,-64,-20
6073.382,310,24,16340,-2356,-24,-64,-20
6075.398,309,24,16340,-2356,-24,-64,-20
6080.153,308,24,16340,-2356,-24,-64,-20
6080.153,308,24,16340,-2356,-24,-64,-20
6081.666,309,24,16340,-2356,-24,-64,-20
6081.666,310,-16,16340,-2344,-34,-40,-29
6081.666,309,-16,16340,-2344,-34,-40,-29
6092.183999999999,308,-16,16340,-2344,-34,-40,-29
6096.543,309,-16,16340,-2344,-34,-40,-29
6096.543,308,-16,16340,-2344,-34,-40,-29
6100.6179999999995,308,-16,16340,-2344,-34,-40,-29
6100.6179999999995,308,-16,16340,-2344,-34,-40,-29
6100.6179999999995,308,-56,16352,-2392,-29,-36,-1
6108.417,308,-56,16352,-2392,-29,-36,-1
6112.556,309,-56,16352,-2392,-29,-36,-1
6112.556,309,-56,16352,-2392,-29,-36,-1
6116.589,309,-56,16352,-2392,-29,-36,-1
6120.599999999999,309,-56,16352,-2392,-29,-36,-1
6120.599999999999,308,-56,16352,-2392,-29,-36,-1
6124.62,309,-56,16352,-2392,-29,-36,-1
6126.633,309,-16,16296,-2356,-42,-46,4
6126.633,310,-16,16296,-2356,-42,-46,4
6133.396000000001,309,-16,16296,-2356,-42,-46,4
6137.285999999999,309,-16,16296,-2356,-42,-46,4
6137.285999999999,309,-16,16296,-2356,-42,-46,4
6142.4580000000005,309,-16,16296,-2356,-42,-46,4
6145.669,309,-16,16296,-2356,-42,-46,4
6145.669,309,24,16316,-2344,-38,-46,-4
6147.574,309,24,16316,-2344,-38,-46,-4
6153.754,310,24,16316,-2344,-38,-46,-4
6153.754,310,24,16316,-2344,-38,-46,-4
6158.83,309,24,16316,-2344,-38,-46,-4
6161.527,309,24,16316,-2344,-38,-46,-4
6162.825,309,24,16316,-2344,-38,-46,-4
6165.181,309,24,16316,-2344,-38,-46,-4
6165.181,310,-16,16336,-2356,-41,-9,-13
6165.181,310,-16,16336,-2356,-41,-9,-13
6174.525,311,-16,16336,-2356,-41,-9,-13
6176.535999999999,312,-16,16336,-2356,-41,-9,-13
6176.535999999999,311,-16,16336,-2356,-41,-9,-13
6182.557,311,-16,16336,-2356,-41,-9,-13
6182.557,311,-16,16336,-2356,-41,-9,-13
6182.557,310,32,16300,-2348,-23,-41,-6
6190.313,311,32,16300,-2348,-23,-41,-6
6192.323,310,32,16300,-2348,-23,-41,-6
6192.323,310,32,16300,-2348,-23,-41,-6
6196.524,310,32,16300,-2348,-23,-41,-6
6196.524,310,32,16300,-2348,-23,-41,-6
6196.524,310,32,16300,-2348,-23,-41,-6
6208.019,310,32,16300,-2348,-23,-41,-6
6210.041,311,-36,16348,-2352,-36,-45,-5
6210.041,310,-36,16348,-2352,-36,-45,-5
6213.250999999999,309,-36,16348,-2352,-36,-45,-5
6213.250999999999,309,-36,16348,-2352,-36,-45,-5
6213.250999999999,310,-36,16348,-2352,-36,-45,-5
6221.472000000001,309,-36,16348,-2352,-36,-45,-5
6227.591,310,-36,16348,-2352,-36,-45,-5
6227.591,310,-20,16336,-2352,-28,-42,-7
6229.842,309,-20,16336,-2352,-28,-42,-7
6229.842,309,-20,16336,-2352,-28,-42,-7
6229.842,310,-20,16336,-2352,-28,-42,-7
6237.862,309,-20,16336,-2352,-28,-42,-7
6243.451,309,-20,16336,-2352,-28,-42,-7
6243.451,309,-20,16336,-2352,-28,-42,-7
6247.9490000000005,308,-32,16376,-2360,-34,-46,-10
6251.591,310,-32,16376,-2360,-34,-46,-10
6251.591,309,-32,16376,-2360,-34,-46,-10
6256.275,309,-32,16376,-2360,-34,-46,-10
6260.246,309,-32,16376,-2360,-34,-46,-10
6260.246,309,-32,16376,-2360,-34,-46,-10
6264.528,309,-32,16376,-2360,-34,-46,-10
6266.929,309,-4,16292,-2372,-39,-57,-7
6266.929,309,-4,16292,-2372,-39,-57,-7
6272.787,309,-4,16292,-2372,-39,-57,-7
6276.4,309,-4,16292,-2372,-39,-57,-7
6276.4,308,-4,16292,-2372,-39,-57,-7
6280.994,307,-4,16292,-2372,-39,-57,-7
6280.994,308,-4,16292,-2372,-39,-57,-7
6280.994,308,-4,16292,-2372,-39,-57,-7
6288.996,307,-36,16352,-2384,-47,-32,-8
6292.474999999999,308,-36,16352,-2384,-47,-32,-8
6294.032999999999,308,-36,16352,-2384,-47,-32,-8
6297.303,308,-36,16352,-2384,-47,-32,-8
6298.021000000001,308,-36,16352,-2384,-47,-32,-8
6298.021000000001,308,-36,16352,-2384,-47,-32,-8
6304.384,309,-36,16352,-2384,-47,-32,-8
6308.46,308,36,16332,-2408,-47,-58,-17
6308.46,308,36,16332,-2408,-47,-58,-17
6312.477000000001,307,36,16332,-2408,-47,-58,-17
6316.491,308,36,16332,-2408,-47,-58,-17
6318.498,307,36,16332,-2408,-47,-58,-17
6320.504,307,36,16332,-2408,-47,-58,-17
6324.241,308,36,16332,-2408,-47,-58,-17
6324.241,307,16,16292,-2372,-22,-48,-11
6328.816,307,16,16292,-2372,-22,-48,-11
6332.830999999999,307,16,16292,-2372,-22,-48,-11
6334.838000000001,308,16,16292,-2372,-22,-48,-11
6336.844,307,16,16292,-2372,-22,-48,-11
6339.985000000001,308,16,16292,-2372,-22,-48,-11
6342.753,308,16,16292,-2372,-22,-48,-11
6345.269,308,16,16292,-2372,-22,-48,-11
6347.786,308,52,16344,-2368,-17,-28,-7
6347.786,308,52,16344,-2368,-17,-28,-7
6354.455,308,52,16344,-2368,-17,-28,-7
6356.858,307,52,16344,-2368,-17,-28,-7
6356.858,308,52,16344,-2368,-17,-28,-7
6362.694,307,52,16344,-2368,-17,-28,-7
6362.694,307,52,16344,-2368,-17,-28,-7
6362.694,308,-12,16272,-2392,-47,-34,-13
6370.902,308,-12,16272,-2392,-47,-34,-13
6370.902,308,-12,16272,-2392,-47,-34,-13
6370.902,307,-12,16272,-2392,-47,-34,-13
6378.859,307,-12,16272,-2392,-47,-34,-13
6378.859,307,-12,16272,-2392,-47,-34,-13
6386.339000000001,308,-12,16272,-2392,-47,-34,-13
6386.339000000001,309,52,16292,-2344,-39,-25,-9
6386.339000000001,308,52,16292,-2344,-39,-25,-9
6394.712,308,52,16292,-2344,-39,-25,-9
6394.712,308,52,16292,-2344,-39,-25,-9
6396.925,307,52,16292,-2344,-39,-25,-9
6396.925,307,52,16292,-2344,-39,-25,-9
6403.784,307,52,16292,-2344,-39,-25,-9
6403.784,307,52,16292,-2344,-39,-25,-9
6403.784,307,8,16268,-2404,-26,-30,-16
6411.398,308,8,16268,-2404,-26,-30,-16
6411.398,307,8,16268,-2404,-26,-30,-16
6411.398,308,8,16268,-2404,-26,-30,-16
6419.569,307,8,16268,-2404,-26,-30,-16
6419.569,308,8,16268,-2404,-26,-30,-16
6419.569,307,8,16268,-2404,-26,-30,-16
6428.077,307,-16,16300,-2344,1,-52,2
6428.077,307,-16,16300,-2344,1,-52,2
6428.077,308,-16,16300,-2344,1,-52,2
6436.304,308,-16,16300,-2344,1,-52,2
6436.304,307,-16,16300,-2344,1,-52,2
6436.304,308,-16,16300,-2344,1,-52,2
6443.825000000001,307,-16,16300,-2344,1,-52,2
6443.825000000001,307,-16,16300,-2344,1,-52,2
6443.825000000001,308,-32,16304,-2352,-44,-20,-23
6452.032,307,-32,16304,-2352,-44,-20,-23
6452.032,306,-32,16304,-2352,-44,-20,-23
6457.521,307,-32,16304,-2352,-44,-20,-23
6460.447,306,-32,16304,-2352,-44,-20,-23
6461.696,306,-32,16304,-2352,-44,-20,-23
6463.59,307,-32,16304,-2352,-44,-20,-23
6468.657999999999,306,-20,16356,-2332,-31,-54,-8
6468.657999999999,307,-20,16356,-2332,-31,-54,-8
6468.657999999999,308,-20,16356,-2332,-31,-54,-8
6476.718,308,-20,16356,-2332,-31,-54,-8
6476.718,308,-20,16356,-2332,-31,-54,-8
6479.911999999999,307,-20,16356,-2332,-31,-54,-8
6484.8949999999995,308,-20,16356,-2332,-31,-54,-8
6484.8949999999995,308,-20,16356,-2332,-31,-54,-8
6484.8949999999995,308,-8,16316,-2360,-33,-35,-11
6493.181,308,-8,16316,-2360,-33,-35,-11
6493.181,307,-8,16316,-2360,-33,-35,-11
6493.181,307,-8,16316,-2360,-33,-35,-11
6501.286999999999,307,-8,16316,-2360,-33,-35,-11
6501.286999999999,307,-8,16316,-2360,-33,-35,-11
6501.286999999999,308,-8,16316,-2360,-33,-35,-11
6509.821,307,12,16272,-2356,-20,-41,-16
6509.821,307,12,16272,-2356,-20,-41,-16
6509.821,307,12,16272,-2356,-20,-41,-16
6517.91,306,12,16272,-2356,-20,-41,-16
6517.91,307,12,16272,-2356,-20,-41,-16
6517.91,306,12,16272,-2356,-20,-41,-16
6525.979,307,12,16272,-2356,-20,-41,-16
6525.979,306,-32,16344,-2356,-54,-22,-6
6525.979,306,-32,16344,-2356,-54,-22,-6
6534.5560000000005,307,-32,16344,-2356,-54,-22,-6
6538.888,307,-32,16344,-2356,-54,-22,-6
6541.088000000001,307,-32,16344,-2356,-54,-22,-6
6543.942,307,-32,16344,-2356,-54,-22,-6
6547.039,307,-32,16344,-2356,-54,-22,-6
6548.013,307,4,16328,-2340,-36,-18,-25
6550.96,308,4,16328,-2340,-36,-18,-25
6550.96,308,4,16328,-2340,-36,-18,-25
6557.656,308,4,16328,-2340,-36,-18,-25
6559.566,308,4,16328,-2340,-36,-18,-25
6559.566,307,4,16328,-2340,-36,-18,-25
6559.566,307,4,16328,-2340,-36,-18,-25
6567.617,308,4,16328,-2340,-36,-18,-25
6567.617,308,32,16336,-2380,-52,-51,-1
6567.617,308,32,16336,-2380,-52,-51,-1
6576.076999999999,308,32,16336,-2380,-52,-51,-1
6576.076999999999,308,32,16336,-2380,-52,-51,-1
6579.883,308,32,16336,-2380,-52,-51,-1
6583.215,308,32,16336,-2380,-52,-51,-1
6584.224,308,32,16336,-2380,-52,-51,-1
6584.224,308,-4,16324,-2368,-25,-33,-17
6592.380999999999,308,-4,16324,-2368,-25,-33,-17
6592.380999999999,307,-4,16324,-2368,-25,-33,-17
6592.380999999999,308,-4,16324,-2368,-25,-33,-17
6600.7970000000005,309,-4,16324,-2368,-25,-33,-17
6600.7970000000005,307,-4,16324,-2368,-25,-33,-17
6600.7970000000005,308,-4,16324,-2368,-25,-33,-17
6608.826,308,-4,16324,-2368,-25,-33,-17
6610.9039999999995,308,24,16376,-2332,-48,-37,3
6610.9039999999995,308,24,16376,-2332,-48,-37,3
6610.9039999999995,307,24,16376,-2332,-48,-37,3
6617.337,307,24,16376,-2332,-48,-37,3
6617.337,308,24,16376,-2332,-48,-37,3
6617.337,308,24,16376,-2332,-48,-37,3
6625.015,308,24,16376,-2332,-48,-37,3
6625.015,308,-44,16376,-2392,-32,-43,-19
6625.015,308,-44,16376,-2392,-32,-43,-19
6633.428,309,-44,16376,-2392,-32,-43,-19
6637.540999999999,309,-44,16376,-2392,-32,-43,-19
6641.543000000001,308,-44,16376,-2392,-32,-43,-19
6641.543000000001,308,-44,16376,-2392,-32,-43,-19
6644.274,308,-44,16376,-2392,-32,-43,-19
6649.7609999999995,309,-32,16344,-2328,-39,-29,-12
6649.7609999999995,310,-32,16344,-2328,-39,-29,-12
6649.7609999999995,309,-32,16344,-2328,-39,-29,-12
6657.476,308,-32,16344,-2328,-39,-29,-12
6657.476,307,-32,16344,-2328,-39,-29,-12
6657.476,308,-32,16344,-2328,-39,-29,-12
6666.081,307,-32,16344,-2328,-39,-29,-12
6666.081,308,-16,16320,-2356,-31,-28,-2
6666.081,308,-16,16320,-2356,-31,-28,-2
6674.878,309,-16,16320,-2356,-31,-28,-2
6674.878,309,-16,16320,-2356,-31,-28,-2
6674.878,308,-16,16320,-2356,-31,-28,-2
6682.857,308,-16,16320,-2356,-31,-28,-2
6682.857,308,-16,16320,-2356,-31,-28,-2
6682.857,309,-16,16320,-2356,-31,-28,-2
6690.928000000001,308,36,16356,-2400,-22,-47,-13
6691.299,308,36,16356,-2400,-22,-47,-13
6691.299,308,36,16356,-2400,-22,-47,-13
6699.389,308,36,16356,-2400,-22,-47,-13
6699.389,308,36,16356,-2400,-22,-47,-13
6699.389,308,36,16356,-2400,-22,-47,-13
6707.672,308,36,16356,-2400,-22,-47,-13
6707.672,308,28,16308,-2352,-39,-49,9
6707.672,309,28,16308,-2352,-39,-49,9
6707.672,309,28,16308,-2352,-39,-49,9
6715.887000000001,309,28,16308,-2352,-39,-49,9
6715.887000000001,309,28,16308,-2352,-39,-49,9
6715.887000000001,309,28,16308,-2352,-39,-49,9
6724.026,309,28,16308,-2352,-39,-49,9
6727.41,308,28,16308,-2352,-39,-49,9
6728.348000000001,308,0,16304,-2412,-44,-33,-34
6732.189,308,0,16304,-2412,-44,-33,-34
6732.189,308,0,16304,-2412,-44,-33,-34
6738.6759999999995,308,0,16304,-2412,-44,-33,-34
6742.455,307,0,16304,-2412,-44,-33,-34
6742.455,307,0,16304,-2412,-44,-33,-34
6747.535,308,0,16304,-2412,-44,-33,-34
6748.406,308,-12,16356,-2344,-14,-46,-15
6748.911999999999,308,-12,16356,-2344,-14,-46,-15
6748.911999999999,308,-12,16356,-2344,-14,-46,-15
6756.44,307,-12,16356,-2344,-14,-46,-15
6758.981000000001,307,-12,16356,-2344,-14,-46,-15
6764.551,307,-12,16356,-2344,-14,-46,-15
6765.030000000001,306,-12,16356,-2344,-14,-46,-15
6768.262,307,-40,16316,-2388,-40,-35,-40
6772.894,307,-40,16316,-2388,-40,-35,-40
6773.727,308,-40,16316,-2388,-40,-35,-40
6773.727,308,-40,16316,-2388,-40,-35,-40
6773.727,307,-40,16316,-2388,-40,-35,-40
6784.648,308,-40,16316,-2388,-40,-35,-40
6784.648,308,-40,16316,-2388,-40,-35,-40
6784.648,308,-52,16320,-2360,-34,-37,-4
6791.486,307,-52,16320,-2360,-34,-37,-4
6791.486,307,-52,16320,-2360,-34,-37,-4
6794.551,308,-52,16320,-2360,-34,-37,-4
6798.384,307,-52,16320,-2360,-34,-37,-4
6798.384,307,-52,16320,-2360,-34,-37,-4
6803.022999999999,307,-52,16320,-2360,-34,-37,-4
6807.808,307,-52,16320,-2360,-34,-37,-4
6807.808,306,-20,16348,-2404,-17,-40,-6
6807.808,307,-20,16348,-2404,-17,-40,-6
6814.432,307,-20,16348,-2404,-17,-40,-6
6814.432,307,-20,16348,-2404,-17,-40,-6
6814.432,307,-20,16348,-2404,-17,-40,-6
6824.294,306,-20,16348,-2404,-17,-40,-6
6824.294,306,-20,16348,-2404,-17,-40,-6
6824.294,307,24,16320,-2356,-47,-65,-26
6833.946,307,24,16320,-2356,-47,-65,-26
6834.566,307,24,16320,-2356,-47,-65,-26
6834.566,307,24,16320,-2356,-47,-65,-26
6841.552,306,24,16320,-2356,-47,-65,-26
6843.0160000000005,307,24,16320,-2356,-47,-65,-26
6846.075,307,24,16320,-2356,-47,-65,-26
6847.095,308,32,16352,-2320,-46,-52,-13
6847.095,308,32,16352,-2320,-46,-52,-13
6847.095,308,32,16352,-2320,-46,-52,-13
6858.135,307,32,16352,-2320,-46,-52,-13
6858.135,308,32,16352,-2320,-46,-52,-13
6862.442,308,32,16352,-2320,-46,-52,-13
6863.2390000000005,308,32,16352,-2320,-46,-52,-13
6863.2390000000005,308,32,16352,-2320,-46,-52,-13
6871.4310000000005,307,44,16312,-2332,-52,-32,-18
6873.4580000000005,308,44,16312,-2332,-52,-32,-18
6876.238,308,44,16312,-2332,-52,-32,-18
6878.871,307,44,16312,-2332,-52,-32,-18
6879.8859999999995,307,44,16312,-2332,-52,-32,-18
6879.8859999999995,306,44,16312,-2332,-52,-32,-18
6879.8859999999995,307,44,16312,-2332,-52,-32,-18
6890.116,308,20,16384,-2376,-15,-18,-21
6892.13,307,20,16384,-2376,-15,-18,-21
6894.903,307,20,16384,-2376,-15,-18,-21
6898.927,307,20,16384,-2376,-15,-18,-21
6898.927,307,20,16384,-2376,-15,-18,-21
6903.593,307,20,16384,-2376,-15,-18,-21
6907.872,306,20,16384,-2376,-15,-18,-21
6909.4980000000005,306,12,16288,-2336,-29,-32,-25
6909.4980000000005,307,12,16288,-2336,-29,-32,-25
6912.682,307,12,16288,-2336,-29,-32,-25
6912.682,306,12,16288,-2336,-29,-32,-25
6912.682,307,12,16288,-2336,-29,-32,-25
6922.947,308,12,16288,-2336,-29,-32,-25
6927.97,307,12,16288,-2336,-29,-32,-25
6928.979,308,-44,16340,-2388,-35,-42,-3
6931.9490000000005,308,-44,16340,-2388,-35,-42,-3
6931.9490000000005,307,-44,16340,-2388,-35,-42,-3
6937.307,308,-44,16340,-2388,-35,-42,-3
6941.35,307,-44,16340,-2388,-35,-42,-3
6944.294,307,-44,16340,-2388,-35,-42,-3
6944.802000000001,307,-44,16340,-2388,-35,-42,-3
6948.498,308,-44,16340,-2388,-35,-42,-3
6950.2519999999995,307,-44,16312,-2364,-35,-40,-26
6950.2519999999995,307,-44,16312,-2364,-35,-40,-26
6957.161,307,-44,16312,-2364,-35,-40,-26
6960.726000000001,307,-44,16312,-2364,-35,-40,-26
6960.726000000001,306,-44,16312,-2364,-35,-40,-26
6964.481,306,-44,16312,-2364,-35,-40,-26
6968.959,305,-44,16312,-2364,-35,-40,-26
6968.959,307,-60,16248,-2372,-38,-46,-21
6972.95,306,-60,16248,-2372,-38,-46,-21
6974.9619999999995,307,-60,16248,-2372,-38,-46,-21
6981.242,307,-60,16248,-2372,-38,-46,-21
6981.242,308,-60,16248,-2372,-38,-46,-21
6985.315,307,-60,16248,-2372,-38,-46,-21
6989.467000000001,307,-60,16248,-2372,-38,-46,-21
6991.4800000000005,307,0,16304,-2364,-46,-52,-14
6993.438,308,0,16304,-2364,-46,-52,-14
6997.669,308,0,16304,-2364,-46,-52,-14
6997.669,308,0,16304,-2364,-46,-52,-14
6997.669,308,0,16304,-2364,-46,-52,-14
6997.669,308,0,16304,-2364,-46,-52,-14
7007.584,308,0,16304,-2364,-46,-52,-14
7007.584,309,-20,16332,-2388,-42,-43,-24
7014.2519999999995,307,-20,16332,-2388,-42,-43,-24
7014.2519999999995,309,-20,16332,-2388,-42,-43,-24
7018.084,308,-20,16332,-2388,-42,-43,-24
7022.53,307,-20,16332,-2388,-42,-43,-24
7023.98,307,-20,16332,-2388,-42,-43,-24
7024.867,308,-20,16332,-2388,-42,-43,-24
7030.0070000000005,307,20,16316,-2404,-48,-44,-8
7031.032999999999,308,20,16316,-2404,-48,-44,-8
7034.468000000001,307,20,16316,-2404,-48,-44,-8
7034.468000000001,307,20,16316,-2404,-48,-44,-8
7040.124,308,20,16316,-2404,-48,-44,-8
7040.124,307,20,16316,-2404,-48,-44,-8
7044.889,307,20,16316,-2404,-48,-44,-8
7047.4800000000005,307,20,16316,-2404,-48,-44,-8
7050.878,308,-20,16336,-2344,-30,-48,-17
7050.878,308,-20,16336,-2344,-30,-48,-17
7055.739,307,-20,16336,-2344,-30,-48,-17
7057.754,308,-20,16336,-2344,-30,-48,-17
7062.889,308,-20,16336,-2344,-30,-48,-17
7063.912,308,-20,16336,-2344,-30,-48,-17
7067.254,308,-20,16336,-2344,-30,-48,-17
7067.254,308,-40,16304,-2332,-33,-32,9
7073.981,309,-40,16304,-2332,-33,-32,9
7073.981,308,-40,16304,-2332,-33,-32,9
7073.981,308,-40,16304,-2332,-33,-32,9
7080.188,309,-40,16304,-2332,-33,-32,9
7083.949,308,-40,16304,-2332,-33,-32,9
7087.259,308,-40,16304,-2332,-33,-32,9
7088.618,309,-68,16324,-2352,-36,-38,-11
7092.2429999999995,309,-68,16324,-2352,-36,-38,-11
7095.813,308,-68,16324,-2352,-36,-38,-11
7096.82,308,-68,16324,-2352,-36,-38,-11
7097.427,308,-68,16324,-2352,-36,-38,-11
7097.427,308,-68,16324,-2352,-36,-38,-11
7107.187,308,-68,16324,-2352,-36,-38,-11
7107.187,307,20,16328,-2340,-59,-70,-7
7111.91,307,20,16328,-2340,-59,-70,-7
7113.418000000001,307,20,16328,-2340,-59,-70,-7
7116.496,307,20,16328,-2340,-59,-70,-7
7116.496,307,20,16328,-2340,-59,-70,-7
7116.496,308,20,16328,-2340,-59,-70,-7
7125.157,308,20,16328,-2340,-59,-70,-7
7128.863,307,20,16328,-2340,-59,-70,-7
7129.357,308,-8,16328,-2376,-13,-45,-9
7129.357,308,-8,16328,-2376,-13,-45,-9
7129.357,307,-8,16328,-2376,-13,-45,-9
7137.527999999999,308,-8,16328,-2376,-13,-45,-9
7140.402,308,-8,16328,-2376,-13,-45,-9
7144.8369999999995,309,-8,16328,-2376,-13,-45,-9
7145.844,308,-8,16328,-2376,-13,-45,-9
7149.174,308,-8,16328,-2376,-13,-45,-9
7149.174,309,16,16328,-2404,-8,-37,-5
7154.291,309,16,16328,-2404,-8,-37,-5
7154.291,308,16,16328,-2404,-8,-37,-5
7158.807000000001,308,16,16328,-2404,-8,-37,-5
7161.387000000001,307,16,16328,-2404,-8,-37,-5
7162.353999999999,308,16,16328,-2404,-8,-37,-5
7162.353999999999,308,16,16328,-2404,-8,-37,-5
7162.353999999999,309,20,16376,-2388,-28,-50,-8
7170.765,308,20,16376,-2388,-28,-50,-8
7170.765,308,20,16376,-2388,-28,-50,-8
7170.765,307,20,16376,-2388,-28,-50,-8
7181.954,308,20,16376,-2388,-28,-50,-8
7181.954,307,20,16376,-2388,-28,-50,-8
7181.954,307,20,16376,-2388,-28,-50,-8
7187.294,308,20,16376,-2388,-28,-50,-8
7191.201,307,-16,16364,-2372,-48,-34,-20
7194.348,307,-16,16364,-2372,-48,-34,-20
7195.427,308,-16,16364,-2372,-48,-34,-20
7195.427,308,-16,16364,-2372,-48,-34,-20
7195.427,308,-16,16364,-2372,-48,-34,-20
7203.531,308,-16,16364,-2372,-48,-34,-20
7208.611,308,-16,16364,-2372,-48,-34,-20
7208.611,308,-32,16276,-2376,-40,-30,-12
7211.727,308,-32,16276,-2376,-40,-30,-12
7211.727,308,-32,16276,-2376,-40,-30,-12
7219.941000000001,308,-32,16276,-2376,-40,-30,-12
7220.907999999999,307,-32,16276,-2376,-40,-30,-12
7220.907999999999,308,-32,16276,-2376,-40,-30,-12
7228.416,308,-32,16276,-2376,-40,-30,-12
7228.416,307,-16,16336,-2352,-29,-53,-7
7233.741,307,-16,16336,-2352,-29,-53,-7
7235.749,307,-16,16336,-2352,-29,-53,-7
7236.755999999999,308,-16,16336,-2352,-29,-53,-7
7243.025000000001,308,-16,16336,-2352,-29,-53,-7
7243.025000000001,307,-16,16336,-2352,-29,-53,-7
7247.4619999999995,308,-16,16336,-2352,-29,-53,-7
7247.4619999999995,307,16,16372,-2368,-33,-61,-4
7252.816,308,16,16372,-2368,-33,-61,-4
7252.816,307,16,16372,-2368,-33,-61,-4
7258.723,307,16,16372,-2368,-33,-61,-4
7260.735000000001,307,16,16372,-2368,-33,-61,-4
7263.883,308,16,16372,-2368,-33,-61,-4
7263.883,308,16,16372,-2368,-33,-61,-4
7268.772,308,16,16372,-2368,-33,-61,-4
7268.772,308,-12,16340,-2348,-43,-46,-8
7274.612,307,-12,16340,-2348,-43,-46,-8
7276.93,308,-12,16340,-2348,-43,-46,-8
7277.625999999999,308,-12,16340,-2348,-43,-46,-8
7277.625999999999,308,-12,16340,-2348,-43,-46,-8
7285.048,308,-12,16340,-2348,-43,-46,-8
7286.313,308,-12,16340,-2348,-43,-46,-8
7291.214,308,0,16368,-2360,-45,-31,-13
7293.226,308,0,16368,-2360,-45,-31,-13
7293.226,308,0,16368,-2360,-45,-31,-13
7293.226,307,0,16368,-2360,-45,-31,-13
7301.4580000000005,307,0,16368,-2360,-45,-31,-13
7301.4580000000005,307,0,16368,-2360,-45,-31,-13
7301.4580000000005,307,0,16368,-2360,-45,-31,-13
7309.526,308,0,16312,-2388,-31,-48,7
7312.985000000001,308,0,16312,-2388,-31,-48,7
7312.985000000001,308,0,16312,-2388,-31,-48,7
7317.759,308,0,16312,-2388,-31,-48,7
7318.94,307,0,16312,-2388,-31,-48,7
7318.94,308,0,16312,-2388,-31,-48,7
7324.242,308,0,16312,-2388,-31,-48,7
7326.047,308,0,16312,-2388,-31,-48,7
7329.302000000001,308,0,16312,-2388,-31,-48,7
7333.700000000001,308,-12,16308,-2396,-24,-33,-23
7334.281,308,-12,16308,-2396,-24,-33,-23
7334.281,308,-12,16308,-2396,-24,-33,-23
7341.3240000000005,308,-12,16308,-2396,-24,-33,-23
7341.3240000000005,306,-12,16308,-2396,-24,-33,-23
7344.727,307,-12,16308,-2396,-24,-33,-23
7349.753,307,-12,16308,-2396,-24,-33,-23
7349.753,307,0,16312,-2376,-44,-42,0
7352.308,308,0,16312,-2376,-44,-42,0
7357.802000000001,307,0,16312,-2376,-44,-42,0
7357.802000000001,306,0,16312,-2376,-44,-42,0
7362.005,306,0,16312,-2376,-44,-42,0
7362.005,307,0,16312,-2376,-44,-42,0
7367.112999999999,309,0,16312,-2376,-44,-42,0
7369.594,307,0,16312,-2376,-44,-42,0
7371.603999999999,307,20,16296,-2368,-51,-50,-14
7374.637,308,20,16296,-2368,-51,-50,-14
7374.637,307,20,16296,-2368,-51,-50,-14
7374.637,307,20,16296,-2368,-51,-50,-14
7383.017,307,20,16296,-2368,-51,-50,-14
7383.718,307,20,16296,-2368,-51,-50,-14
7383.718,307,20,16296,-2368,-51,-50,-14
7391.344,308,0,16268,-2328,-56,-45,-7
7394.936000000001,309,0,16268,-2328,-56,-45,-7
7394.936000000001,308,0,16268,-2328,-56,-45,-7
7398.679999999999,307,0,16268,-2328,-56,-45,-7
7399.706,309,0,16268,-2328,-56,-45,-7
7399.706,307,0,16268,-2328,-56,-45,-7
7407.8949999999995,308,0,16268,-2328,-56,-45,-7
7409.906999999999,308,0,16268,-2328,-56,-45,-7
7411.772,308,-32,16340,-2360,-29,-63,-4
7411.772,307,-32,16340,-2360,-29,-63,-4
7416.158,308,-32,16340,-2360,-29,-63,-4
7419.534,308,-32,16340,-2360,-29,-63,-4
7419.534,308,-32,16340,-2360,-29,-63,-4
7424.438999999999,307,-32,16340,-2360,-29,-63,-4
7427.379,307,-32,16340,-2360,-29,-63,-4
7431.771000000001,308,-52,16336,-2360,-35,-46,-2
7432.784,307,-52,16336,-2360,-35,-46,-2
7434.449,307,-52,16336,-2360,-35,-46,-2
7434.449,306,-52,16336,-2360,-35,-46,-2
7441.007,306,-52,16336,-2360,-35,-46,-2
7444.694,306,-52,16336,-2360,-35,-46,-2
7444.694,307,-52,16336,-2360,-35,-46,-2
7449.1849999999995,307,44,16248,-2360,-38,-50,2
7449.1849999999995,308,44,16248,-2360,-38,-50,2
7457.251,308,44,16248,-2360,-38,-50,2
7459.2660000000005,308,44,16248,-2360,-38,-50,2
7459.2660000000005,307,44,16248,-2360,-38,-50,2
7459.2660000000005,307,44,16248,-2360,-38,-50,2
7466.043,307,44,16248,-2360,-38,-50,2
7466.043,307,44,16248,-2360,-38,-50,2
7466.043,308,-56,16312,-2328,-23,-29,-21
7473.7,307,-56,16312,-2328,-23,-29,-21
7475.719,307,-56,16312,-2328,-23,-29,-21
7480.86,308,-56,16312,-2328,-23,-29,-21
7481.892,308,-56,16312,-2328,-23,-29,-21
7485.052,307,-56,16312,-2328,-23,-29,-21
7485.052,308,-56,16312,-2328,-23,-29,-21
7490.2,308,-52,16296,-2356,-36,-41,6
7490.2,308,-52,16296,-2356,-36,-41,6
7490.2,307,-52,16296,-2356,-36,-41,6
7498.24,308,-52,16296,-2356,-36,-41,6
7501.396,307,-52,16296,-2356,-36,-41,6
7501.396,307,-52,16296,-2356,-36,-41,6
7506.392,306,-52,16296,-2356,-36,-41,6
7508.407,307,-52,16296,-2356,-36,-41,6
7513.548,307,-52,16312,-2376,-36,-35,-18
7514.573,307,-52,16312,-2376,-36,-35,-18
7517.877,307,-52,16312,-2376,-36,-35,-18
7517.877,307,-52,16312,-2376,-36,-35,-18
7522.739,307,-52,16312,-2376,-36,-35,-18
7522.739,307,-52,16312,-2376,-36,-35,-18
7522.739,308,-52,16312,-2376,-36,-35,-18
7531.044,307,-16,16320,-2396,-51,-40,-1
7534.173,307,-16,16320,-2396,-51,-40,-1
7534.173,307,-16,16320,-2396,-51,-40,-1
7541.455,307,-16,16320,-2396,-51,-40,-1
7541.455,307,-16,16320,-2396,-51,-40,-1
7544.676,308,-16,16320,-2396,-51,-40,-1
7547.455,308,-16,16320,-2396,-51,-40,-1
7547.455,308,-4,16352,-2388,-16,-27,4
7547.455,306,-4,16352,-2388,-16,-27,4
7557.341,306,-4,16352,-2388,-16,-27,4
7557.341,307,-4,16352,-2388,-16,-27,4
7562.878000000001,307,-4,16352,-2388,-16,-27,4
7563.889999999999,307,-4,16352,-2388,-16,-27,4
7563.889999999999,307,-4,16352,-2388,-16,-27,4
7563.889999999999,308,-4,16352,-2388,-16,-27,4
7572.29,307,-4,16384,-2388,-16,-43,-30
7575.062,307,-4,16384,-2388,-16,-43,-30
7579.204,307,-4,16384,-2388,-16,-43,-30
7579.204,307,-4,16384,-2388,-16,-43,-30
7580.717,308,-4,16384,-2388,-16,-43,-30
7580.717,308,-4,16384,-2388,-16,-43,-30
7589.23,308,-4,16384,-2388,-16,-43,-30
7589.23,308,-4,16320,-2380,-37,-47,-6
7595.777,308,-4,16320,-2380,-37,-47,-6
7595.777,307,-4,16320,-2380,-37,-47,-6
7597.5289999999995,308,-4,16320,-2380,-37,-47,-6
7597.5289999999995,308,-4,16320,-2380,-37,-47,-6
7597.5289999999995,308,-4,16320,-2380,-37,-47,-6
7605.857999999999,308,-4,16320,-2380,-37,-47,-6
7605.857999999999,308,-4,16320,-2380,-37,-47,-6
7605.857999999999,308,-16,16292,-2340,-22,-38,-10
7616.282,307,-16,16292,-2340,-22,-38,-10
7617.156,307,-16,16292,-2340,-22,-38,-10
7622.225,307,-16,16292,-2340,-22,-38,-10
7622.225,307,-16,16292,-2340,-22,-38,-10
7622.225,306,-16,16292,-2340,-22,-38,-10
7622.225,307,-16,16292,-2340,-22,-38,-10
7630.534,307,12,16356,-2388,-33,-31,-21
7630.534,307,12,16356,-2388,-33,-31,-21
7630.534,307,12,16356,-2388,-33,-31,-21
7640.7119999999995,307,12,16356,-2388,-33,-31,-21
7644.821,308,12,16356,-2388,-33,-31,-21
7644.821,308,12,16356,-2388,-33,-31,-21
7648.893,308,12,16356,-2388,-33,-31,-21
7649.848000000001,307,0,16328,-2316,-36,-37,11
7649.848000000001,306,0,16328,-2316,-36,-37,11
7655.319,306,0,16328,-2316,-36,-37,11
7660.797,307,0,16328,-2316,-36,-37,11
7660.797,306,0,16328,-2316,-36,-37,11
7665.229,307,0,16328,-2316,-36,-37,11
7666.666,306,0,16328,-2316,-36,-37,11
7668.6810000000005,306,0,16328,-2316,-36,-37,11
7672.886,307,4,16352,-2336,-54,-48,2
7674.741,306,4,16352,-2336,-54,-48,2
7674.741,306,4,16352,-2336,-54,-48,2
7681.650000000001,307,4,16352,-2336,-54,-48,2
7681.650000000001,306,4,16352,-2336,-54,-48,2
7683.84,307,4,16352,-2336,-54,-48,2
7683.84,306,4,16352,-2336,-54,-48,2
7688.289,306,4,16352,-2336,-54,-48,2
7693.432,307,0,16352,-2356,-30,-39,-10
7693.432,307,0,16352,-2356,-30,-39,-10
7696.803,307,0,16352,-2356,-30,-39,-10
7696.803,306,0,16352,-2356,-30,-39,-10
7696.803,306,0,16352,-2356,-30,-39,-10
7706.428,307,0,16352,-2356,-30,-39,-10
7710.031,307,0,16352,-2356,-30,-39,-10
7710.749,308,-8,16304,-2400,-19,-38,-39
7713.496,309,-8,16304,-2400,-19,-38,-39
7713.496,307,-8,16304,-2400,-19,-38,-39
7713.496,308,-8,16304,-2400,-19,-38,-39
7722.781999999999,308,-8,16304,-2400,-19,-38,-39
7722.781999999999,307,-8,16304,-2400,-19,-38,-39
7726.9439999999995,308,-8,16304,-2400,-19,-38,-39
7730.201,308,-8,16304,-2400,-19,-38,-39
7734.907,307,36,16356,-2352,-13,-37,8
7734.907,306,36,16356,-2352,-13,-37,8
7738.360000000001,305,36,16356,-2352,-13,-37,8
7740.376,306,36,16356,-2352,-13,-37,8
7743.277,305,36,16356,-2352,-13,-37,8
7747.197,306,36,16356,-2352,-13,-37,8
7747.71,307,36,16356,-2352,-13,-37,8
7751.267000000001,306,0,16304,-2364,-19,-44,-4
7755.369,307,0,16304,-2364,-19,-44,-4
7757.003,307,0,16304,-2364,-19,-44,-4
7759.035,305,0,16304,-2364,-19,-44,-4
7759.035,305,0,16304,-2364,-19,-44,-4
7763.534,306,0,16304,-2364,-19,-44,-4
7763.534,306,0,16304,-2364,-19,-44,-4
7763.534,307,0,16304,-2364,-19,-44,-4
7771.758,308,16,16316,-2360,-24,-15,2
7774.492,307,16,16316,-2360,-24,-15,2
7776.788,308,16,16316,-2360,-24,-15,2
7779.958,307,16,16316,-2360,-24,-15,2
7779.958,307,16,16316,-2360,-24,-15,2
7779.958,307,16,16316,-2360,-24,-15,2
7788.1900000000005,307,16,16316,-2360,-24,-15,2
7788.1900000000005,308,16,16316,-2360,-24,-15,2
7791.192,308,-48,16380,-2372,3,-32,-5
7796.321,308,-48,16380,-2372,3,-32,-5
7796.321,308,-48,16380,-2372,3,-32,-5
7796.321,307,-48,16380,-2372,3,-32,-5
7804.515,306,-48,16380,-2372,3,-32,-5
7804.515,306,-48,16380,-2372,3,-32,-5
7807.739,307,-48,16380,-2372,3,-32,-5
7809.7519999999995,307,-48,16380,-2372,3,-32,-5
7812.682,308,8,16332,-2372,-40,-53,7
7812.682,307,8,16332,-2372,-40,-53,7
7812.682,307,8,16332,-2372,-40,-53,7
7821.022,307,8,16332,-2372,-40,-53,7
7825.044,306,8,16332,-2372,-40,-53,7
7825.044,308,8,16332,-2372,-40,-53,7
7829.129,308,8,16332,-2372,-40,-53,7
7830.037,308,8,16332,-2372,-40,-53,7
7833.400000000001,309,28,16280,-2368,-36,-38,3
7835.969999999999,308,28,16280,-2368,-36,-38,3
7837.907999999999,308,28,16280,-2368,-36,-38,3
7841.368,307,28,16280,-2368,-36,-38,3
7843.38,308,28,16280,-2368,-36,-38,3
7845.453,309,28,16280,-2368,-36,-38,3
7847.6359999999995,308,28,16280,-2368,-36,-38,3
7847.6359999999995,308,-80,16348,-2400,-47,-22,-18
7853.644,308,-80,16348,-2400,-47,-22,-18
7858.042,308,-80,16348,-2400,-47,-22,-18
7861.888000000001,308,-80,16348,-2400,-47,-22,-18
7861.888000000001,307,-80,16348,-2400,-47,-22,-18
7861.888000000001,307,-80,16348,-2400,-47,-22,-18
7870.066,309,-80,16348,-2400,-47,-22,-18
7870.066,308,4,16364,-2352,-34,-44,-3
7874.679,307,4,16364,-2352,-34,-44,-3
7876.691,308,4,16364,-2352,-34,-44,-3
7878.4400000000005,308,4,16364,-2352,-34,-44,-3
7878.4400000000005,308,4,16364,-2352,-34,-44,-3
7878.4400000000005,307,4,16364,-2352,-34,-44,-3
7886.7609999999995,307,4,16364,-2352,-34,-44,-3
7889.882,306,4,16364,-2352,-34,-44,-3
7889.882,307,-4,16372,-2400,-18,-47,-6
7889.882,307,-4,16372,-2400,-18,-47,-6
7896.067,307,-4,16372,-2400,-18,-47,-6
7896.067,308,-4,16372,-2400,-18,-47,-6
7900.295,308,-4,16372,-2400,-18,-47,-6
7907.12,308,-4,16372,-2400,-18,-47,-6
7907.12,308,-4,16372,-2400,-18,-47,-6
7907.12,308,-4,16372,-2400,-18,-47,-6
7913.610000000001,309,-56,16324,-2352,-45,-36,2
7915.855,308,-56,16324,-2352,-45,-36,2
7915.855,308,-56,16324,-2352,-45,-36,2
7920.29,308,-56,16324,-2352,-45,-36,2
7923.755,308,-56,16324,-2352,-45,-36,2
7926.902,307,-56,16324,-2352,-45,-36,2
7927.908,308,-56,16324,-2352,-45,-36,2
7930.253000000001,308,0,16332,-2364,-40,-48,-16
7932.26,307,0,16332,-2364,-40,-48,-16
7936.1179999999995,307,0,16332,-2364,-40,-48,-16
7939.092,307,0,16332,-2364,-40,-48,-16
7942.758000000001,308,0,16332,-2364,-40,-48,-16
7944.534,308,0,16332,-2364,-40,-48,-16
7947.973,308,0,16332,-2364,-40,-48,-16
7951.264,309,0,16332,-2364,-40,-48,-16
7951.264,308,-104,16296,-2348,-18,-45,6
7953.006,306,-104,16296,-2348,-18,-45,6
7959.774,307,-104,16296,-2348,-18,-45,6
7959.774,307,-104,16296,-2348,-18,-45,6
7961.282999999999,307,-104,16296,-2348,-18,-45,6
7961.282999999999,307,-104,16296,-2348,-18,-45,6
7961.282999999999,308,-104,16296,-2348,-18,-45,6
7972.178000000001,307,0,16368,-2380,-13,-43,-14
7972.178000000001,308,0,16368,-2380,-13,-43,-14
7972.178000000001,308,0,16368,-2380,-13,-43,-14
7980.825000000001,308,0,16368,-2380,-13,-43,-14
7984.588,309,0,16368,-2380,-13,-43,-14
7984.588,309,0,16368,-2380,-13,-43,-14
7989.143999999999,307,0,16368,-2380,-13,-43,-14
7991.713,307,-8,16328,-2368,-50,-44,-2
7993.721,308,-8,16328,-2368,-50,-44,-2
7994.624,309,-8,16328,-2368,-50,-44,-2
8000.6,307,-8,16328,-2368,-50,-44,-2
8000.6,308,-8,16328,-2368,-50,-44,-2
8005.035,307,-8,16328,-2368,-50,-44,-2
8005.035,308,-8,16328,-2368,-50,-44,-2
8007.357000000001,307,-8,16328,-2368,-50,-44,-2
8010.467000000001,308,8,16304,-2348,-49,-33,-12
8010.467000000001,307,8,16304,-2348,-49,-33,-12
8010.467000000001,307,8,16304,-2348,-49,-33,-12
8021.721,307,8,16304,-2348,-49,-33,-12
8021.721,307,8,16304,-2348,-49,-33,-12
8026.757999999999,307,8,16304,-2348,-49,-33,-12
8028.765,307,8,16304,-2348,-49,-33,-12
8030.773999999999,308,8,16304,-2348,-49,-33,-12
8032.781999999999,307,-28,16300,-2360,-22,-42,-10
8036.799999999999,308,-28,16300,-2360,-22,-42,-10
8038.809,307,-28,16300,-2360,-22,-42,-10
8056.630999999999,308,-28,16300,-2360,-22,-42,-10
8058.839000000001,307,-28,16300,-2360,-22,-42,-10
8059.528,309,-28,16300,-2360,-22,-42,-10
8059.528,308,-28,16300,-2360,-22,-42,-10
8059.528,308,12,16384,-2356,-21,-59,-7
8059.528,307,12,16384,-2356,-21,-59,-7
8059.528,308,12,16384,-2356,-21,-59,-7
8059.528,307,12,16384,-2356,-21,-59,-7
8059.528,307,12,16384,-2356,-21,-59,-7
8066.463000000001,308,12,16384,-2356,-21,-59,-7
8068.5599999999995,308,12,16384,-2356,-21,-59,-7
8068.5599999999995,308,-28,16360,-2380,-31,-57,-11
8075.39,308,-28,16360,-2380,-31,-57,-11
8075.39,307,-28,16360,-2380,-31,-57,-11
8083.111000000001,308,-28,16360,-2380,-31,-57,-11
8083.111000000001,308,-28,16360,-2380,-31,-57,-11
8087.097,308,-28,16360,-2380,-31,-57,-11
8090.541,308,-28,16360,-2380,-31,-57,-11
8090.541,308,-28,16276,-2368,-34,-42,17
8090.541,309,-28,16276,-2368,-34,-42,17
8098.981,308,-28,16276,-2368,-34,-42,17
8098.981,309,-28,16276,-2368,-34,-42,17
8098.981,308,-28,16276,-2368,-34,-42,17
8107.089999999999,309,-28,16276,-2368,-34,-42,17
8107.089999999999,308,-28,16276,-2368,-34,-42,17
8107.089999999999,308,-16,16328,-2332,-28,-40,-12
8115.477,308,-16,16328,-2332,-28,-40,-12
8115.477,308,-16,16328,-2332,-28,-40,-12
8119.878,309,-16,16328,-2332,-28,-40,-12
8123.744000000001,307,-16,16328,-2332,-28,-40,-12
8123.744000000001,307,-16,16328,-2332,-28,-40,-12
8123.744000000001,308,-16,16328,-2332,-28,-40,-12
8132.195,309,-16,16328,-2332,-28,-40,-12
8132.195,308,-52,16324,-2348,-34,-38,-15
8132.195,308,-52,16324,-2348,-34,-38,-15
8141.234,307,-52,16324,-2348,-34,-38,-15
8141.234,307,-52,16324,-2348,-34,-38,-15
8141.234,308,-52,16324,-2348,-34,-38,-15
8148.593,308,-52,16324,-2348,-34,-38,-15
8148.593,307,-52,16324,-2348,-34,-38,-15
8148.593,307,4,16336,-2384,-48,-32,-21
8157.500000000001,307,4,16336,-2384,-48,-32,-21
8160.157999999999,307,4,16336,-2384,-48,-32,-21
8160.157999999999,307,4,16336,-2384,-48,-32,-21
8164.982,307,4,16336,-2384,-48,-32,-21
8164.982,308,4,16336,-2384,-48,-32,-21
8164.982,308,4,16336,-2384,-48,-32,-21
8173.294999999999,308,-12,16316,-2340,-35,-36,-21
8175.314,309,-12,16316,-2340,-35,-36,-21
8175.314,308,-12,16316,-2340,-35,-36,-21
8182.3859999999995,307,-12,16316,-2340,-35,-36,-21
8184.4929999999995,308,-12,16316,-2340,-35,-36,-21
8184.4929999999995,308,-12,16316,-2340,-35,-36,-21
8189.668,309,-12,16316,-2340,-35,-36,-21
8189.668,308,-24,16264,-2360,-22,-41,-23
8197.795,308,-24,16264,-2360,-22,-41,-23
8197.795,308,-24,16264,-2360,-22,-41,-23
8197.795,308,-24,16264,-2360,-22,-41,-23
8205.873,308,-24,16264,-2360,-22,-41,-23
8207.893,308,-24,16264,-2360,-22,-41,-23
8207.893,308,-24,16264,-2360,-22,-41,-23
8213.981,307,24,16296,-2332,-50,-38,-6
8213.981,308,24,16296,-2332,-50,-38,-6
8213.981,307,24,16296,-2332,-50,-38,-6
8222.182,308,24,16296,-2332,-50,-38,-6
8222.182,307,24,16296,-2332,-50,-38,-6
8222.182,307,24,16296,-2332,-50,-38,-6
8230.366,307,24,16296,-2332,-50,-38,-6
8230.366,307,24,16296,-2332,-50,-38,-6
8230.366,308,-4,16352,-2348,-18,-31,3
8230.366,308,-4,16352,-2348,-18,-31,3
8238.604000000001,308,-4,16352,-2348,-18,-31,3
8238.604000000001,308,-4,16352,-2348,-18,-31,3
8238.604000000001,307,-4,16352,-2348,-18,-31,3
8246.83,307,-4,16352,-2348,-18,-31,3
8248.913,308,-4,16352,-2348,-18,-31,3
8248.913,308,36,16308,-2388,-47,-30,-3
8254.948,307,36,16308,-2388,-47,-30,-3
8259.11,307,36,16308,-2388,-47,-30,-3
8259.11,308,36,16308,-2388,-47,-30,-3
8263.52,307,36,16308,-2388,-47,-30,-3
8263.52,308,36,16308,-2388,-47,-30,-3
8263.52,307,36,16308,-2388,-47,-30,-3
8271.721,307,36,16308,-2388,-47,-30,-3
8271.721,308,12,16308,-2380,-41,-48,-12
8271.721,307,12,16308,-2380,-41,-48,-12
8271.721,306,12,16308,-2380,-41,-48,-12
8280.302000000001,307,12,16308,-2380,-41,-48,-12
8283.733,306,12,16308,-2380,-41,-48,-12
8288.577,307,12,16308,-2380,-41,-48,-12
8291.692,308,12,16308,-2380,-41,-48,-12
8291.692,308,-20,16320,-2320,-28,-51,-23
8291.692,308,-20,16320,-2320,-28,-51,-23
8296.935,308,-20,16320,-2320,-28,-51,-23
8296.935,308,-20,16320,-2320,-28,-51,-23
8296.935,308,-20,16320,-2320,-28,-51,-23
8305.177,307,-20,16320,-2320,-28,-51,-23
8305.177,308,-20,16320,-2320,-28,-51,-23
8305.177,307,-40,16388,-2332,-43,-51,-9
8313.425000000001,307,-40,16388,-2332,-43,-51,-9
8313.425000000001,307,-40,16388,-2332,-43,-51,-9
8321.681,307,-40,16388,-2332,-43,-51,-9
8321.681,307,-40,16388,-2332,-43,-51,-9
8321.681,308,-40,16388,-2332,-43,-51,-9
8321.681,307,-40,16388,-2332,-43,-51,-9
8332.889,307,-40,16388,-2332,-43,-51,-9
8332.889,307,-8,16300,-2380,-56,-44,-18
8332.889,307,-8,16300,-2380,-56,-44,-18
8338.23,307,-8,16300,-2380,-56,-44,-18
8338.23,307,-8,16300,-2380,-56,-44,-18
8338.23,307,-8,16300,-2380,-56,-44,-18
8348.772,308,-8,16300,-2380,-56,-44,-18
8348.772,307,-8,16300,-2380,-56,-44,-18
8352.347,307,-20,16268,-2372,-28,-27,16
8357.554,308,-20,16268,-2372,-28,-27,16
8358.17,308,-20,16268,-2372,-28,-27,16
8361.544,307,-20,16268,-2372,-28,-27,16
8365.313,307,-20,16268,-2372,-28,-27,16
8365.313,308,-20,16268,-2372,-28,-27,16
8369.722,308,-20,16268,-2372,-28,-27,16
8373.974,307,-4,16324,-2312,-4,-38,13
8373.974,307,-4,16324,-2312,-4,-38,13
8378.112,308,-4,16324,-2312,-4,-38,13
8379.932999999999,308,-4,16324,-2312,-4,-38,13
8379.932999999999,308,-4,16324,-2312,-4,-38,13
8379.932999999999,307,-4,16324,-2312,-4,-38,13
8388.047,308,-4,16324,-2312,-4,-38,13
8392.393,308,-4,16324,-2312,-4,-38,13
8392.393,307,-12,16352,-2388,-37,-61,-17
8396.393,306,-12,16352,-2388,-37,-61,-17
8396.393,307,-12,16352,-2388,-37,-61,-17
8396.393,307,-12,16352,-2388,-37,-61,-17
8404.768,307,-12,16352,-2388,-37,-61,-17
8407.857999999998,308,-12,16352,-2388,-37,-61,-17
8407.857999999998,308,-12,16352,-2388,-37,-61,-17
8413.401,307,44,16324,-2348,-41,-40,-6
8413.401,307,44,16324,-2348,-41,-40,-6
8413.401,307,44,16324,-2348,-41,-40,-6
8421.759,307,44,16324,-2348,-41,-40,-6
8425.155,307,44,16324,-2348,-41,-40,-6
8425.155,307,44,16324,-2348,-41,-40,-6
8430.002,308,44,16324,-2348,-41,-40,-6
8430.002,306,44,16380,-2368,-16,-35,-20
8430.002,306,44,16380,-2368,-16,-35,-20
8439.038999999999,306,44,16380,-2368,-16,-35,-20
8439.038999999999,307,44,16380,-2368,-16,-35,-20
8443.312,307,44,16380,-2368,-16,-35,-20
8446.630000000001,308,44,16380,-2368,-16,-35,-20
8450.2,308,44,16380,-2368,-16,-35,-20
8451.303,308,44,16380,-2368,-16,-35,-20
8454.757000000001,307,44,16356,-2376,-31,-46,3
8457.454,307,44,16356,-2376,-31,-46,3
8457.454,307,44,16356,-2376,-31,-46,3
8462.941,308,44,16356,-2376,-31,-46,3
8462.941,307,44,16356,-2376,-31,-46,3
8462.941,307,44,16356,-2376,-31,-46,3
8462.941,308,44,16356,-2376,-31,-46,3
8472.121,307,-12,16296,-2356,-29,-52,-22
8472.121,307,-12,16296,-2356,-29,-52,-22
8479.287,307,-12,16296,-2356,-29,-52,-22
8480.473,306,-12,16296,-2356,-29,-52,-22
8480.473,307,-12,16296,-2356,-29,-52,-22
8487.537,308,-12,16296,-2356,-29,-52,-22
8487.537,308,-12,16296,-2356,-29,-52,-22
8487.537,307,-12,16284,-2352,-49,-38,-17
8495.764,308,-12,16284,-2352,-49,-38,-17
8495.764,307,-12,16284,-2352,-49,-38,-17
8495.764,308,-12,16284,-2352,-49,-38,-17
8504.986,307,-12,16284,-2352,-49,-38,-17
8504.986,307,-12,16284,-2352,-49,-38,-17
8507.962,309,-12,16284,-2352,-49,-38,-17
8513.106,307,-12,16284,-2352,-49,-38,-17
8513.106,307,-92,16296,-2372,-42,-35,-19
8513.106,307,-92,16296,-2372,-42,-35,-19
8521.464999999998,307,-92,16296,-2372,-42,-35,-19
8521.464999999998,307,-92,16296,-2372,-42,-35,-19
8521.464999999998,307,-92,16296,-2372,-42,-35,-19
8529.644,308,-92,16296,-2372,-42,-35,-19
8530.677000000001,308,-92,16296,-2372,-42,-35,-19
8530.677000000001,308,-8,16372,-2360,-40,-37,-13
8537.956,308,-8,16372,-2360,-40,-37,-13
8540.999,307,-8,16372,-2360,-40,-37,-13
8540.999,307,-8,16372,-2360,-40,-37,-13
8546.110999999999,308,-8,16372,-2360,-40,-37,-13
8549.846000000001,308,-8,16372,-2360,-40,-37,-13
8550.692,308,-8,16372,-2360,-40,-37,-13
8553.794,308,-44,16288,-2336,-20,-45,-5
8556.382,307,-44,16288,-2336,-20,-45,-5
8559.577000000001,308,-44,16288,-2336,-20,-45,-5
8562.13,307,-44,16288,-2336,-20,-45,-5
8566.567,308,-44,16288,-2336,-20,-45,-5
8567.031,308,-44,16288,-2336,-20,-45,-5
8570.449999999999,308,-44,16288,-2336,-20,-45,-5
8574.863000000001,308,-36,16288,-2392,-41,-50,-13
8574.863000000001,307,-36,16288,-2392,-41,-50,-13
8578.942,307,-36,16288,-2392,-41,-50,-13
8578.942,307,-36,16288,-2392,-41,-50,-13
8587.115000000002,307,-36,16288,-2392,-41,-50,-13
8587.115000000002,307,-36,16288,-2392,-41,-50,-13
8590.639,307,-36,16288,-2392,-41,-50,-13
8595.195,307,16,16352,-2356,-30,-32,-13
8595.195,307,16,16352,-2356,-30,-32,-13
8595.195,307,16,16352,-2356,-30,-32,-13
8603.262,306,16,16352,-2356,-30,-32,-13
8603.262,307,16,16352,-2356,-30,-32,-13
8607.318,308,16,16352,-2356,-30,-32,-13
8611.412,307,16,16352,-2356,-30,-32,-13
8611.412,308,4,16368,-2324,-33,-31,-8
8611.412,306,4,16368,-2324,-33,-31,-8
8619.702,307,4,16368,-2324,-33,-31,-8
8619.702,307,4,16368,-2324,-33,-31,-8
8619.702,307,4,16368,-2324,-33,-31,-8
8619.702,308,4,16368,-2324,-33,-31,-8
8627.991,307,4,16368,-2324,-33,-31,-8
8631.913,308,4,16368,-2324,-33,-31,-8
8631.913,308,0,16300,-2344,-52,-34,-22
8636.117,308,0,16300,-2344,-52,-34,-22
8636.117,308,0,16300,-2344,-52,-34,-22
8641.469000000001,307,0,16300,-2344,-52,-34,-22
8644.491,308,0,16300,-2344,-52,-34,-22
8648.282,307,0,16300,-2344,-52,-34,-22
8649.504,307,0,16300,-2344,-52,-34,-22
8652.956,308,0,16300,-2344,-52,-34,-22
8652.956,306,4,16340,-2384,-47,-33,-18
8658.33,306,4,16340,-2384,-47,-33,-18
8661.043,306,4,16340,-2384,-47,-33,-18
8664.654,306,4,16340,-2384,-47,-33,-18
8664.654,307,4,16340,-2384,-47,-33,-18
8664.654,308,4,16340,-2384,-47,-33,-18
8669.412,307,4,16340,-2384,-47,-33,-18
8674.637,307,32,16284,-2324,-27,-52,-3
8675.356000000002,307,32,16284,-2324,-27,-52,-3
8677.783,307,32,16284,-2324,-27,-52,-3
8677.783,307,32,16284,-2324,-27,-52,-3
8677.783,307,32,16284,-2324,-27,-52,-3
8686.021999999999,307,32,16284,-2324,-27,-52,-3
8690.626,308,32,16284,-2324,-27,-52,-3
8690.626,308,32,16284,-2324,-27,-52,-3
8694.065,307,40,16352,-2396,-56,-30,-7
8694.065,308,40,16352,-2396,-56,-30,-7
8694.065,307,40,16352,-2396,-56,-30,-7
8704.349,307,40,16352,-2396,-56,-30,-7
8706.36,307,40,16352,-2396,-56,-30,-7
8708.377,308,40,16352,-2396,-56,-30,-7
8710.391,307,40,16352,-2396,-56,-30,-7
8712.405,308,-4,16328,-2388,-27,-44,-4
8712.405,307,-4,16328,-2388,-27,-44,-4
8718.692000000001,306,-4,16328,-2388,-27,-44,-4
8718.692000000001,307,-4,16328,-2388,-27,-44,-4
8723.747,307,-4,16328,-2388,-27,-44,-4
8726.97,307,-4,16328,-2388,-27,-44,-4
8730.197,307,-4,16328,-2388,-27,-44,-4
8730.197,308,-4,16328,-2388,-27,-44,-4
8735.059,308,-32,16300,-2364,-39,-41,-12
8735.059,308,-32,16300,-2364,-39,-41,-12
8741.744999999999,307,-32,16300,-2364,-39,-41,-12
8744.143,308,-32,16300,-2364,-39,-41,-12
8744.143,307,-32,16300,-2364,-39,-41,-12
8749.833,307,-32,16300,-2364,-39,-41,-12
8751.595,307,-32,16300,-2364,-39,-41,-12
8751.595,308,24,16308,-2360,-34,-40,-5
8757.654,307,24,16308,-2360,-34,-40,-5
8759.821,307,24,16308,-2360,-34,-40,-5
8759.821,307,24,16308,-2360,-34,-40,-5
8766.311,308,24,16308,-2360,-34,-40,-5
8768.079,308,24,16308,-2360,-34,-40,-5
8770.089,308,24,16308,-2360,-34,-40,-5
8775.097,308,-24,16320,-2348,-45,-36,-1
8776.109,307,-24,16320,-2348,-45,-36,-1
8776.109,307,-24,16320,-2348,-45,-36,-1
8776.109,307,-24,16320,-2348,-45,-36,-1
8784.223,307,-24,16320,-2348,-45,-36,-1
8787.534000000001,307,-24,16320,-2348,-45,-36,-1
8787.534000000001,307,-24,16320,-2348,-45,-36,-1
8792.958999999999,307,-24,16320,-2348,-45,-36,-1
8795.343,308,-20,16336,-2340,-43,-45,-14
8795.343,307,-20,16336,-2340,-43,-45,-14
8800.724,307,-20,16336,-2340,-43,-45,-14
8800.724,307,-20,16336,-2340,-43,-45,-14
8807.561,307,-20,16336,-2340,-43,-45,-14
8809.558,308,-20,16336,-2340,-43,-45,-14
8809.558,307,-20,16336,-2340,-43,-45,-14
8816.438,308,36,16348,-2340,-44,-46,-8
8816.438,307,36,16348,-2340,-44,-46,-8
8816.438,308,36,16348,-2340,-44,-46,-8
8824.293000000001,307,36,16348,-2340,-44,-46,-8
8824.8,307,36,16348,-2340,-44,-46,-8
8824.8,307,36,16348,-2340,-44,-46,-8
8832.652,307,36,16348,-2340,-44,-46,-8
8834.666000000001,308,64,16276,-2372,-39,-46,-4
8836.686,306,64,16276,-2372,-39,-46,-4
8841.151,307,64,16276,-2372,-39,-46,-4
8842.333999999999,307,64,16276,-2372,-39,-46,-4
8842.333999999999,307,64,16276,-2372,-39,-46,-4
8849.028,308,64,16276,-2372,-39,-46,-4
8850.043,308,64,16276,-2372,-39,-46,-4
8853.211,307,64,16276,-2372,-39,-46,-4
8857.123,307,8,16360,-2376,-21,-47,-3
8857.601,307,8,16360,-2376,-21,-47,-3
8857.601,307,8,16360,-2376,-21,-47,-3
8857.601,306,8,16360,-2376,-21,-47,-3
8866.273,307,8,16360,-2376,-21,-47,-3
8866.851999999999,307,8,16360,-2376,-21,-47,-3
8871.241,307,8,16360,-2376,-21,-47,-3
8873.958,308,0,16348,-2316,-24,-33,4
8877.477,308,0,16348,-2316,-24,-33,4
8879.505,308,0,16348,-2316,-24,-33,4
8882.077000000001,308,0,16348,-2316,-24,-33,4
8882.077000000001,308,0,16348,-2316,-24,-33,4
8882.077000000001,307,0,16348,-2316,-24,-33,4
8882.077000000001,309,0,16348,-2316,-24,-33,4
8890.885,308,0,16348,-2316,-24,-33,4
8893.453,308,0,16348,-2316,-24,-33,4
8893.453,308,16,16284,-2388,-45,-40,-31
8898.671,307,16,16284,-2388,-45,-40,-31
8901.973999999998,307,16,16284,-2388,-45,-40,-31
8901.973999999998,306,16,16284,-2388,-45,-40,-31
8907.081,307,16,16284,-2388,-45,-40,-31
8909.767,307,16,16284,-2388,-45,-40,-31
8909.767,307,16,16284,-2388,-45,-40,-31
8915.179,306,36,16304,-2380,-35,-44,-10
8915.179,306,36,16304,-2380,-35,-44,-10
8921.658000000001,305,36,16304,-2380,-35,-44,-10
8923.396,307,36,16304,-2380,-35,-44,-10
8927.505,306,36,16304,-2380,-35,-44,-10
8927.505,308,36,16304,-2380,-35,-44,-10
8931.52,307,36,16304,-2380,-35,-44,-10
8931.52,308,8,16332,-2332,-36,-33,10
8931.52,307,8,16332,-2332,-36,-33,10
8940.144999999999,308,8,16332,-2332,-36,-33,10
8943.521,308,8,16332,-2332,-36,-33,10
8944.034,307,8,16332,-2332,-36,-33,10
8948.047,307,8,16332,-2332,-36,-33,10
8950.152,308,8,16332,-2332,-36,-33,10
8952.159,307,8,16332,-2332,-36,-33,10
8956.437,308,-16,16312,-2344,-46,-27,-8
8958.455,308,-16,16312,-2344,-46,-27,-8
8958.455,308,-16,16312,-2344,-46,-27,-8
8958.455,307,-16,16312,-2344,-46,-27,-8
8967.235,308,-16,16312,-2344,-46,-27,-8
8969.248,308,-16,16312,-2344,-46,-27,-8
8971.255,307,-16,16312,-2344,-46,-27,-8
8973.952000000001,307,-28,16324,-2364,-20,-35,-12
8973.952000000001,307,-28,16324,-2364,-20,-35,-12
8981.118999999999,306,-28,16324,-2364,-20,-35,-12
8981.118999999999,307,-28,16324,-2364,-20,-35,-12
8981.118999999999,307,-28,16324,-2364,-20,-35,-12
8981.118999999999,307,-28,16324,-2364,-20,-35,-12
8991.78,307,-28,16324,-2364,-20,-35,-12
8991.78,308,-24,16348,-2352,-43,-31,-23
8997.725,306,-24,16348,-2352,-43,-31,-23
8997.725,306,-24,16348,-2352,-43,-31,-23
8997.725,307,-24,16348,-2352,-43,-31,-23
8997.725,307,-24,16348,-2352,-43,-31,-23
9007.154999999999,307,-24,16348,-2352,-43,-31,-23
9007.154999999999,307,-24,16348,-2352,-43,-31,-23
9014.579,307,28,16284,-2388,-32,-52,-29
9014.579,306,28,16284,-2388,-32,-52,-29
9019.386,306,28,16284,-2388,-32,-52,-29
9019.386,306,28,16284,-2388,-32,-52,-29
9024.962,307,28,16284,-2388,-32,-52,-29
9029.315999999999,308,28,16284,-2388,-32,-52,-29
9031.127,308,28,16284,-2388,-32,-52,-29
9031.127,308,28,16284,-2388,-32,-52,-29
9031.127,308,-40,16360,-2340,-22,-32,-5
9039.341,308,-40,16360,-2340,-22,-32,-5
9040.784,308,-40,16360,-2340,-22,-32,-5
9040.784,308,-40,16360,-2340,-22,-32,-5
9047.516,308,-40,16360,-2340,-22,-32,-5
9050.492,308,-40,16360,-2340,-22,-32,-5
9050.492,308,-40,16360,-2340,-22,-32,-5
9055.881,307,-60,16332,-2384,-41,-43,-9
9057.427,307,-60,16332,-2384,-41,-43,-9
9062.112000000001,307,-60,16332,-2384,-41,-43,-9
9063.959,307,-60,16332,-2384,-41,-43,-9
9063.959,307,-60,16332,-2384,-41,-43,-9
9063.959,307,-60,16332,-2384,-41,-43,-9
9072.265,308,-60,16332,-2384,-41,-43,-9
9075.287,308,-4,16324,-2432,-24,-32,-32
9077.305,307,-4,16324,-2432,-24,-32,-32
9080.467,307,-4,16324,-2432,-24,-32,-32
9080.467,308,-4,16324,-2432,-24,-32,-32
9080.467,307,-4,16324,-2432,-24,-32,-32
9088.609,308,-4,16324,-2432,-24,-32,-32
9090.419,308,-4,16324,-2432,-24,-32,-32
9095.184,307,16,16304,-2372,-18,-60,-21
9098.884,307,16,16304,-2372,-18,-60,-21
9098.884,308,16,16304,-2372,-18,-60,-21
9098.884,308,16,16304,-2372,-18,-60,-21
9105.134,308,16,16304,-2372,-18,-60,-21
9108.555,307,16,16304,-2372,-18,-60,-21
9108.555,307,16,16304,-2372,-18,-60,-21
9113.27,308,16,16304,-2372,-18,-60,-21
9113.27,308,-24,16312,-2352,-35,-38,-2
9113.27,307,-24,16312,-2352,-35,-38,-2
9121.632,308,-24,16312,-2352,-35,-38,-2
9125.326,309,-24,16312,-2352,-35,-38,-2
9125.326,308,-24,16312,-2352,-35,-38,-2
9131.458,307,-24,16312,-2352,-35,-38,-2
9131.458,307,-24,16312,-2352,-35,-38,-2
9131.458,308,36,16292,-2368,-39,-38,0
9138.37,307,36,16292,-2368,-39,-38,0
9141.304999999998,308,36,16292,-2368,-39,-38,0
9141.304999999998,307,36,16292,-2368,-39,-38,0
9146.729000000001,307,36,16292,-2368,-39,-38,0
9146.729000000001,307,36,16292,-2368,-39,-38,0
9150.565999999999,307,36,16292,-2368,-39,-38,0
9150.565999999999,306,36,16292,-2368,-39,-38,0
9157.498,307,-12,16280,-2336,-33,-39,-7
9159.929,307,-12,16280,-2336,-33,-39,-7
9159.929,307,-12,16280,-2336,-33,-39,-7
9165.314,307,-12,16280,-2336,-33,-39,-7
9168.131000000001,307,-12,16280,-2336,-33,-39,-7
9168.131000000001,307,-12,16280,-2336,-33,-39,-7
9171.56,308,-12,16280,-2336,-33,-39,-7
9175.192,308,-4,16340,-2356,-30,-24,-21
9175.192,307,-4,16340,-2356,-30,-24,-21
9180.065,307,-4,16340,-2356,-30,-24,-21
9184.87,307,-4,16340,-2356,-30,-24,-21
9184.87,308,-4,16340,-2356,-30,-24,-21
9188.162999999999,308,-4,16340,-2356,-30,-24,-21
9191.115,308,-4,16340,-2356,-30,-24,-21
9191.115,307,-52,16348,-2348,-28,-42,-9
9196.752999999999,308,-52,16348,-2348,-28,-42,-9
9196.752999999999,307,-52,16348,-2348,-28,-42,-9
9196.752999999999,307,-52,16348,-2348,-28,-42,-9
9205.327000000001,307,-52,16348,-2348,-28,-42,-9
9208.097,307,-52,16348,-2348,-28,-42,-9
9210.712,308,-52,16348,-2348,-28,-42,-9
9213.52,307,-52,16348,-2348,-28,-42,-9
9213.52,308,16,16224,-2412,-42,-22,-24
9213.52,308,16,16224,-2412,-42,-22,-24
9222.95,308,16,16224,-2412,-42,-22,-24
9226.380000000001,307,16,16224,-2412,-42,-22,-24
9228.399,307,16,16224,-2412,-42,-22,-24
9229.412999999999,308,16,16224,-2412,-42,-22,-24
9229.412999999999,308,16,16224,-2412,-42,-22,-24
9229.412999999999,308,12,16344,-2376,-40,-25,-23
9237.522,307,12,16344,-2376,-40,-25,-23
9240.195,308,12,16344,-2376,-40,-25,-23
9243.5,307,12,16344,-2376,-40,-25,-23
9246.262,307,12,16344,-2376,-40,-25,-23
9250.690999999999,308,12,16344,-2376,-40,-25,-23
9253.666000000001,308,12,16344,-2376,-40,-25,-23
9254.683,307,-24,16324,-2344,-38,-50,-14
9254.683,307,-24,16324,-2344,-38,-50,-14
9262.616,307,-24,16324,-2344,-38,-50,-14
9262.616,307,-24,16324,-2344,-38,-50,-14
9262.616,308,-24,16324,-2344,-38,-50,-14
9270.941,308,-24,16324,-2344,-38,-50,-14
9270.941,308,-24,16324,-2344,-38,-50,-14
9275.121000000001,308,-20,16296,-2352,-51,-38,-12
9279.23,307,-20,16296,-2352,-51,-38,-12
9279.23,307,-20,16296,-2352,-51,-38,-12
9279.23,307,-20,16296,-2352,-51,-38,-12
9287.716,308,-20,16296,-2352,-51,-38,-12
9291.149000000001,308,-20,16296,-2352,-51,-38,-12
9291.149000000001,308,-20,16296,-2352,-51,-38,-12
9295.820000000002,307,-28,16336,-2372,-49,-32,-9
9295.820000000002,308,-28,16336,-2372,-49,-32,-9
9295.820000000002,307,-28,16336,-2372,-49,-32,-9
9304.077,307,-28,16336,-2372,-49,-32,-9
9307.976999999999,308,-28,16336,-2372,-49,-32,-9
9310.668,309,-28,16336,-2372,-49,-32,-9
