Time (ms),EMG,AccX,AccY,AccZ,GyroX,GyroY,GyroZ
2.883,308,-172,16364,-2288,-110,-53,-42
2.883,308,-172,16364,-2288,-110,-53,-42
2.883,308,-172,16364,-2288,-110,-53,-42
2.883,308,-172,16364,-2288,-110,-53,-42
1548.697,0,0,0,0,0,0,0
1552.725,307,0,0,0,0,0,0
1552.725,306,0,0,0,0,0,0
1554.853,307,0,0,0,0,0,0
1555.609,306,0,0,0,0,0,0
1555.609,307,0,0,0,0,0,0
1558.096,307,0,0,0,0,0,0
1560.109,307,0,0,0,0,0,0
1562.12,306,0,0,0,0,0,0
1562.12,307,0,0,0,0,0,0
1562.12,307,0,0,0,0,0,0
1562.12,307,0,0,0,0,0,0
1567.856,306,0,0,0,0,0,0
1569.809,307,0,0,0,0,0,0
1570.9850000000001,306,0,0,0,0,0,0
1571.504,307,0,0,0,0,0,0
1574.125,306,0,0,0,0,0,0
1574.777,306,0,0,0,0,0,0
1574.777,306,-168,16252,-2224,-111,-39,-34
1578.068,307,-168,16252,-2224,-111,-39,-34
1583.435,306,-168,16252,-2224,-111,-39,-34
1586.19,306,-168,16252,-2224,-111,-39,-34
1588.201,306,-168,16252,-2224,-111,-39,-34
1588.201,306,-168,16252,-2224,-111,-39,-34
1595.669,306,-168,16252,-2224,-111,-39,-34
1598.4499999999998,307,-208,16304,-2164,-61,-53,-30
1600.463,307,-208,16304,-2164,-61,-53,-30
1605.741,306,-208,16304,-2164,-61,-53,-30
1605.741,307,-208,16304,-2164,-61,-53,-30
1610.789,307,-208,16304,-2164,-61,-53,-30
1610.789,306,-208,16304,-2164,-61,-53,-30
1610.789,306,-208,16304,-2164,-61,-53,-30
1617.45,307,-276,16216,-2228,87,-39,-47
1619.203,307,-276,16216,-2228,87,-39,-47
1626.11,307,-276,16216,-2228,87,-39,-47
1627.6280000000002,307,-276,16216,-2228,87,-39,-47
1630.302,307,-276,16216,-2228,87,-39,-47
1630.302,307,-276,16216,-2228,87,-39,-47
1635.7459999999999,306,-276,16216,-2228,87,-39,-47
1638.3000000000002,307,-192,16172,-2144,-321,-42,3
1639.814,307,-192,16172,-2144,-321,-42,3
1644.2749999999999,307,-192,16172,-2144,-321,-42,3
1647.328,307,-192,16172,-2144,-321,-42,3
1649.34,306,-192,16172,-2144,-321,-42,3
1652.4509999999998,306,-192,16172,-2144,-321,-42,3
1652.4509999999998,306,-192,16172,-2144,-321,-42,3
1652.4509999999998,307,-136,16516,-2088,226,-48,-20
1663.188,306,-136,16516,-2088,226,-48,-20
1663.188,307,-136,16516,-2088,226,-48,-20
1663.188,307,-136,16516,-2088,226,-48,-20
1668.677,306,-136,16516,-2088,226,-48,-20
1673.48,306,-136,16516,-2088,226,-48,-20
1673.48,306,-136,16516,-2088,226,-48,-20
1677.041,306,-180,16356,-2304,-9,-24,-30
1677.041,306,-180,16356,-2304,-9,-24,-30
1685.2959999999998,306,-180,16356,-2304,-9,-24,-30
1688.397,306,-180,16356,-2304,-9,-24,-30
1690.926,305,-180,16356,-2304,-9,-24,-30
1693.891,306,-180,16356,-2304,-9,-24,-30
1693.891,305,-180,16356,-2304,-9,-24,-30
1693.891,306,-216,16432,-2208,-234,-48,-10
1701.991,306,-216,16432,-2208,-234,-48,-10
1705.943,307,-216,16432,-2208,-234,-48,-10
1707.961,306,-216,16432,-2208,-234,-48,-10
1712.115,306,-216,16432,-2208,-234,-48,-10
1712.115,305,-216,16432,-2208,-234,-48,-10
1717.009,306,-220,16276,-2156,15,-37,-13
1718.765,305,-220,16276,-2156,15,-37,-13
1718.765,306,-220,16276,-2156,15,-37,-13
1718.765,306,-220,16276,-2156,15,-37,-13
1727.1879999999999,306,-220,16276,-2156,15,-37,-13
1727.1879999999999,305,-220,16276,-2156,15,-37,-13
1735.533,306,-220,16276,-2156,15,-37,-13
1735.533,305,-220,16276,-2156,15,-37,-13
1739.8210000000001,306,-208,16456,-2288,163,-24,-14
1739.8210000000001,306,-208,16456,-2288,163,-24,-14
1743.6309999999999,305,-208,16456,-2288,163,-24,-14
1743.6309999999999,305,-208,16456,-2288,163,-24,-14
1752.0629999999999,305,-208,16456,-2288,163,-24,-14
1752.0629999999999,305,-208,16456,-2288,163,-24,-14
1752.0629999999999,306,-180,16304,-2268,-148,-37,-4
1760.543,305,-180,16304,-2268,-148,-37,-4
1760.543,306,-180,16304,-2268,-148,-37,-4
1763.586,306,-180,16304,-2268,-148,-37,-4
1768.865,306,-180,16304,-2268,-148,-37,-4
1768.865,305,-180,16304,-2268,-148,-37,-4
1768.865,306,-180,16304,-2268,-148,-37,-4
1776.929,305,-196,16240,-2192,-149,-34,1
1781.8799999999999,306,-196,16240,-2192,-149,-34,1
1781.8799999999999,305,-196,16240,-2192,-149,-34,1
1785.144,305,-196,16240,-2192,-149,-34,1
1785.144,305,-196,16240,-2192,-149,-34,1
1793.409,305,-196,16240,-2192,-149,-34,1
1793.409,305,-196,16240,-2192,-149,-34,1
1793.409,306,-148,16364,-2200,113,-41,-9
1801.584,306,-148,16364,-2200,113,-41,-9
1801.584,306,-148,16364,-2200,113,-41,-9
1801.584,305,-148,16364,-2200,113,-41,-9
1810.605,305,-148,16364,-2200,113,-41,-9
1810.9109999999998,305,-148,16364,-2200,113,-41,-9
1810.9109999999998,305,-148,16364,-2200,113,-41,-9
1818.165,305,-160,16368,-2208,-76,-35,-19
1818.165,305,-160,16368,-2208,-76,-35,-19
1818.165,305,-160,16368,-2208,-76,-35,-19
1827.094,306,-160,16368,-2208,-76,-35,-19
1829.107,306,-160,16368,-2208,-76,-35,-19
1829.107,304,-160,16368,-2208,-76,-35,-19
1834.741,305,-160,16368,-2208,-76,-35,-19
1839.81,306,-164,16444,-2220,-182,-44,-16
1839.81,305,-164,16444,-2220,-182,-44,-16
1843.216,306,-164,16444,-2220,-182,-44,-16
1845.991,306,-164,16444,-2220,-182,-44,-16
1851.241,305,-164,16444,-2220,-182,-44,-16
1851.241,306,-164,16444,-2220,-182,-44,-16
1855.837,305,-164,16444,-2220,-182,-44,-16
1859.318,305,-196,16556,-2172,177,-39,-12
1862.058,306,-196,16556,-2172,177,-39,-12
1864.07,305,-196,16556,-2172,177,-39,-12
1867.823,305,-196,16556,-2172,177,-39,-12
1867.823,305,-196,16556,-2172,177,-39,-12
1867.823,305,-196,16556,-2172,177,-39,-12
1875.96,306,-196,16556,-2172,177,-39,-12
1880.029,306,-264,16216,-2284,-78,-22,-29
1884.201,306,-264,16216,-2284,-78,-22,-29
1884.201,306,-264,16216,-2284,-78,-22,-29
1887.029,306,-264,16216,-2284,-78,-22,-29
1892.548,305,-264,16216,-2284,-78,-22,-29
1893.72,306,-264,16216,-2284,-78,-22,-29
1894.6019999999999,305,-264,16216,-2284,-78,-22,-29
1900.761,306,-192,16200,-2124,-322,-30,4
1902.768,307,-192,16200,-2124,-322,-30,4
1905.829,306,-192,16200,-2124,-322,-30,4
1908.866,306,-192,16200,-2124,-322,-30,4
1908.866,306,-192,16200,-2124,-322,-30,4
1913.845,306,-192,16200,-2124,-322,-30,4
1917.326,306,-192,16200,-2124,-322,-30,4
1917.326,306,-204,16392,-2184,382,-53,-26
1921.992,306,-204,16392,-2184,382,-53,-26
1925.545,307,-204,16392,-2184,382,-53,-26
1925.545,307,-204,16392,-2184,382,-53,-26
1931.9630000000002,307,-204,16392,-2184,382,-53,-26
1933.702,306,-204,16392,-2184,382,-53,-26
1937.633,307,-180,16264,-2364,-112,-24,0
1939.807,306,-180,16264,-2364,-112,-24,0
1942.452,306,-180,16264,-2364,-112,-24,0
1945.0890000000002,307,-180,16264,-2364,-112,-24,0
1949.117,307,-180,16264,-2364,-112,-24,0
1950.145,307,-180,16264,-2364,-112,-24,0
1950.145,306,-180,16264,-2364,-112,-24,0
1958.4029999999998,306,-180,16264,-2364,-112,-24,0
1958.4029999999998,306,-148,16476,-2148,-159,-42,-3
1958.4029999999998,307,-148,16476,-2148,-159,-42,-3
1966.545,307,-148,16476,-2148,-159,-42,-3
1966.545,307,-148,16476,-2148,-159,-42,-3
1972.5269999999998,306,-148,16476,-2148,-159,-42,-3
1974.547,307,-148,16476,-2148,-159,-42,-3
1976.117,307,-208,16296,-2168,123,-21,-25
1981.2160000000001,308,-208,16296,-2168,123,-21,-25
1983.682,307,-208,16296,-2168,123,-21,-25
1983.682,307,-208,16296,-2168,123,-21,-25
1991.042,307,-208,16296,-2168,123,-21,-25
1993.056,306,-208,16296,-2168,123,-21,-25
1993.056,306,-208,16296,-2168,123,-21,-25
1999.1490000000001,307,-192,16336,-2216,-51,-44,22
1999.1490000000001,308,-192,16336,-2216,-51,-44,22
1999.1490000000001,307,-192,16336,-2216,-51,-44,22
2007.622,307,-192,16336,-2216,-51,-44,22
2011.365,307,-192,16336,-2216,-51,-44,22
2012.486,306,-192,16336,-2216,-51,-44,22
2015.6480000000001,307,-192,16336,-2216,-51,-44,22
2015.6480000000001,307,-196,16416,-2232,-36,-58,-20
2015.6480000000001,307,-196,16416,-2232,-36,-58,-20
2024.988,307,-196,16416,-2232,-36,-58,-20
2026.8519999999999,307,-196,16416,-2232,-36,-58,-20
2030.9590000000003,307,-196,16416,-2232,-36,-58,-20
2032.002,307,-196,16416,-2232,-36,-58,-20
2036.2610000000002,307,-196,16416,-2232,-36,-58,-20
2040.186,307,-228,16248,-2204,-84,-29,1
2042.6329999999998,309,-228,16248,-2204,-84,-29,1
2042.6329999999998,307,-228,16248,-2204,-84,-29,1
2048.238,307,-228,16248,-2204,-84,-29,1
2048.238,306,-228,16248,-2204,-84,-29,1
2048.238,307,-228,16248,-2204,-84,-29,1
2056.652,307,-228,16248,-2204,-84,-29,1
2058.668,307,-188,16452,-2184,27,-39,-22
2058.668,308,-188,16452,-2184,27,-39,-22
2064.765,308,-188,16452,-2184,27,-39,-22
2064.765,307,-188,16452,-2184,27,-39,-22
2064.765,307,-188,16452,-2184,27,-39,-22
2072.886,307,-188,16452,-2184,27,-39,-22
2074.898,307,-188,16452,-2184,27,-39,-22
2078.612,308,-188,16452,-2184,27,-39,-22
2080.627,308,-172,16288,-2244,-36,-26,2
2084.65,308,-172,16288,-2244,-36,-26,2
2086.663,308,-172,16288,-2244,-36,-26,2
2089.955,307,-172,16288,-2244,-36,-26,2
2091.967,307,-172,16288,-2244,-36,-26,2
2093.976,307,-172,16288,-2244,-36,-26,2
2097.543,307,-172,16288,-2244,-36,-26,2
2100.6079999999997,307,-192,16284,-2236,-100,-34,-4
2102.059,308,-192,16284,-2236,-100,-34,-4
2106.308,308,-192,16284,-2236,-100,-34,-4
2109.967,308,-192,16284,-2236,-100,-34,-4
2113.118,307,-192,16284,-2236,-100,-34,-4
2113.118,307,-192,16284,-2236,-100,-34,-4
2113.118,307,-192,16284,-2236,-100,-34,-4
2120.7889999999998,307,-216,16412,-2204,53,-35,-4
2122.324,308,-216,16412,-2204,53,-35,-4
2123.71,309,-216,16412,-2204,53,-35,-4
2129.213,308,-216,16412,-2204,53,-35,-4
2129.213,307,-216,16412,-2204,53,-35,-4
2134.676,307,-216,16412,-2204,53,-35,-4
2137.3799999999997,308,-216,16412,-2204,53,-35,-4
2137.3799999999997,307,-204,16272,-2196,-94,-30,-19
2140.638,308,-204,16272,-2196,-94,-30,-19
2145.435,308,-204,16272,-2196,-94,-30,-19
2145.435,308,-204,16272,-2196,-94,-30,-19
2145.435,307,-204,16272,-2196,-94,-30,-19
2154.854,307,-204,16272,-2196,-94,-30,-19
2154.854,308,-204,16272,-2196,-94,-30,-19
2154.854,308,-216,16380,-2184,-65,-31,1
2162.895,308,-216,16380,-2184,-65,-31,1
2163.618,308,-216,16380,-2184,-65,-31,1
2163.618,308,-216,16380,-2184,-65,-31,1
2170.07,307,-216,16380,-2184,-65,-31,1
2170.07,307,-216,16380,-2184,-65,-31,1
2170.07,308,-216,16380,-2184,-65,-31,1
2178.303,308,-224,16424,-2256,53,-23,8
2178.303,308,-224,16424,-2256,53,-23,8
2178.303,309,-224,16424,-2256,53,-23,8
2186.33,308,-224,16424,-2256,53,-23,8
2186.33,308,-224,16424,-2256,53,-23,8
2186.33,307,-224,16424,-2256,53,-23,8
2195.602,308,-224,16424,-2256,53,-23,8
2196.445,308,-212,16280,-2260,-83,-39,-19
2196.445,308,-212,16280,-2260,-83,-39,-19
2202.531,308,-212,16280,-2260,-83,-39,-19
2202.531,308,-212,16280,-2260,-83,-39,-19
2212.165,307,-212,16280,-2260,-83,-39,-19
2212.165,307,-212,16280,-2260,-83,-39,-19
2212.165,307,-212,16280,-2260,-83,-39,-19
2218.797,307,-168,16304,-2180,-85,-22,19
2218.797,308,-168,16304,-2180,-85,-22,19
2218.797,308,-168,16304,-2180,-85,-22,19
2226.935,309,-168,16304,-2180,-85,-22,19
2226.935,308,-168,16304,-2180,-85,-22,19
2226.935,308,-168,16304,-2180,-85,-22,19
2235.204,308,-168,16304,-2180,-85,-22,19
2239.0690000000004,308,-200,16416,-2172,91,-34,-38
2240.582,308,-200,16416,-2172,91,-34,-38
2244.6130000000003,308,-200,16416,-2172,91,-34,-38
2249.0359999999996,308,-200,16416,-2172,91,-34,-38
2249.6079999999997,308,-200,16416,-2172,91,-34,-38
2251.764,307,-200,16416,-2172,91,-34,-38
2256.355,307,-200,16416,-2172,91,-34,-38
2256.355,307,-192,16376,-2248,-98,-21,-4
2259.8500000000004,308,-192,16376,-2248,-98,-21,-4
2259.8500000000004,308,-192,16376,-2248,-98,-21,-4
2259.8500000000004,308,-192,16376,-2248,-98,-21,-4
2268.0440000000003,308,-192,16376,-2248,-98,-21,-4
2268.0440000000003,308,-192,16376,-2248,-98,-21,-4
2268.0440000000003,307,-192,16376,-2248,-98,-21,-4
2276.195,307,-192,16376,-2248,-98,-21,-4
2276.195,308,-212,16356,-2148,-70,-34,0
2284.432,308,-212,16356,-2148,-70,-34,0
2284.432,308,-212,16356,-2148,-70,-34,0
2284.432,308,-212,16356,-2148,-70,-34,0
2292.9590000000003,307,-212,16356,-2148,-70,-34,0
2292.9590000000003,307,-212,16356,-2148,-70,-34,0
2292.9590000000003,308,-212,16356,-2148,-70,-34,0
2301.469,308,-200,16380,-2192,109,-19,-11
2301.469,308,-200,16380,-2192,109,-19,-11
2301.469,308,-200,16380,-2192,109,-19,-11
2309.9120000000003,308,-200,16380,-2192,109,-19,-11
2309.9120000000003,307,-200,16380,-2192,109,-19,-11
2309.9120000000003,308,-200,16380,-2192,109,-19,-11
2318.1600000000003,307,-200,16380,-2192,109,-19,-11
2318.1600000000003,307,-132,16288,-2272,-128,-30,-32
2318.1600000000003,308,-132,16288,-2272,-128,-30,-32
2326.3630000000003,308,-132,16288,-2272,-128,-30,-32
2326.3630000000003,307,-132,16288,-2272,-128,-30,-32
2334.491,307,-132,16288,-2272,-128,-30,-32
2334.491,307,-132,16288,-2272,-128,-30,-32
2334.491,308,-192,16340,-2152,-101,-39,-14
2342.8619999999996,307,-192,16340,-2152,-101,-39,-14
2342.8619999999996,307,-192,16340,-2152,-101,-39,-14
2342.8619999999996,307,-192,16340,-2152,-101,-39,-14
2351.297,307,-192,16340,-2152,-101,-39,-14
2351.297,307,-192,16340,-2152,-101,-39,-14
2351.297,307,-192,16340,-2152,-101,-39,-14
2359.8379999999997,306,-208,16428,-2172,89,-36,-3
2363.96,307,-208,16428,-2172,89,-36,-3
2363.96,307,-208,16428,-2172,89,-36,-3
2368.16,307,-208,16428,-2172,89,-36,-3
2368.16,306,-208,16428,-2172,89,-36,-3
2372.937,306,-208,16428,-2172,89,-36,-3
2376.577,306,-208,16428,-2172,89,-36,-3
2376.577,306,-216,16348,-2264,-85,-32,-21
2376.577,307,-216,16348,-2264,-85,-32,-21
2384.5969999999998,308,-216,16348,-2264,-85,-32,-21
2389.1079999999997,307,-216,16348,-2264,-85,-32,-21
2391.128,307,-216,16348,-2264,-85,-32,-21
2392.9,307,-216,16348,-2264,-85,-32,-21
2394.917,307,-216,16348,-2264,-85,-32,-21
2401.161,307,-200,16344,-2188,-81,-39,-11
2404.751,307,-200,16344,-2188,-81,-39,-11
2406.707,308,-200,16344,-2188,-81,-39,-11
2409.325,307,-200,16344,-2188,-81,-39,-11
2412.646,308,-200,16344,-2188,-81,-39,-11
2413.558,308,-200,16344,-2188,-81,-39,-11
2417.646,307,-200,16344,-2188,-81,-39,-11
2417.646,307,-204,16360,-2188,68,-30,-17
2417.646,307,-204,16360,-2188,68,-30,-17
2426.796,307,-204,16360,-2188,68,-30,-17
2426.796,307,-204,16360,-2188,68,-30,-17
2426.796,308,-204,16360,-2188,68,-30,-17
2434.488,307,-204,16360,-2188,68,-30,-17
2438.22,307,-204,16360,-2188,68,-30,-17
2441.297,307,-180,16324,-2240,-115,-44,-5
2442.81,308,-180,16324,-2240,-115,-44,-5
2445.398,307,-180,16324,-2240,-115,-44,-5
2449.4950000000003,307,-180,16324,-2240,-115,-44,-5
2451.265,307,-180,16324,-2240,-115,-44,-5
2451.265,307,-180,16324,-2240,-115,-44,-5
2457.807,308,-180,16324,-2240,-115,-44,-5
2461.6820000000002,307,-208,16332,-2184,-83,-49,-1
2461.6820000000002,308,-208,16332,-2184,-83,-49,-1
2461.6820000000002,307,-208,16332,-2184,-83,-49,-1
2469.987,308,-208,16332,-2184,-83,-49,-1
2469.987,307,-208,16332,-2184,-83,-49,-1
2475.441,307,-208,16332,-2184,-83,-49,-1
2475.441,307,-208,16332,-2184,-83,-49,-1
2475.441,308,-240,16356,-2240,50,-50,-4
2483.729,308,-240,16356,-2240,50,-50,-4
2483.729,308,-240,16356,-2240,50,-50,-4
2488.803,308,-240,16356,-2240,50,-50,-4
2491.8360000000002,307,-240,16356,-2240,50,-50,-4
2494.509,307,-240,16356,-2240,50,-50,-4
2494.509,308,-240,16356,-2240,50,-50,-4
2500.136,307,-184,16336,-2228,-117,-33,-18
2502.7439999999997,307,-184,16336,-2228,-117,-33,-18
2504.907,307,-184,16336,-2228,-117,-33,-18
2509.073,307,-184,16336,-2228,-117,-33,-18
2509.073,307,-184,16336,-2228,-117,-33,-18
2509.073,307,-184,16336,-2228,-117,-33,-18
2519.142,307,-184,16336,-2228,-117,-33,-18
2519.142,307,-228,16384,-2180,-17,-33,-28
2519.142,308,-228,16384,-2180,-17,-33,-28
2527.3289999999997,308,-228,16384,-2180,-17,-33,-28
2528.0,308,-228,16384,-2180,-17,-33,-28
2533.0249999999996,307,-228,16384,-2180,-17,-33,-28
2533.0249999999996,307,-228,16384,-2180,-17,-33,-28
2533.0249999999996,307,-228,16384,-2180,-17,-33,-28
2541.5879999999997,307,-172,16312,-2240,8,-51,-17
2542.614,308,-172,16312,-2240,8,-51,-17
2546.2090000000003,308,-172,16312,-2240,8,-51,-17
2546.2090000000003,308,-172,16312,-2240,8,-51,-17
2551.946,307,-172,16312,-2240,8,-51,-17
2556.31,307,-172,16312,-2240,8,-51,-17
2558.046,307,-172,16312,-2240,8,-51,-17
2558.046,308,-184,16384,-2224,-80,-40,2
2561.264,308,-184,16384,-2224,-80,-40,2
2566.206,307,-184,16384,-2224,-80,-40,2
2566.206,308,-184,16384,-2224,-80,-40,2
2566.206,307,-184,16384,-2224,-80,-40,2
2566.206,307,-184,16384,-2224,-80,-40,2
2576.371,307,-184,16384,-2224,-80,-40,2
2579.603,307,-196,16356,-2228,-20,-30,-5
2584.8309999999997,308,-196,16356,-2228,-20,-30,-5
2584.8309999999997,308,-196,16356,-2228,-20,-30,-5
2584.8309999999997,308,-196,16356,-2228,-20,-30,-5
2591.05,307,-196,16356,-2228,-20,-30,-5
2591.05,308,-196,16356,-2228,-20,-30,-5
2594.157,307,-196,16356,-2228,-20,-30,-5
2599.169,307,-176,16368,-2208,-22,-37,10
2599.169,308,-176,16368,-2208,-22,-37,10
2599.169,308,-176,16368,-2208,-22,-37,10
2607.217,307,-176,16368,-2208,-22,-37,10
2607.217,307,-176,16368,-2208,-22,-37,10
2607.217,307,-176,16368,-2208,-22,-37,10
2615.377,307,-176,16368,-2208,-22,-37,10
2615.377,307,-160,16380,-2160,-39,-32,9
2615.377,308,-160,16380,-2160,-39,-32,9
2623.866,308,-160,16380,-2160,-39,-32,9
2626.312,308,-160,16380,-2160,-39,-32,9
2626.312,307,-160,16380,-2160,-39,-32,9
2632.3599999999997,307,-160,16380,-2160,-39,-32,9
2637.895,307,-160,16380,-2160,-39,-32,9
2638.9719999999998,307,-160,16380,-2160,-39,-32,9
2641.744,307,-220,16324,-2192,-51,-29,-2
2643.936,307,-220,16324,-2192,-51,-29,-2
2643.936,308,-220,16324,-2192,-51,-29,-2
2650.3269999999998,308,-220,16324,-2192,-51,-29,-2
2651.0699999999997,308,-220,16324,-2192,-51,-29,-2
2656.256,308,-220,16324,-2192,-51,-29,-2
2657.272,308,-220,16324,-2192,-51,-29,-2
2657.272,307,-144,16364,-2196,-2,-30,-24
2657.272,308,-144,16364,-2196,-2,-30,-24
2665.73,308,-144,16364,-2196,-2,-30,-24
2671.2259999999997,307,-144,16364,-2196,-2,-30,-24
2673.91,308,-144,16364,-2196,-2,-30,-24
2675.9249999999997,308,-144,16364,-2196,-2,-30,-24
2677.9429999999998,307,-144,16364,-2196,-2,-30,-24
2681.968,307,-192,16392,-2224,-41,-49,-8
2683.976,308,-192,16392,-2224,-41,-49,-8
2687.524,308,-192,16392,-2224,-41,-49,-8
2689.578,308,-192,16392,-2224,-41,-49,-8
2691.5930000000003,307,-192,16392,-2224,-41,-49,-8
2695.62,307,-192,16392,-2224,-41,-49,-8
2699.651,308,-192,16392,-2224,-41,-49,-8
2699.651,307,-236,16328,-2160,-95,-27,7
2703.679,308,-236,16328,-2160,-95,-27,7
2707.719,308,-236,16328,-2160,-95,-27,7
2709.734,308,-236,16328,-2160,-95,-27,7
2712.396,307,-236,16328,-2160,-95,-27,7
2716.167,307,-236,16328,-2160,-95,-27,7
2718.183,308,-236,16328,-2160,-95,-27,7
2720.884,308,-224,16348,-2160,-8,-48,-8
2723.9429999999998,308,-224,16348,-2160,-8,-48,-8
2727.97,307,-224,16348,-2160,-8,-48,-8
2727.97,308,-224,16348,-2160,-8,-48,-8
2731.9990000000003,307,-224,16348,-2160,-8,-48,-8
2736.034,307,-224,16348,-2160,-8,-48,-8
2736.034,307,-224,16348,-2160,-8,-48,-8
2738.968,307,-236,16348,-2228,-8,-30,-23
2742.532,308,-236,16348,-2228,-8,-30,-23
2744.544,308,-236,16348,-2228,-8,-30,-23
2748.323,308,-236,16348,-2228,-8,-30,-23
2752.355,307,-236,16348,-2228,-8,-30,-23
2752.355,307,-236,16348,-2228,-8,-30,-23
2757.336,307,-236,16348,-2228,-8,-30,-23
2757.336,308,-132,16400,-2232,-78,-35,-9
2757.336,308,-132,16400,-2232,-78,-35,-9
2762.799,308,-132,16400,-2232,-78,-35,-9
2762.799,307,-132,16400,-2232,-78,-35,-9
2772.993,307,-132,16400,-2232,-78,-35,-9
2775.0099999999998,307,-132,16400,-2232,-78,-35,-9
2777.025,307,-132,16400,-2232,-78,-35,-9
2780.192,307,-184,16360,-2172,-48,-54,-12
2782.203,308,-184,16360,-2172,-48,-54,-12
2786.226,308,-184,16360,-2172,-48,-54,-12
2789.2619999999997,308,-184,16360,-2172,-48,-54,-12
2792.929,308,-184,16360,-2172,-48,-54,-12
2792.929,307,-184,16360,-2172,-48,-54,-12
2797.616,308,-184,16360,-2172,-48,-54,-12
2797.616,308,-224,16324,-2228,3,-42,-16
2803.741,308,-224,16324,-2228,3,-42,-16
2803.741,308,-224,16324,-2228,3,-42,-16
2803.741,308,-224,16324,-2228,3,-42,-16
2803.741,307,-224,16324,-2228,3,-42,-16
2814.221,307,-224,16324,-2228,3,-42,-16
2815.181,308,-224,16324,-2228,3,-42,-16
2815.181,307,-224,16324,-2228,3,-42,-16
2822.5370000000003,307,-192,16312,-2224,-73,-28,-12
2822.5370000000003,308,-192,16312,-2224,-73,-28,-12
2822.5370000000003,308,-192,16312,-2224,-73,-28,-12
2828.706,308,-192,16312,-2224,-73,-28,-12
2828.706,307,-192,16312,-2224,-73,-28,-12
2837.7400000000002,308,-192,16312,-2224,-73,-28,-12
2837.7400000000002,308,-260,16316,-2196,-53,-58,-16
2842.318,308,-260,16316,-2196,-53,-58,-16
2845.329,308,-260,16316,-2196,-53,-58,-16
2845.329,308,-260,16316,-2196,-53,-58,-16
2845.329,307,-260,16316,-2196,-53,-58,-16
2853.838,308,-260,16316,-2196,-53,-58,-16
2853.838,307,-260,16316,-2196,-53,-58,-16
2853.838,308,-156,16344,-2248,13,-22,-1
2862.4109999999996,307,-156,16344,-2248,13,-22,-1
2862.4109999999996,308,-156,16344,-2248,13,-22,-1
2862.4109999999996,307,-156,16344,-2248,13,-22,-1
2870.657,308,-156,16344,-2248,13,-22,-1
2870.657,308,-156,16344,-2248,13,-22,-1
2870.657,308,-156,16344,-2248,13,-22,-1
2879.6949999999997,308,-156,16344,-2248,13,-22,-1
2880.684,308,-232,16304,-2176,-75,-37,6
2880.684,308,-232,16304,-2176,-75,-37,6
2888.8790000000004,307,-232,16304,-2176,-75,-37,6
2890.898,307,-232,16304,-2176,-75,-37,6
2892.9109999999996,307,-232,16304,-2176,-75,-37,6
2896.027,308,-232,16304,-2176,-75,-37,6
2896.027,307,-232,16304,-2176,-75,-37,6
2896.027,308,-168,16320,-2168,-22,-41,5
2904.1510000000003,308,-168,16320,-2168,-22,-41,5
2908.0,308,-168,16320,-2168,-22,-41,5
2910.0130000000004,308,-168,16320,-2168,-22,-41,5
2911.681,308,-168,16320,-2168,-22,-41,5
2911.681,308,-168,16320,-2168,-22,-41,5
2911.681,308,-168,16320,-2168,-22,-41,5
2920.321,307,-224,16340,-2244,-13,-47,0
2920.321,308,-224,16340,-2244,-13,-47,0
2920.321,308,-224,16340,-2244,-13,-47,0
2928.489,308,-224,16340,-2244,-13,-47,0
2928.489,307,-224,16340,-2244,-13,-47,0
2928.489,307,-224,16340,-2244,-13,-47,0
2936.772,307,-224,16340,-2244,-13,-47,0
2936.772,308,-212,16344,-2260,-85,-35,-3
2942.193,308,-212,16344,-2260,-85,-35,-3
2945.161,307,-212,16344,-2260,-85,-35,-3
2945.161,308,-212,16344,-2260,-85,-35,-3
2953.4790000000003,307,-212,16344,-2260,-85,-35,-3
2953.4790000000003,308,-212,16344,-2260,-85,-35,-3
2953.4790000000003,307,-212,16344,-2260,-85,-35,-3
2961.809,307,-180,16392,-2128,-47,-49,-30
2961.809,308,-180,16392,-2128,-47,-49,-30
2961.809,308,-180,16392,-2128,-47,-49,-30
2970.248,307,-180,16392,-2128,-47,-49,-30
2970.248,307,-180,16392,-2128,-47,-49,-30
2970.248,307,-180,16392,-2128,-47,-49,-30
2978.326,308,-180,16392,-2128,-47,-49,-30
2981.9559999999997,308,-184,16392,-2232,28,-41,-27
2983.4550000000004,308,-184,16392,-2232,28,-41,-27
2986.594,307,-184,16392,-2232,28,-41,-27
2986.594,308,-184,16392,-2232,28,-41,-27
2986.594,307,-184,16392,-2232,28,-41,-27
2994.8579999999997,307,-184,16392,-2232,28,-41,-27
2994.8579999999997,307,-184,16392,-2232,28,-41,-27
2994.8579999999997,307,-188,16332,-2196,-75,-28,0
3003.149,308,-188,16332,-2196,-75,-28,0
3003.149,308,-188,16332,-2196,-75,-28,0
3003.149,307,-188,16332,-2196,-75,-28,0
3011.635,307,-188,16332,-2196,-75,-28,0
3011.635,308,-188,16332,-2196,-75,-28,0
3011.635,307,-188,16332,-2196,-75,-28,0
3019.8399999999997,307,-188,16332,-2196,-75,-28,0
3022.7650000000003,307,-224,16324,-2192,-39,-54,-16
3026.799,308,-224,16324,-2192,-39,-54,-16
3028.3199999999997,308,-224,16324,-2192,-39,-54,-16
3028.3199999999997,308,-224,16324,-2192,-39,-54,-16
3028.3199999999997,307,-224,16324,-2192,-39,-54,-16
3036.3540000000003,307,-224,16324,-2192,-39,-54,-16
3038.426,307,-224,16324,-2192,-39,-54,-16
3042.328,307,-220,16328,-2196,8,-47,1
3044.5099999999998,307,-220,16328,-2196,8,-47,1
3044.5099999999998,308,-220,16328,-2196,8,-47,1
3044.5099999999998,308,-220,16328,-2196,8,-47,1
3052.9829999999997,307,-220,16328,-2196,8,-47,1
3055.835,307,-220,16328,-2196,8,-47,1
3055.835,307,-220,16328,-2196,8,-47,1
3055.835,307,-188,16368,-2236,-52,-34,10
3062.885,308,-188,16368,-2236,-52,-34,10
3066.381,308,-188,16368,-2236,-52,-34,10
3070.448,308,-188,16368,-2236,-52,-34,10
3072.475,307,-188,16368,-2236,-52,-34,10
3072.475,306,-188,16368,-2236,-52,-34,10
3077.444,307,-188,16368,-2236,-52,-34,10
3080.453,306,-224,16304,-2188,-50,-40,-9
3080.453,307,-224,16304,-2188,-50,-40,-9
3088.59,307,-224,16304,-2188,-50,-40,-9
3088.59,307,-224,16304,-2188,-50,-40,-9
3088.59,306,-224,16304,-2188,-50,-40,-9
3093.893,307,-224,16304,-2188,-50,-40,-9
3093.893,307,-224,16304,-2188,-50,-40,-9
3093.893,307,-152,16312,-2184,-4,-25,-27
3101.9869999999996,308,-152,16312,-2184,-4,-25,-27
3106.5190000000002,307,-152,16312,-2184,-4,-25,-27
3106.5190000000002,307,-152,16312,-2184,-4,-25,-27
3110.342,306,-152,16312,-2184,-4,-25,-27
3110.342,306,-152,16312,-2184,-4,-25,-27
3110.342,306,-152,16312,-2184,-4,-25,-27
3118.498,307,-164,16312,-2168,-37,-55,-38
3118.498,307,-164,16312,-2168,-37,-55,-38
3126.777,307,-164,16312,-2168,-37,-55,-38
3129.417,307,-164,16312,-2168,-37,-55,-38
3129.417,307,-164,16312,-2168,-37,-55,-38
3135.181,307,-164,16312,-2168,-37,-55,-38
3137.2,306,-164,16312,-2168,-37,-55,-38
3137.2,307,-164,16360,-2176,-69,-47,-2
3145.987,307,-164,16360,-2176,-69,-47,-2
3145.987,307,-164,16360,-2176,-69,-47,-2
3145.987,307,-164,16360,-2176,-69,-47,-2
3153.8469999999998,307,-164,16360,-2176,-69,-47,-2
3153.8469999999998,307,-164,16360,-2176,-69,-47,-2
3155.8639999999996,308,-164,16360,-2176,-69,-47,-2
3162.293,307,-152,16336,-2208,-13,-39,-6
3162.293,307,-152,16336,-2208,-13,-39,-6
3162.293,308,-152,16336,-2208,-13,-39,-6
3168.56,307,-152,16336,-2208,-13,-39,-6
3171.0370000000003,307,-152,16336,-2208,-13,-39,-6
3173.9429999999998,306,-152,16336,-2208,-13,-39,-6
3176.6299999999997,306,-152,16336,-2208,-13,-39,-6
3176.6299999999997,307,-204,16364,-2220,-17,-38,-1
3176.6299999999997,307,-204,16364,-2220,-17,-38,-1
3184.888,308,-204,16364,-2220,-17,-38,-1
3184.888,307,-204,16364,-2220,-17,-38,-1
3192.225,307,-204,16364,-2220,-17,-38,-1
3195.087,306,-204,16364,-2220,-17,-38,-1
3195.7650000000003,307,-204,16364,-2220,-17,-38,-1
3201.316,307,-208,16348,-2212,-87,-24,-14
3201.316,307,-208,16348,-2212,-87,-24,-14
3201.316,308,-208,16348,-2212,-87,-24,-14
3210.4370000000004,307,-208,16348,-2212,-87,-24,-14
3210.4370000000004,307,-208,16348,-2212,-87,-24,-14
3210.4370000000004,307,-208,16348,-2212,-87,-24,-14
3218.1510000000003,307,-208,16348,-2212,-87,-24,-14
3218.1510000000003,307,-192,16304,-2220,-33,-41,-13
3223.325,307,-192,16304,-2220,-33,-41,-13
3226.3480000000004,307,-192,16304,-2220,-33,-41,-13
3231.502,307,-192,16304,-2220,-33,-41,-13
3231.502,306,-192,16304,-2220,-33,-41,-13
3234.5519999999997,306,-192,16304,-2220,-33,-41,-13
3237.956,306,-192,16304,-2220,-33,-41,-13
3237.956,307,-208,16404,-2232,-11,-28,-6
3242.737,308,-208,16404,-2232,-11,-28,-6
3242.737,307,-208,16404,-2232,-11,-28,-6
3250.7769999999996,307,-208,16404,-2232,-11,-28,-6
3250.7769999999996,306,-208,16404,-2232,-11,-28,-6
3250.7769999999996,307,-208,16404,-2232,-11,-28,-6
3258.837,307,-208,16404,-2232,-11,-28,-6
3261.0139999999997,307,-244,16316,-2220,-73,-30,-13
3261.0139999999997,307,-244,16316,-2220,-73,-30,-13
3267.237,307,-244,16316,-2220,-73,-30,-13
3269.088,307,-244,16316,-2220,-73,-30,-13
3271.428,307,-244,16316,-2220,-73,-30,-13
3275.671,307,-244,16316,-2220,-73,-30,-13
3280.823,307,-244,16316,-2220,-73,-30,-13
3280.823,307,-216,16296,-2180,-35,-36,3
3283.759,308,-216,16296,-2180,-35,-36,3
3283.759,308,-216,16296,-2180,-35,-36,3
3289.467,307,-216,16296,-2180,-35,-36,3
3291.485,307,-216,16296,-2180,-35,-36,3
3291.485,306,-216,16296,-2180,-35,-36,3
3291.485,306,-216,16296,-2180,-35,-36,3
3299.523,307,-164,16340,-2180,-2,-36,-14
3304.541,308,-164,16340,-2180,-2,-36,-14
3306.559,308,-164,16340,-2180,-2,-36,-14
3307.575,307,-164,16340,-2180,-2,-36,-14
3307.575,307,-164,16340,-2180,-2,-36,-14
3307.575,306,-164,16340,-2180,-2,-36,-14
3315.882,306,-164,16340,-2180,-2,-36,-14
3315.882,307,-196,16340,-2188,-51,-36,11
3324.1200000000003,307,-196,16340,-2188,-51,-36,11
3324.1200000000003,307,-196,16340,-2188,-51,-36,11
3324.1200000000003,307,-196,16340,-2188,-51,-36,11
3334.177,307,-196,16340,-2188,-51,-36,11
3334.623,307,-196,16340,-2188,-51,-36,11
3334.623,307,-196,16340,-2188,-51,-36,11
3340.895,307,-160,16308,-2192,-42,-37,-12
3342.9410000000003,307,-160,16308,-2192,-42,-37,-12
3342.9410000000003,308,-160,16308,-2192,-42,-37,-12
3349.29,307,-160,16308,-2192,-42,-37,-12
3349.29,307,-160,16308,-2192,-42,-37,-12
3349.29,307,-160,16308,-2192,-42,-37,-12
3357.687,307,-160,16308,-2192,-42,-37,-12
3357.687,307,-204,16348,-2196,-15,-30,0
3357.687,308,-204,16348,-2196,-15,-30,0
3367.004,308,-204,16348,-2196,-15,-30,0
3370.722,308,-204,16348,-2196,-15,-30,0
3370.722,307,-204,16348,-2196,-15,-30,0
3375.8979999999997,307,-204,16348,-2196,-15,-30,0
3375.8979999999997,307,-204,16348,-2196,-15,-30,0
3375.8979999999997,308,-204,16348,-2196,-15,-30,0
3383.3540000000003,307,-184,16344,-2212,-34,-36,-14
3385.005,307,-184,16344,-2212,-34,-36,-14
3389.798,307,-184,16344,-2212,-34,-36,-14
3391.817,308,-184,16344,-2212,-34,-36,-14
3391.817,307,-184,16344,-2212,-34,-36,-14
3398.1180000000004,306,-184,16344,-2212,-34,-36,-14
3398.1180000000004,307,-180,16340,-2212,-37,-28,-5
3398.1180000000004,308,-180,16340,-2212,-37,-28,-5
3406.3819999999996,308,-180,16340,-2212,-37,-28,-5
3406.3819999999996,307,-180,16340,-2212,-37,-28,-5
3406.3819999999996,307,-180,16340,-2212,-37,-28,-5
3414.5249999999996,307,-180,16340,-2212,-37,-28,-5
3414.5249999999996,307,-180,16340,-2212,-37,-28,-5
3422.552,307,-200,16392,-2208,-29,-25,-7
3424.57,308,-200,16392,-2208,-29,-25,-7
3428.601,307,-200,16392,-2208,-29,-25,-7
3428.601,307,-200,16392,-2208,-29,-25,-7
3432.8439999999996,307,-200,16392,-2208,-29,-25,-7
3436.599,307,-200,16392,-2208,-29,-25,-7
3438.9500000000003,307,-200,16392,-2208,-29,-25,-7
3440.968,307,-200,16392,-2208,-29,-25,-7
3442.9880000000003,307,-232,16368,-2188,-31,-32,20
3442.9880000000003,307,-232,16368,-2188,-31,-32,20
3447.4550000000004,307,-232,16368,-2188,-31,-32,20
3447.4550000000004,307,-232,16368,-2188,-31,-32,20
3455.732,307,-232,16368,-2188,-31,-32,20
3455.732,307,-232,16368,-2188,-31,-32,20
3455.732,307,-232,16368,-2188,-31,-32,20
3465.181,307,-160,16352,-2216,-40,-31,-27
3465.712,307,-160,16352,-2216,-40,-31,-27
3469.3900000000003,307,-160,16352,-2216,-40,-31,-27
3472.2430000000004,307,-160,16352,-2216,-40,-31,-27
3472.2430000000004,307,-160,16352,-2216,-40,-31,-27
3472.2430000000004,307,-160,16352,-2216,-40,-31,-27
3480.84,307,-232,16344,-2200,-13,-37,-4
3485.782,308,-232,16344,-2200,-13,-37,-4
3487.733,307,-232,16344,-2200,-13,-37,-4
3488.736,307,-232,16344,-2200,-13,-37,-4
3488.736,307,-232,16344,-2200,-13,-37,-4
3488.736,306,-232,16344,-2200,-13,-37,-4
3497.821,307,-232,16344,-2200,-13,-37,-4
3497.821,307,-232,16344,-2200,-13,-37,-4
3497.821,307,-232,16332,-2180,-44,-36,-19
3505.187,307,-232,16332,-2180,-44,-36,-19
3505.187,307,-232,16332,-2180,-44,-36,-19
3514.499,307,-232,16332,-2180,-44,-36,-19
3514.898,307,-232,16332,-2180,-44,-36,-19
3514.898,307,-232,16332,-2180,-44,-36,-19
3521.819,307,-196,16408,-2212,-43,-54,-17
3521.819,308,-196,16408,-2212,-43,-54,-17
3521.819,307,-196,16408,-2212,-43,-54,-17
3529.9010000000003,307,-196,16408,-2212,-43,-54,-17
3533.9939999999997,307,-196,16408,-2212,-43,-54,-17
3533.9939999999997,307,-196,16408,-2212,-43,-54,-17
3538.033,307,-196,16408,-2212,-43,-54,-17
3543.251,307,-176,16336,-2188,-19,-28,-19
3543.251,308,-176,16336,-2188,-19,-28,-19
3546.598,307,-176,16336,-2188,-19,-28,-19
3546.598,307,-176,16336,-2188,-19,-28,-19
3555.554,306,-176,16336,-2188,-19,-28,-19
3555.554,306,-176,16336,-2188,-19,-28,-19
3559.5699999999997,307,-176,16336,-2188,-19,-28,-19
3563.652,307,-176,16316,-2172,-42,-31,-5
3563.652,307,-176,16316,-2172,-42,-31,-5
3567.6929999999998,307,-176,16316,-2172,-42,-31,-5
3572.488,307,-176,16316,-2172,-42,-31,-5
3575.177,307,-176,16316,-2172,-42,-31,-5
3575.177,306,-176,16316,-2172,-42,-31,-5
3579.5530000000003,307,-176,16316,-2172,-42,-31,-5
3583.786,307,-172,16260,-2200,-44,-7,-11
3583.786,307,-172,16260,-2200,-44,-7,-11
3588.407,307,-172,16260,-2200,-44,-7,-11
3589.389,307,-172,16260,-2200,-44,-7,-11
3589.389,307,-172,16260,-2200,-44,-7,-11
3595.941,306,-172,16260,-2200,-44,-7,-11
3595.941,307,-172,16260,-2200,-44,-7,-11
3595.941,307,-184,16340,-2248,-39,-33,-15
3604.81,308,-184,16340,-2248,-39,-33,-15
3604.81,308,-184,16340,-2248,-39,-33,-15
3612.69,307,-184,16340,-2248,-39,-33,-15
3613.1389999999997,307,-184,16340,-2248,-39,-33,-15
3616.8360000000002,307,-184,16340,-2248,-39,-33,-15
3620.8830000000003,307,-184,16340,-2248,-39,-33,-15
3620.8830000000003,308,-192,16360,-2176,-28,-26,9
3620.8830000000003,308,-192,16360,-2176,-28,-26,9
3629.057,307,-192,16360,-2176,-28,-26,9
3629.057,307,-192,16360,-2176,-28,-26,9
3629.057,307,-192,16360,-2176,-28,-26,9
3638.026,307,-192,16360,-2176,-28,-26,9
3638.026,307,-192,16360,-2176,-28,-26,9
3638.026,308,-228,16344,-2208,-31,-34,-14
3645.486,308,-228,16344,-2208,-31,-34,-14
3646.346,307,-228,16344,-2208,-31,-34,-14
3646.346,307,-228,16344,-2208,-31,-34,-14
3653.683,307,-228,16344,-2208,-31,-34,-14
3656.895,307,-228,16344,-2208,-31,-34,-14
3661.902,307,-228,16344,-2208,-31,-34,-14
3661.902,307,-192,16372,-2216,-40,-27,-8
3661.902,307,-192,16372,-2216,-40,-27,-8
3669.783,307,-192,16372,-2216,-40,-27,-8
3671.408,307,-192,16372,-2216,-40,-27,-8
3671.408,307,-192,16372,-2216,-40,-27,-8
3678.2180000000003,307,-192,16372,-2216,-40,-27,-8
3678.2180000000003,307,-192,16372,-2216,-40,-27,-8
3681.825,307,-264,16340,-2188,-42,-53,-4
3686.3869999999997,308,-264,16340,-2188,-42,-53,-4
3688.482,308,-264,16340,-2188,-42,-53,-4
3688.482,307,-264,16340,-2188,-42,-53,-4
3694.556,307,-264,16340,-2188,-42,-53,-4
3696.5699999999997,307,-264,16340,-2188,-42,-53,-4
3696.5699999999997,308,-264,16340,-2188,-42,-53,-4
3702.8940000000002,308,-176,16412,-2212,-53,-31,8
3704.739,308,-176,16412,-2212,-53,-31,8
3704.739,308,-176,16412,-2212,-53,-31,8
3711.1040000000003,307,-176,16412,-2212,-53,-31,8
3711.1040000000003,307,-176,16412,-2212,-53,-31,8
3711.1040000000003,308,-176,16412,-2212,-53,-31,8
3720.384,307,-176,16412,-2212,-53,-31,8
3720.384,308,-176,16412,-2212,-53,-31,8
3720.384,307,-180,16408,-2248,-44,-40,7
3727.4280000000003,307,-180,16408,-2248,-44,-40,7
3727.4280000000003,307,-180,16408,-2248,-44,-40,7
3727.4280000000003,308,-180,16408,-2248,-44,-40,7
3735.6600000000003,307,-180,16408,-2248,-44,-40,7
3738.858,308,-180,16408,-2248,-44,-40,7
3738.858,307,-180,16408,-2248,-44,-40,7
3743.405,307,-232,16312,-2176,-49,-46,-13
3743.405,308,-232,16312,-2176,-49,-46,-13
3743.405,307,-232,16312,-2176,-49,-46,-13
3751.747,308,-232,16312,-2176,-49,-46,-13
3755.121,307,-232,16312,-2176,-49,-46,-13
3760.16,307,-232,16312,-2176,-49,-46,-13
3760.16,307,-232,16312,-2176,-49,-46,-13
3760.16,308,-208,16304,-2204,-37,-37,-15
3768.472,308,-208,16304,-2204,-37,-37,-15
3768.472,307,-208,16304,-2204,-37,-37,-15
3768.472,307,-208,16304,-2204,-37,-37,-15
3776.678,307,-208,16304,-2204,-37,-37,-15
3780.509,308,-208,16304,-2204,-37,-37,-15
3780.509,308,-208,16304,-2204,-37,-37,-15
3784.8410000000003,308,-212,16380,-2220,-21,-29,2
3787.92,307,-212,16380,-2220,-21,-29,2
3787.92,308,-212,16380,-2220,-21,-29,2
3792.943,308,-212,16380,-2220,-21,-29,2
3792.943,307,-212,16380,-2220,-21,-29,2
3792.943,307,-212,16380,-2220,-21,-29,2
3801.16,307,-212,16380,-2220,-21,-29,2
3801.16,307,-172,16396,-2216,-30,-35,-7
3801.16,308,-172,16396,-2216,-30,-35,-7
3809.5690000000004,308,-172,16396,-2216,-30,-35,-7
3813.428,308,-172,16396,-2216,-30,-35,-7
3813.428,307,-172,16396,-2216,-30,-35,-7
3817.973,307,-172,16396,-2216,-30,-35,-7
3822.391,307,-172,16396,-2216,-30,-35,-7
3822.391,308,-228,16356,-2216,-43,-42,-14
3826.406,308,-228,16356,-2216,-43,-42,-14
3826.406,308,-228,16356,-2216,-43,-42,-14
3826.406,307,-228,16356,-2216,-43,-42,-14
3834.618,307,-228,16356,-2216,-43,-42,-14
3838.767,307,-228,16356,-2216,-43,-42,-14
3842.626,307,-228,16356,-2216,-43,-42,-14
3843.644,308,-228,16328,-2176,-18,-59,-7
3843.644,307,-228,16328,-2176,-18,-59,-7
3843.644,307,-228,16328,-2176,-18,-59,-7
3850.902,307,-228,16328,-2176,-18,-59,-7
3856.215,307,-228,16328,-2176,-18,-59,-7
3859.388,307,-228,16328,-2176,-18,-59,-7
3862.591,307,-228,16328,-2176,-18,-59,-7
3862.591,308,-200,16392,-2216,-19,-26,-15
3862.591,308,-200,16392,-2216,-19,-26,-15
3868.995,308,-200,16392,-2216,-19,-26,-15
3874.505,307,-200,16392,-2216,-19,-26,-15
3876.014,307,-200,16392,-2216,-19,-26,-15
3876.014,307,-200,16392,-2216,-19,-26,-15
3876.014,307,-200,16392,-2216,-19,-26,-15
3884.401,308,-220,16352,-2252,-61,-32,-13
3886.542,308,-220,16352,-2252,-61,-32,-13
3890.6360000000004,308,-220,16352,-2252,-61,-32,-13
3892.718,307,-220,16352,-2252,-61,-32,-13
3892.718,307,-220,16352,-2252,-61,-32,-13
3892.718,308,-220,16352,-2252,-61,-32,-13
3901.56,308,-212,16336,-2248,-32,-36,-18
3904.755,307,-212,16336,-2248,-32,-36,-18
3908.35,307,-212,16336,-2248,-32,-36,-18
3911.753,307,-212,16336,-2248,-32,-36,-18
3915.344,307,-212,16336,-2248,-32,-36,-18
3915.344,307,-212,16336,-2248,-32,-36,-18
3920.126,307,-212,16336,-2248,-32,-36,-18
3921.281,307,-184,16360,-2228,-22,-46,0
3925.767,308,-184,16360,-2228,-22,-46,0
3925.767,308,-184,16360,-2228,-22,-46,0
3925.767,307,-184,16360,-2228,-22,-46,0
3934.046,307,-184,16360,-2228,-22,-46,0
3936.2050000000004,307,-184,16360,-2228,-22,-46,0
3942.285,308,-184,16360,-2228,-22,-46,0
3942.285,308,-184,16360,-2228,-22,-46,0
3943.7929999999997,308,-196,16344,-2180,-43,-35,-1
3948.617,308,-196,16344,-2180,-43,-35,-1
3950.378,307,-196,16344,-2180,-43,-35,-1
3951.993,307,-196,16344,-2180,-43,-35,-1
3956.7019999999998,306,-196,16344,-2180,-43,-35,-1
3960.9030000000002,307,-196,16344,-2180,-43,-35,-1
3960.9030000000002,308,-196,16344,-2180,-43,-35,-1
3960.9030000000002,308,-200,16380,-2176,-23,-39,-2
3969.1,307,-200,16380,-2176,-23,-39,-2
3969.1,307,-200,16380,-2176,-23,-39,-2
3974.152,308,-200,16380,-2176,-23,-39,-2
3976.655,307,-200,16380,-2176,-23,-39,-2
3976.655,307,-200,16380,-2176,-23,-39,-2
3981.403,307,-200,16380,-2176,-23,-39,-2
3983.624,307,-176,16320,-2184,-28,-38,-11
3989.7290000000003,307,-176,16320,-2184,-28,-38,-11
3991.667,307,-176,16320,-2184,-28,-38,-11
3994.119,308,-176,16320,-2184,-28,-38,-11
3994.119,307,-176,16320,-2184,-28,-38,-11
3994.119,307,-176,16320,-2184,-28,-38,-11
4000.6190000000006,307,-176,16320,-2184,-28,-38,-11
4004.893,308,-192,16308,-2180,-17,-54,-20
4009.0209999999997,308,-192,16308,-2180,-17,-54,-20
4009.0209999999997,307,-192,16308,-2180,-17,-54,-20
4009.0209999999997,307,-192,16308,-2180,-17,-54,-20
4017.8909999999996,307,-192,16308,-2180,-17,-54,-20
4017.8909999999996,307,-192,16308,-2180,-17,-54,-20
4022.5910000000003,307,-236,16364,-2172,-28,-49,-5
4024.354,307,-236,16364,-2172,-28,-49,-5
4024.354,307,-236,16364,-2172,-28,-49,-5
4024.354,308,-236,16364,-2172,-28,-49,-5
4034.586,307,-236,16364,-2172,-28,-49,-5
4038.4539999999997,307,-236,16364,-2172,-28,-49,-5
4041.0320000000006,307,-236,16364,-2172,-28,-49,-5
4043.0469999999996,307,-212,16300,-2300,-32,-43,-6
4046.2290000000003,307,-212,16300,-2300,-32,-43,-6
4046.2290000000003,307,-212,16300,-2300,-32,-43,-6
4049.738,307,-212,16300,-2300,-32,-43,-6
4055.2099999999996,307,-212,16300,-2300,-32,-43,-6
4055.2099999999996,307,-212,16300,-2300,-32,-43,-6
4057.8640000000005,307,-212,16300,-2300,-32,-43,-6
4063.0119999999997,307,-212,16300,-2300,-32,-43,-6
4067.393,308,-180,16308,-2212,-15,-48,-22
4067.393,307,-180,16308,-2212,-15,-48,-22
4067.393,307,-180,16308,-2212,-15,-48,-22
4074.4379999999996,307,-180,16308,-2212,-15,-48,-22
4074.4379999999996,307,-180,16308,-2212,-15,-48,-22
4074.4379999999996,307,-180,16308,-2212,-15,-48,-22
4081.7810000000004,307,-156,16404,-2212,-33,-24,-12
4081.7810000000004,307,-156,16404,-2212,-33,-24,-12
4088.387,307,-156,16404,-2212,-33,-24,-12
4092.5510000000004,308,-156,16404,-2212,-33,-24,-12
4092.5510000000004,307,-156,16404,-2212,-33,-24,-12
4092.5510000000004,307,-156,16404,-2212,-33,-24,-12
4099.102,307,-156,16404,-2212,-33,-24,-12
4102.218,308,-252,16336,-2184,-46,-24,-10
4108.111,307,-252,16336,-2184,-46,-24,-10
4109.163,307,-252,16336,-2184,-46,-24,-10
4109.163,307,-252,16336,-2184,-46,-24,-10
4113.717000000001,306,-252,16336,-2184,-46,-24,-10
4113.717000000001,307,-252,16336,-2184,-46,-24,-10
4121.767,307,-252,16336,-2184,-46,-24,-10
4124.577,307,-236,16356,-2240,-36,-24,-11
4127.468000000001,307,-236,16356,-2240,-36,-24,-11
4129.909,308,-236,16356,-2240,-36,-24,-11
4132.848,308,-236,16356,-2240,-36,-24,-11
4132.848,307,-236,16356,-2240,-36,-24,-11
4140.214,307,-236,16356,-2240,-36,-24,-11
4140.214,307,-236,16356,-2240,-36,-24,-11
4144.29,308,-172,16352,-2208,-35,-29,-10
4146.299,307,-172,16352,-2208,-35,-29,-10
4146.299,307,-172,16352,-2208,-35,-29,-10
4146.299,307,-172,16352,-2208,-35,-29,-10
4155.498,307,-172,16352,-2208,-35,-29,-10
4155.498,307,-172,16352,-2208,-35,-29,-10
4155.498,307,-172,16352,-2208,-35,-29,-10
4165.692,307,-232,16408,-2240,-57,-44,-33
4169.8009999999995,307,-232,16408,-2240,-57,-44,-33
4171.422,307,-232,16408,-2240,-57,-44,-33
4173.441000000001,307,-232,16408,-2240,-57,-44,-33
4175.459,306,-232,16408,-2240,-57,-44,-33
4179.394,307,-232,16408,-2240,-57,-44,-33
4182.094,307,-232,16408,-2240,-57,-44,-33
4182.094,307,-192,16360,-2244,-23,-41,-7
4188.944,308,-192,16360,-2244,-23,-41,-7
4188.944,308,-192,16360,-2244,-23,-41,-7
4188.944,307,-192,16360,-2244,-23,-41,-7
4198.447,307,-192,16360,-2244,-23,-41,-7
4198.447,307,-192,16360,-2244,-23,-41,-7
4198.447,307,-192,16360,-2244,-23,-41,-7
4206.581,307,-204,16336,-2204,-70,-29,-15
4208.426,307,-204,16336,-2204,-70,-29,-15
4210.793,307,-204,16336,-2204,-70,-29,-15
4214.843,307,-204,16336,-2204,-70,-29,-15
4218.225,307,-204,16336,-2204,-70,-29,-15
4219.237,307,-204,16336,-2204,-70,-29,-15
4223.197,307,-204,16336,-2204,-70,-29,-15
4224.794,307,-152,16340,-2196,-25,-27,-4
4227.697,308,-152,16340,-2196,-25,-27,-4
4227.697,307,-152,16340,-2196,-25,-27,-4
4227.697,307,-152,16340,-2196,-25,-27,-4
4236.9529999999995,307,-152,16340,-2196,-25,-27,-4
4238.797,307,-152,16340,-2196,-25,-27,-4
4243.475,307,-152,16340,-2196,-25,-27,-4
4247.615,307,-192,16312,-2212,-34,-26,-21
4247.615,308,-192,16312,-2212,-34,-26,-21
4247.615,307,-192,16312,-2212,-34,-26,-21
4255.092000000001,307,-192,16312,-2212,-34,-26,-21
4257.102,306,-192,16312,-2212,-34,-26,-21
4257.102,307,-192,16312,-2212,-34,-26,-21
4264.014999999999,307,-188,16380,-2240,-36,-28,-9
4264.014999999999,307,-188,16380,-2240,-36,-28,-9
4269.167,307,-188,16380,-2240,-36,-28,-9
4272.112,307,-188,16380,-2240,-36,-28,-9
4276.132,307,-188,16380,-2240,-36,-28,-9
4276.132,307,-188,16380,-2240,-36,-28,-9
4279.6630000000005,307,-188,16380,-2240,-36,-28,-9
4283.701,307,-188,16380,-2240,-36,-28,-9
4285.722,307,-228,16316,-2208,-48,-42,-19
4287.7429999999995,307,-228,16316,-2208,-48,-42,-19
4291.778,306,-228,16316,-2208,-48,-42,-19
4295.816000000001,307,-228,16316,-2208,-48,-42,-19
4297.831999999999,307,-228,16316,-2208,-48,-42,-19
4299.847,307,-228,16316,-2208,-48,-42,-19
4303.8730000000005,307,-212,16296,-2216,-44,-30,2
4305.886,307,-212,16296,-2216,-44,-30,2
4307.901,307,-212,16296,-2216,-44,-30,2
4311.9310000000005,307,-212,16296,-2216,-44,-30,2
4313.945000000001,307,-212,16296,-2216,-44,-30,2
4315.963,307,-212,16296,-2216,-44,-30,2
4319.994000000001,307,-212,16296,-2216,-44,-30,2
4322.513,307,-212,16296,-2216,-44,-30,2
4324.530000000001,306,-160,16352,-2208,-34,-34,-16
4328.311000000001,305,-160,16352,-2208,-34,-34,-16
4332.3460000000005,307,-160,16352,-2208,-34,-34,-16
4334.369,306,-160,16352,-2208,-34,-34,-16
4337.697999999999,306,-160,16352,-2208,-34,-34,-16
4341.79,305,-160,16352,-2208,-34,-34,-16
4342.805,305,-160,16352,-2208,-34,-34,-16
4344.8279999999995,304,-192,16340,-2188,-70,-49,-12
4348.852,304,-192,16340,-2188,-70,-49,-12
4352.88,305,-192,16340,-2188,-70,-49,-12
4354.8910000000005,305,-192,16340,-2188,-70,-49,-12
4357.856,305,-192,16340,-2188,-70,-49,-12
4361.386,306,-192,16340,-2188,-70,-49,-12
4363.396,306,-188,16376,-2180,-44,-34,-17
4363.396,306,-188,16376,-2180,-44,-34,-17
4367.752,306,-188,16376,-2180,-44,-34,-17
4367.752,306,-188,16376,-2180,-44,-34,-17
4367.752,305,-188,16376,-2180,-44,-34,-17
4375.8369999999995,305,-188,16376,-2180,-44,-34,-17
4381.9400000000005,306,-188,16376,-2180,-44,-34,-17
4383.95,305,-204,16408,-2172,-22,-52,19
4385.959,305,-204,16408,-2172,-22,-52,19
4388.769,305,-204,16408,-2172,-22,-52,19
4392.0289999999995,303,-204,16408,-2172,-22,-52,19
4394.0419999999995,301,-204,16408,-2172,-22,-52,19
4396.058,299,-204,16408,-2172,-22,-52,19
4400.1900000000005,299,-204,16408,-2172,-22,-52,19
4400.1900000000005,300,-220,16396,-2248,-38,-48,-19
4400.1900000000005,302,-220,16396,-2248,-38,-48,-19
4411.392,303,-220,16396,-2248,-38,-48,-19
4411.392,302,-220,16396,-2248,-38,-48,-19
4416.433,301,-220,16396,-2248,-38,-48,-19
4416.433,300,-220,16396,-2248,-38,-48,-19
4416.433,300,-220,16396,-2248,-38,-48,-19
4424.514,302,-188,16340,-2192,-48,-49,4
4424.514,303,-188,16340,-2192,-48,-49,4
4424.514,304,-188,16340,-2192,-48,-49,4
4432.622,304,-188,16340,-2192,-48,-49,4
4435.965999999999,304,-188,16340,-2192,-48,-49,4
4435.965999999999,304,-188,16340,-2192,-48,-49,4
4440.817,304,-188,16340,-2192,-48,-49,4
4440.817,305,-204,16348,-2244,-1,-30,-8
4444.968,305,-204,16348,-2244,-1,-30,-8
4449.3,305,-204,16348,-2244,-1,-30,-8
4449.3,305,-204,16348,-2244,-1,-30,-8
4449.3,305,-204,16348,-2244,-1,-30,-8
4457.623,305,-204,16348,-2244,-1,-30,-8
4457.623,306,-204,16348,-2244,-1,-30,-8
4457.623,306,-204,16348,-2244,-1,-30,-8
4466.135,305,-176,16324,-2180,-47,-39,2
4468.907999999999,306,-176,16324,-2180,-47,-39,2
4468.907999999999,306,-176,16324,-2180,-47,-39,2
4474.160000000001,304,-176,16324,-2180,-47,-39,2
4474.160000000001,304,-176,16324,-2180,-47,-39,2
4474.160000000001,304,-176,16324,-2180,-47,-39,2
4482.517,305,-176,16324,-2180,-47,-39,2
4484.528,305,-188,16384,-2188,-31,-45,-19
4486.54,304,-188,16384,-2188,-31,-45,-19
4491.534,305,-188,16384,-2188,-31,-45,-19
4491.534,304,-188,16384,-2188,-31,-45,-19
4491.534,303,-188,16384,-2188,-31,-45,-19
4499.021,303,-188,16384,-2188,-31,-45,-19
4499.021,303,-188,16384,-2188,-31,-45,-19
4499.021,303,-252,16336,-2216,-57,-34,-10
4506.834,303,-252,16336,-2216,-57,-34,-10
4506.834,304,-252,16336,-2216,-57,-34,-10
4506.834,303,-252,16336,-2216,-57,-34,-10
4517.955,303,-252,16336,-2216,-57,-34,-10
4519.3009999999995,303,-252,16336,-2216,-57,-34,-10
4523.742,303,-252,16336,-2216,-57,-34,-10
4523.742,303,-224,16368,-2180,-51,-22,-20
4523.742,304,-224,16368,-2180,-51,-22,-20
4532.044,304,-224,16368,-2180,-51,-22,-20
4532.044,304,-224,16368,-2180,-51,-22,-20
4532.044,303,-224,16368,-2180,-51,-22,-20
4540.4400000000005,302,-224,16368,-2180,-51,-22,-20
4540.4400000000005,301,-224,16368,-2180,-51,-22,-20
4545.267,302,-192,16364,-2224,2,-35,-2
4550.847,303,-192,16364,-2224,2,-35,-2
4551.47,303,-192,16364,-2224,2,-35,-2
4551.47,303,-192,16364,-2224,2,-35,-2
4557.138,303,-192,16364,-2224,2,-35,-2
4557.138,304,-192,16364,-2224,2,-35,-2
4557.138,303,-192,16364,-2224,2,-35,-2
4565.416,304,-176,16348,-2252,-42,-37,-1
4565.416,303,-176,16348,-2252,-42,-37,-1
4565.416,304,-176,16348,-2252,-42,-37,-1
4573.496999999999,303,-176,16348,-2252,-42,-37,-1
4573.496999999999,303,-176,16348,-2252,-42,-37,-1
4573.496999999999,303,-176,16348,-2252,-42,-37,-1
4581.946,302,-176,16348,-2252,-42,-37,-1
4581.946,302,-180,16364,-2212,-59,-41,-22
4581.946,303,-180,16364,-2212,-59,-41,-22
4590.45,303,-180,16364,-2212,-59,-41,-22
4592.742,303,-180,16364,-2212,-59,-41,-22
4592.742,303,-180,16364,-2212,-59,-41,-22
4598.709000000001,303,-180,16364,-2212,-59,-41,-22
4598.709000000001,303,-180,16364,-2212,-59,-41,-22
4607.738,304,-196,16352,-2224,-9,-35,-4
4608.257,303,-196,16352,-2224,-9,-35,-4
4608.257,303,-196,16352,-2224,-9,-35,-4
4608.257,300,-196,16352,-2224,-9,-35,-4
4616.963,299,-196,16352,-2224,-9,-35,-4
4621.236,300,-196,16352,-2224,-9,-35,-4
4622.531999999999,302,-196,16352,-2224,-9,-35,-4
4622.531999999999,302,-128,16340,-2216,-60,-34,-6
4622.531999999999,304,-128,16340,-2216,-60,-34,-6
4632.570000000001,304,-128,16340,-2216,-60,-34,-6
4632.570000000001,304,-128,16340,-2216,-60,-34,-6
4632.570000000001,303,-128,16340,-2216,-60,-34,-6
4639.38,303,-128,16340,-2216,-60,-34,-6
4641.535,303,-128,16340,-2216,-60,-34,-6
4645.135,304,-208,16372,-2176,-56,-28,-9
4647.5,304,-208,16372,-2176,-56,-28,-9
4647.5,304,-208,16372,-2176,-56,-28,-9
4647.5,303,-208,16372,-2176,-56,-28,-9
4655.031,305,-208,16372,-2176,-56,-28,-9
4655.031,303,-208,16372,-2176,-56,-28,-9
4661.096,303,-208,16372,-2176,-56,-28,-9
4665.603,303,-208,16388,-2172,-15,-15,-17
4669.5,304,-208,16388,-2172,-15,-15,-17
4671.592000000001,303,-208,16388,-2172,-15,-15,-17
4673.110000000001,303,-208,16388,-2172,-15,-15,-17
4675.125,302,-208,16388,-2172,-15,-15,-17
4675.125,301,-208,16388,-2172,-15,-15,-17
4681.674,302,-208,16388,-2172,-15,-15,-17
4685.697,303,-212,16380,-2188,-42,-16,4
4685.697,304,-212,16380,-2188,-42,-16,4
4690.9130000000005,304,-212,16380,-2188,-42,-16,4
4690.9130000000005,305,-212,16380,-2188,-42,-16,4
4696.0160000000005,305,-212,16380,-2188,-42,-16,4
4696.0160000000005,305,-212,16380,-2188,-42,-16,4
4696.0160000000005,303,-212,16380,-2188,-42,-16,4
4704.887000000001,303,-212,16328,-2208,-34,-38,6
4707.382,304,-212,16328,-2208,-34,-38,6
4707.382,304,-212,16328,-2208,-34,-38,6
4712.19,305,-212,16328,-2208,-34,-38,6
4712.19,305,-212,16328,-2208,-34,-38,6
4712.19,304,-212,16328,-2208,-34,-38,6
4721.787,303,-212,16328,-2208,-34,-38,6
4721.787,302,-212,16328,-2208,-34,-38,6
4725.662,302,-180,16424,-2208,6,-37,6
4725.662,302,-180,16424,-2208,6,-37,6
4731.131,303,-180,16424,-2208,6,-37,6
4731.131,303,-180,16424,-2208,6,-37,6
4731.131,303,-180,16424,-2208,6,-37,6
4737.027,302,-180,16424,-2208,6,-37,6
4740.737,301,-180,16424,-2208,6,-37,6
4740.737,302,-164,16344,-2240,-35,-26,8
4747.398999999999,303,-164,16344,-2240,-35,-26,8
4750.765,304,-164,16344,-2240,-35,-26,8
4750.765,304,-164,16344,-2240,-35,-26,8
4754.585999999999,304,-164,16344,-2240,-35,-26,8
4754.585999999999,304,-164,16344,-2240,-35,-26,8
4754.585999999999,304,-164,16344,-2240,-35,-26,8
4761.871,304,-164,16344,-2240,-35,-26,8
4761.871,305,-216,16280,-2208,-78,-24,-5
4761.871,305,-216,16280,-2208,-78,-24,-5
4770.214,306,-216,16280,-2208,-78,-24,-5
4770.214,306,-216,16280,-2208,-78,-24,-5
4770.214,307,-216,16280,-2208,-78,-24,-5
4778.523,307,-216,16280,-2208,-78,-24,-5
4778.523,306,-216,16280,-2208,-78,-24,-5
4786.929,307,-196,16384,-2200,-11,-37,-27
4786.929,304,-196,16384,-2200,-11,-37,-27
4786.929,303,-196,16384,-2200,-11,-37,-27
4795.12,305,-196,16384,-2200,-11,-37,-27
4795.12,305,-196,16384,-2200,-11,-37,-27
4799.708,306,-196,16384,-2200,-11,-37,-27
4803.479,306,-196,16384,-2200,-11,-37,-27
4806.6810000000005,307,-200,16352,-2200,-49,-45,-6
4806.6810000000005,305,-200,16352,-2200,-49,-45,-6
4811.699,304,-200,16352,-2200,-49,-45,-6
4815.351,303,-200,16352,-2200,-49,-45,-6
4817.365,303,-200,16352,-2200,-49,-45,-6
4819.943,302,-200,16352,-2200,-49,-45,-6
4822.521,303,-200,16352,-2200,-49,-45,-6
4822.521,305,-208,16372,-2256,-73,-28,-21
4828.539,307,-208,16372,-2256,-73,-28,-21
4828.539,306,-208,16372,-2256,-73,-28,-21
4837.087,306,-208,16372,-2256,-73,-28,-21
4838.543,306,-208,16372,-2256,-73,-28,-21
4838.543,306,-208,16372,-2256,-73,-28,-21
4845.317,307,-208,16372,-2256,-73,-28,-21
4845.905,307,-200,16360,-2208,2,-31,0
4845.905,307,-200,16360,-2208,2,-31,0
4853.366,307,-200,16360,-2208,2,-31,0
4853.366,307,-200,16360,-2208,2,-31,0
4853.366,306,-200,16360,-2208,2,-31,0
4861.5830000000005,307,-200,16360,-2208,2,-31,0
4861.5830000000005,307,-200,16360,-2208,2,-31,0
4861.5830000000005,307,-176,16336,-2224,-42,-42,-26
4869.7660000000005,307,-176,16336,-2224,-42,-42,-26
4869.7660000000005,307,-176,16336,-2224,-42,-42,-26
4869.7660000000005,307,-176,16336,-2224,-42,-42,-26
4878.201,307,-176,16336,-2224,-42,-42,-26
4878.201,306,-176,16336,-2224,-42,-42,-26
4882.357,306,-176,16336,-2224,-42,-42,-26
4886.26,306,-256,16356,-2184,-54,-26,-10
4887.951,308,-256,16356,-2184,-54,-26,-10
4887.951,308,-256,16356,-2184,-54,-26,-10
4894.785,308,-256,16356,-2184,-54,-26,-10
4898.901000000001,307,-256,16356,-2184,-54,-26,-10
4898.901000000001,306,-256,16356,-2184,-54,-26,-10
4903.135,308,-256,16356,-2184,-54,-26,-10
4908.058,308,-188,16304,-2232,6,-30,-6
4908.058,307,-188,16304,-2232,6,-30,-6
4911.578,307,-188,16304,-2232,6,-30,-6
4914.429,306,-188,16304,-2232,6,-30,-6
4915.534,307,-188,16304,-2232,6,-30,-6
4919.825000000001,307,-188,16304,-2232,6,-30,-6
4919.825000000001,307,-188,16304,-2232,6,-30,-6
4919.825000000001,307,-216,16300,-2184,-38,-32,-4
4927.952,307,-216,16300,-2184,-38,-32,-4
4931.638999999999,307,-216,16300,-2184,-38,-32,-4
4932.0740000000005,307,-216,16300,-2184,-38,-32,-4
4936.201,307,-216,16300,-2184,-38,-32,-4
4936.201,308,-216,16300,-2184,-38,-32,-4
4936.201,307,-216,16300,-2184,-38,-32,-4
4944.335,308,-196,16320,-2236,-71,-45,-2
4948.006,307,-196,16320,-2236,-71,-45,-2
4948.445000000001,307,-196,16320,-2236,-71,-45,-2
4952.456,308,-196,16320,-2236,-71,-45,-2
4952.456,307,-196,16320,-2236,-71,-45,-2
4960.593,307,-196,16320,-2236,-71,-45,-2
4960.593,308,-196,16320,-2236,-71,-45,-2
4964.375999999999,308,-196,16320,-2236,-71,-45,-2
4968.992,308,-224,16384,-2208,3,-38,-11
4968.992,309,-224,16384,-2208,3,-38,-11
4968.992,308,-224,16384,-2208,3,-38,-11
4968.992,308,-224,16384,-2208,3,-38,-11
4977.474,308,-224,16384,-2208,3,-38,-11
4980.764,308,-224,16384,-2208,3,-38,-11
4983.674,309,-224,16384,-2208,3,-38,-11
4986.303000000001,309,-192,16332,-2208,-81,-28,-13
4990.781,309,-192,16332,-2208,-81,-28,-13
4993.776000000001,310,-192,16332,-2208,-81,-28,-13
4996.902999999999,310,-192,16332,-2208,-81,-28,-13
4998.916,310,-192,16332,-2208,-81,-28,-13
4998.916,308,-192,16332,-2208,-81,-28,-13
5005.569,309,-192,16332,-2208,-81,-28,-13
5007.919,308,-184,16324,-2232,-53,-33,0
5009.929999999999,309,-184,16324,-2232,-53,-33,0
5011.941,309,-184,16324,-2232,-53,-33,0
5016.438,308,-184,16324,-2232,-53,-33,0
5016.438,308,-184,16324,-2232,-53,-33,0
5021.561000000001,307,-184,16324,-2232,-53,-33,0
5025.007,308,-184,16324,-2232,-53,-33,0
5026.519,308,-180,16332,-2236,-14,-28,-2
5029.901,308,-180,16332,-2236,-14,-28,-2
5029.901,309,-180,16332,-2236,-14,-28,-2
5034.777,308,-180,16332,-2236,-14,-28,-2
5035.446999999999,309,-180,16332,-2236,-14,-28,-2
5039.513,309,-180,16332,-2236,-14,-28,-2
5042.998,308,-180,16332,-2236,-14,-28,-2
5046.815,310,-216,16360,-2208,-47,-42,-8
5046.815,309,-216,16360,-2208,-47,-42,-8
5051.432,309,-216,16360,-2208,-47,-42,-8
5051.432,307,-216,16360,-2208,-47,-42,-8
5051.432,306,-216,16360,-2208,-47,-42,-8
5062.702,306,-216,16360,-2208,-47,-42,-8
5063.123,307,-216,16360,-2208,-47,-42,-8
5063.123,308,-192,16372,-2200,-33,-43,-8
5070.716,308,-192,16372,-2200,-33,-43,-8
5070.716,310,-192,16372,-2200,-33,-43,-8
5075.932,308,-192,16372,-2200,-33,-43,-8
5079.089,309,-192,16372,-2200,-33,-43,-8
5079.089,308,-192,16372,-2200,-33,-43,-8
5084.162,307,-192,16372,-2200,-33,-43,-8
5084.162,307,-248,16380,-2200,-37,-32,-16
5084.162,308,-248,16380,-2200,-37,-32,-16
5092.423,308,-248,16380,-2200,-37,-32,-16
5092.423,309,-248,16380,-2200,-37,-32,-16
5092.423,309,-248,16380,-2200,-37,-32,-16
5100.651,308,-248,16380,-2200,-37,-32,-16
5100.651,309,-248,16380,-2200,-37,-32,-16
5105.544,308,-232,16336,-2228,-3,-31,-17
5108.79,309,-232,16336,-2228,-3,-31,-17
5111.858,308,-232,16336,-2228,-3,-31,-17
5111.858,308,-232,16336,-2228,-3,-31,-17
5119.290999999999,307,-232,16336,-2228,-3,-31,-17
5119.290999999999,307,-232,16336,-2228,-3,-31,-17
5119.290999999999,309,-232,16336,-2228,-3,-31,-17
5128.407,309,-196,16416,-2180,-45,-48,-22
5128.407,309,-196,16416,-2180,-45,-48,-22
5128.407,309,-196,16416,-2180,-45,-48,-22
5136.641,308,-196,16416,-2180,-45,-48,-22
5140.22,308,-196,16416,-2180,-45,-48,-22
5142.112,309,-196,16416,-2180,-45,-48,-22
5145.155,309,-196,16416,-2180,-45,-48,-22
5146.335,309,-200,16316,-2196,-51,-33,-15
5149.586,309,-200,16316,-2196,-51,-33,-15
5149.586,309,-200,16316,-2196,-51,-33,-15
5149.586,308,-200,16316,-2196,-51,-33,-15
5159.951,309,-200,16316,-2196,-51,-33,-15
5159.951,309,-200,16316,-2196,-51,-33,-15
5159.951,308,-200,16316,-2196,-51,-33,-15
5169.39,308,-148,16332,-2228,-48,-32,1
5171.499,307,-148,16332,-2228,-48,-32,1
5173.515,307,-148,16332,-2228,-48,-32,1
5176.557,308,-148,16332,-2228,-48,-32,1
5176.557,308,-148,16332,-2228,-48,-32,1
5176.557,308,-148,16332,-2228,-48,-32,1
5185.493,308,-148,16332,-2228,-48,-32,1
5185.493,308,-272,16316,-2228,20,-44,12
5186.696000000001,308,-272,16316,-2228,20,-44,12
5193.785,308,-272,16316,-2228,20,-44,12
5194.16,307,-272,16316,-2228,20,-44,12
5194.16,307,-272,16316,-2228,20,-44,12
5201.755,306,-272,16316,-2228,20,-44,12
5201.755,308,-272,16316,-2228,20,-44,12
5205.37,308,-196,16352,-2200,-52,-29,-17
5207.1050000000005,309,-196,16352,-2200,-52,-29,-17
5207.1050000000005,309,-196,16352,-2200,-52,-29,-17
5215.2390000000005,309,-196,16352,-2200,-52,-29,-17
5215.2390000000005,309,-196,16352,-2200,-52,-29,-17
5215.2390000000005,309,-196,16352,-2200,-52,-29,-17
5223.328,309,-196,16352,-2200,-52,-29,-17
5223.328,309,-168,16324,-2208,-44,-31,-1
5223.328,309,-168,16324,-2208,-44,-31,-1
5231.448,309,-168,16324,-2208,-44,-31,-1
5231.448,308,-168,16324,-2208,-44,-31,-1
5231.448,308,-168,16324,-2208,-44,-31,-1
5241.574,308,-168,16324,-2208,-44,-31,-1
5241.574,306,-168,16324,-2208,-44,-31,-1
5246.825000000001,306,-232,16320,-2220,-26,-29,-24
5251.095,307,-232,16320,-2220,-26,-29,-24
5251.095,306,-232,16320,-2220,-26,-29,-24
5251.095,307,-232,16320,-2220,-26,-29,-24
5256.233,307,-232,16320,-2220,-26,-29,-24
5256.233,308,-232,16320,-2220,-26,-29,-24
5264.6269999999995,309,-232,16320,-2220,-26,-29,-24
5264.6269999999995,309,-184,16364,-2220,-42,-33,-3
5264.6269999999995,307,-184,16364,-2220,-42,-33,-3
5264.6269999999995,307,-184,16364,-2220,-42,-33,-3
5275.0599999999995,307,-184,16364,-2220,-42,-33,-3
5277.07,308,-184,16364,-2220,-42,-33,-3
5280.566000000001,308,-184,16364,-2220,-42,-33,-3
5280.566000000001,308,-184,16364,-2220,-42,-33,-3
5280.566000000001,308,-224,16324,-2232,-42,-22,-11
5290.904,308,-224,16324,-2232,-42,-22,-11
5290.904,307,-224,16324,-2232,-42,-22,-11
5294.354,307,-224,16324,-2232,-42,-22,-11
5297.1089999999995,307,-224,16324,-2232,-42,-22,-11
5297.1089999999995,308,-224,16324,-2232,-42,-22,-11
5297.1089999999995,309,-224,16324,-2232,-42,-22,-11
5307.585999999999,309,-152,16348,-2176,-39,-25,-1
5308.849,309,-152,16348,-2176,-39,-25,-1
5312.152,309,-152,16348,-2176,-39,-25,-1
5314.026,309,-152,16348,-2176,-39,-25,-1
5314.026,308,-152,16348,-2176,-39,-25,-1
5314.026,306,-152,16348,-2176,-39,-25,-1
5323.1,307,-152,16348,-2176,-39,-25,-1
5325.674,308,-212,16380,-2192,-43,-50,18
5325.674,308,-212,16380,-2192,-43,-50,18
5331.049,308,-212,16380,-2192,-43,-50,18
5331.049,308,-212,16380,-2192,-43,-50,18
5331.049,309,-212,16380,-2192,-43,-50,18
5339.245,308,-212,16380,-2192,-43,-50,18
5339.245,308,-212,16380,-2192,-43,-50,18
5347.175,309,-220,16300,-2196,-35,-44,12
5349.183,307,-220,16300,-2196,-35,-44,12
5353.192,307,-220,16300,-2196,-35,-44,12
5355.204,307,-220,16300,-2196,-35,-44,12
5358.362999999999,307,-220,16300,-2196,-35,-44,12
5358.362999999999,307,-220,16300,-2196,-35,-44,12
5365.982,307,-220,16300,-2196,-35,-44,12
5366.465,308,-168,16328,-2236,-19,-26,-11
5366.465,308,-168,16328,-2236,-19,-26,-11
5371.778,308,-168,16328,-2236,-19,-26,-11
5371.778,308,-168,16328,-2236,-19,-26,-11
5371.778,308,-168,16328,-2236,-19,-26,-11
5382.133,307,-168,16328,-2236,-19,-26,-11
5385.575,307,-168,16328,-2236,-19,-26,-11
5385.575,308,-156,16300,-2184,-48,-20,-9
5389.662,309,-156,16300,-2184,-48,-20,-9
5389.662,309,-156,16300,-2184,-48,-20,-9
5389.662,308,-156,16300,-2184,-48,-20,-9
5396.776,308,-156,16300,-2184,-48,-20,-9
5401.489,307,-156,16300,-2184,-48,-20,-9
5405.748,308,-156,16300,-2184,-48,-20,-9
5407.763,308,-156,16380,-2220,-25,-39,-3
5407.763,307,-156,16380,-2220,-25,-39,-3
5413.719,305,-156,16380,-2220,-25,-39,-3
5413.719,304,-156,16380,-2220,-25,-39,-3
5413.719,306,-156,16380,-2220,-25,-39,-3
5423.378,305,-156,16380,-2220,-25,-39,-3
5423.378,307,-156,16380,-2220,-25,-39,-3
5423.378,308,-140,16324,-2224,-30,-24,-16
5429.45,308,-140,16324,-2224,-30,-24,-16
5429.45,308,-140,16324,-2224,-30,-24,-16
5429.45,308,-140,16324,-2224,-30,-24,-16
5438.1630000000005,308,-140,16324,-2224,-30,-24,-16
5441.517,308,-140,16324,-2224,-30,-24,-16
5444.326,309,-140,16324,-2224,-30,-24,-16
5447.489,309,-184,16368,-2172,-36,-19,-6
5447.489,309,-184,16368,-2172,-36,-19,-6
5447.489,309,-184,16368,-2172,-36,-19,-6
5454.905,310,-184,16368,-2172,-36,-19,-6
5454.905,309,-184,16368,-2172,-36,-19,-6
5462.198,309,-184,16368,-2172,-36,-19,-6
5462.198,309,-184,16368,-2172,-36,-19,-6
5462.198,309,-180,16356,-2216,-23,-45,-13
5471.407,308,-180,16356,-2216,-23,-45,-13
5473.419,308,-180,16356,-2216,-23,-45,-13
5473.419,308,-180,16356,-2216,-23,-45,-13
5478.81,307,-180,16356,-2216,-23,-45,-13
5478.81,307,-180,16356,-2216,-23,-45,-13
5478.81,307,-180,16356,-2216,-23,-45,-13
5487.063,307,-232,16372,-2188,-37,-37,-21
5487.063,307,-232,16372,-2188,-37,-37,-21
5487.063,308,-232,16372,-2188,-37,-37,-21
5495.585,307,-232,16372,-2188,-37,-37,-21
5495.585,308,-232,16372,-2188,-37,-37,-21
5504.816,307,-232,16372,-2188,-37,-37,-21
5504.816,307,-232,16372,-2188,-37,-37,-21
5504.816,307,-204,16304,-2228,-69,-32,-10
5512.245,307,-204,16304,-2228,-69,-32,-10
5513.665,307,-204,16304,-2228,-69,-32,-10
5513.665,307,-204,16304,-2228,-69,-32,-10
5520.3150000000005,307,-204,16304,-2228,-69,-32,-10
5520.3150000000005,307,-204,16304,-2228,-69,-32,-10
5520.3150000000005,307,-204,16304,-2228,-69,-32,-10
5528.492,309,-200,16384,-2184,-1,-24,9
5530.505,308,-200,16384,-2184,-1,-24,9
5530.505,309,-200,16384,-2184,-1,-24,9
5536.794000000001,308,-200,16384,-2184,-1,-24,9
5536.794000000001,309,-200,16384,-2184,-1,-24,9
5536.794000000001,309,-200,16384,-2184,-1,-24,9
5545.34,310,-200,16384,-2184,-1,-24,9
5545.34,310,-140,16380,-2212,-12,-46,-9
5548.822999999999,310,-140,16380,-2212,-12,-46,-9
5553.4039999999995,310,-140,16380,-2212,-12,-46,-9
5556.133,310,-140,16380,-2212,-12,-46,-9
5556.133,309,-140,16380,-2212,-12,-46,-9
5561.829000000001,309,-140,16380,-2212,-12,-46,-9
5566.507,309,-140,16380,-2212,-12,-46,-9
5566.507,309,-204,16312,-2228,-71,-17,-5
5571.3460000000005,308,-204,16312,-2228,-71,-17,-5
5571.3460000000005,308,-204,16312,-2228,-71,-17,-5
5571.3460000000005,307,-204,16312,-2228,-71,-17,-5
5578.179999999999,307,-204,16312,-2228,-71,-17,-5
5582.868,306,-204,16312,-2228,-71,-17,-5
5582.868,307,-204,16312,-2228,-71,-17,-5
5586.342000000001,308,-140,16368,-2200,-22,-49,-4
5591.78,309,-140,16368,-2200,-22,-49,-4
5594.981,309,-140,16368,-2200,-22,-49,-4
5594.981,309,-140,16368,-2200,-22,-49,-4
5598.048000000001,309,-140,16368,-2200,-22,-49,-4
5603.34,310,-140,16368,-2200,-22,-49,-4
5605.5380000000005,309,-140,16368,-2200,-22,-49,-4
5607.491999999999,309,-224,16360,-2188,-20,-32,-21
5611.799999999999,309,-224,16360,-2188,-20,-32,-21
5611.799999999999,308,-224,16360,-2188,-20,-32,-21
5611.799999999999,309,-224,16360,-2188,-20,-32,-21
5620.053000000001,309,-224,16360,-2188,-20,-32,-21
5622.182,309,-224,16360,-2188,-20,-32,-21
5624.189,309,-224,16360,-2188,-20,-32,-21
5628.151,310,-176,16300,-2200,-53,-31,-8
5632.08,309,-176,16300,-2200,-53,-31,-8
5632.08,309,-176,16300,-2200,-53,-31,-8
5638.232,309,-176,16300,-2200,-53,-31,-8
5641.147,308,-176,16300,-2200,-53,-31,-8
5643.439,308,-176,16300,-2200,-53,-31,-8
5644.447999999999,309,-176,16300,-2200,-53,-31,-8
5647.997,310,-156,16376,-2232,-46,-42,-8
5652.491,310,-156,16376,-2232,-46,-42,-8
5653.63,309,-156,16376,-2232,-46,-42,-8
5657.668000000001,309,-156,16376,-2232,-46,-42,-8
5660.688999999999,308,-156,16376,-2232,-46,-42,-8
5660.688999999999,308,-156,16376,-2232,-46,-42,-8
5664.704000000001,309,-156,16376,-2232,-46,-42,-8
5669.120999999999,309,-196,16316,-2184,-26,-33,1
5671.1359999999995,309,-196,16316,-2184,-26,-33,1
5672.331,309,-196,16316,-2184,-26,-33,1
5672.331,310,-196,16316,-2184,-26,-33,1
5677.325,309,-196,16316,-2184,-26,-33,1
5678.410000000001,308,-196,16316,-2184,-26,-33,1
5685.369,309,-196,16316,-2184,-26,-33,1
5686.916,310,-224,16360,-2228,-31,-32,-4
5690.821,309,-224,16360,-2228,-31,-32,-4
5693.482,310,-224,16360,-2228,-31,-32,-4
5697.538,310,-224,16360,-2228,-31,-32,-4
5697.538,309,-224,16360,-2228,-31,-32,-4
5701.888,309,-224,16360,-2228,-31,-32,-4
5705.634,309,-224,16360,-2228,-31,-32,-4
5707.645,309,-216,16368,-2180,-45,-26,-13
5710.61,309,-216,16368,-2180,-45,-26,-13
5713.764,309,-216,16368,-2180,-45,-26,-13
5713.764,309,-216,16368,-2180,-45,-26,-13
5718.35,309,-216,16368,-2180,-45,-26,-13
5722.083,309,-216,16368,-2180,-45,-26,-13
5726.112,308,-216,16368,-2180,-45,-26,-13
5726.112,308,-208,16320,-2200,-24,-55,1
5730.336,309,-208,16320,-2200,-24,-55,1
5734.607999999999,310,-208,16320,-2200,-24,-55,1
5734.607999999999,310,-208,16320,-2200,-24,-55,1
5739.301,309,-208,16320,-2200,-24,-55,1
5742.9439999999995,309,-208,16320,-2200,-24,-55,1
5742.9439999999995,308,-208,16320,-2200,-24,-55,1
5746.749000000001,309,-208,16320,-2200,-24,-55,1
5751.333,309,-208,16336,-2208,-36,-41,-19
5751.333,309,-208,16336,-2208,-36,-41,-19
5754.978,309,-208,16336,-2208,-36,-41,-19
5759.254999999999,308,-208,16336,-2208,-36,-41,-19
5763.084,308,-208,16336,-2208,-36,-41,-19
5763.084,309,-208,16336,-2208,-36,-41,-19
5767.344999999999,309,-252,16348,-2224,-19,-37,-15
5769.357,309,-252,16348,-2224,-19,-37,-15
5772.594,308,-252,16348,-2224,-19,-37,-15
5775.567,308,-252,16348,-2224,-19,-37,-15
5779.366999999999,308,-252,16348,-2224,-19,-37,-15
5783.766,308,-252,16348,-2224,-19,-37,-15
5783.766,307,-252,16348,-2224,-19,-37,-15
5788.4349999999995,309,-196,16360,-2192,-11,-31,3
5792.161,309,-196,16360,-2192,-11,-31,3
5792.161,309,-196,16360,-2192,-11,-31,3
5794.168,308,-196,16360,-2192,-11,-31,3
5800.379000000001,308,-196,16360,-2192,-11,-31,3
5800.379000000001,308,-196,16360,-2192,-11,-31,3
5800.379000000001,309,-196,16360,-2192,-11,-31,3
5808.034000000001,309,-196,16360,-2192,-11,-31,3
5809.019,308,-248,16332,-2212,-47,-43,-10
5809.019,309,-248,16332,-2212,-47,-43,-10
5816.4490000000005,308,-248,16332,-2212,-47,-43,-10
5817.103,308,-248,16332,-2212,-47,-43,-10
5822.745,308,-248,16332,-2212,-47,-43,-10
5825.457,308,-248,16332,-2212,-47,-43,-10
5826.889999999999,308,-152,16336,-2220,-37,-42,-9
5826.889999999999,309,-152,16336,-2220,-37,-42,-9
5832.683,309,-152,16336,-2220,-37,-42,-9
5836.1720000000005,308,-152,16336,-2220,-37,-42,-9
5840.197,308,-152,16336,-2220,-37,-42,-9
5840.703,308,-152,16336,-2220,-37,-42,-9
5840.703,309,-152,16336,-2220,-37,-42,-9
5848.379000000001,309,-152,16336,-2220,-37,-42,-9
5849.909000000001,309,-256,16352,-2244,3,-44,-33
5853.195000000001,308,-256,16352,-2244,3,-44,-33
5857.299,309,-256,16352,-2244,3,-44,-33
5858.245,308,-256,16352,-2244,3,-44,-33
5858.245,308,-256,16352,-2244,3,-44,-33
5864.806,308,-256,16352,-2244,3,-44,-33
5864.806,308,-256,16352,-2244,3,-44,-33
5869.562,308,-224,16344,-2216,-67,-15,-6
5873.179999999999,308,-224,16344,-2216,-67,-15,-6
5875.1939999999995,309,-224,16344,-2216,-67,-15,-6
5876.201,307,-224,16344,-2216,-67,-15,-6
5880.9529999999995,308,-224,16344,-2216,-67,-15,-6
5882.967,307,-224,16344,-2216,-67,-15,-6
5884.983,309,-224,16344,-2216,-67,-15,-6
5889.6269999999995,309,-212,16324,-2216,-33,-30,-8
5891.638999999999,308,-212,16324,-2216,-33,-30,-8
5893.6539999999995,307,-212,16324,-2216,-33,-30,-8
5896.682,307,-212,16324,-2216,-33,-30,-8
5900.693,308,-212,16324,-2216,-33,-30,-8
5902.704,309,-212,16324,-2216,-33,-30,-8
5905.754,308,-212,16324,-2216,-33,-30,-8
5909.777,308,-208,16376,-2220,-5,-26,-12
5911.791,309,-208,16376,-2220,-5,-26,-12
5915.567,309,-208,16376,-2220,-5,-26,-12
5917.581,308,-208,16376,-2220,-5,-26,-12
5919.598,308,-208,16376,-2220,-5,-26,-12
5921.612999999999,308,-208,16376,-2220,-5,-26,-12
5926.0419999999995,308,-208,16376,-2220,-5,-26,-12
5929.819,309,-188,16312,-2200,-93,-23,-13
5931.829,308,-188,16312,-2200,-93,-23,-13
5933.844,308,-188,16312,-2200,-93,-23,-13
5937.884999999999,308,-188,16312,-2200,-93,-23,-13
5937.884999999999,308,-188,16312,-2200,-93,-23,-13
5943.795,308,-188,16312,-2200,-93,-23,-13
5945.813,308,-188,16312,-2200,-93,-23,-13
5950.902,309,-196,16380,-2216,-23,-38,-12
5952.06,308,-196,16380,-2216,-23,-38,-12
5954.46,308,-196,16380,-2216,-23,-38,-12
5958.577,308,-196,16380,-2216,-23,-38,-12
5960.587,308,-196,16380,-2216,-23,-38,-12
5962.341,309,-196,16380,-2216,-23,-38,-12
5966.366,309,-196,16380,-2216,-23,-38,-12
5968.38,310,-224,16312,-2228,-23,-19,6
5970.41,309,-224,16312,-2228,-23,-19,6
5970.41,309,-224,16312,-2228,-23,-19,6
5970.41,309,-224,16312,-2228,-23,-19,6
5978.892,308,-224,16312,-2228,-23,-19,6
5978.892,309,-224,16312,-2228,-23,-19,6
5987.316,308,-224,16312,-2228,-23,-19,6
5989.338,308,-208,16368,-2200,-72,-36,-20
5991.356,309,-208,16368,-2200,-72,-36,-20
5995.383000000001,309,-208,16368,-2200,-72,-36,-20
5998.148999999999,309,-208,16368,-2200,-72,-36,-20
5998.148999999999,308,-208,16368,-2200,-72,-36,-20
6003.677,308,-208,16368,-2200,-72,-36,-20
6008.9220000000005,309,-208,16368,-2200,-72,-36,-20
6008.9220000000005,308,-192,16360,-2140,-39,-39,-11
6012.13,308,-192,16360,-2140,-39,-39,-11
6012.13,308,-192,16360,-2140,-39,-39,-11
6012.13,308,-192,16360,-2140,-39,-39,-11
6020.296,309,-192,16360,-2140,-39,-39,-11
6020.296,310,-192,16360,-2140,-39,-39,-11
6028.875,309,-192,16360,-2140,-39,-39,-11
6028.875,309,-220,16356,-2228,-4,-35,-15
6028.875,310,-220,16356,-2228,-4,-35,-15
6037.188,309,-220,16356,-2228,-4,-35,-15
6037.188,307,-220,16356,-2228,-4,-35,-15
6037.188,308,-220,16356,-2228,-4,-35,-15
6045.299,309,-220,16356,-2228,-4,-35,-15
6045.299,309,-220,16356,-2228,-4,-35,-15
6045.299,309,-188,16340,-2216,-66,-28,-10
6053.817999999999,309,-188,16340,-2216,-66,-28,-10
6057.842,309,-188,16340,-2216,-66,-28,-10
6059.857,310,-188,16340,-2216,-66,-28,-10
6061.874000000001,308,-188,16340,-2216,-66,-28,-10
6065.896000000001,308,-188,16340,-2216,-66,-28,-10
6067.906,308,-188,16340,-2216,-66,-28,-10
6069.919,308,-208,16348,-2180,-45,-37,3
6074.495,309,-208,16348,-2180,-45,-37,3
6076.518,309,-208,16348,-2180,-45,-37,3
6078.280000000001,308,-208,16348,-2180,-45,-37,3
6078.280000000001,309,-208,16348,-2180,-45,-37,3
6078.280000000001,308,-208,16348,-2180,-45,-37,3
6086.503000000001,308,-208,16348,-2180,-45,-37,3
6086.503000000001,310,-168,16320,-2224,12,-26,-15
6086.503000000001,309,-168,16320,-2224,12,-26,-15
6094.742,309,-168,16320,-2224,12,-26,-15
6094.742,310,-168,16320,-2224,12,-26,-15
6103.2080000000005,310,-168,16320,-2224,12,-26,-15
6103.2080000000005,309,-168,16320,-2224,12,-26,-15
6105.224,309,-168,16320,-2224,12,-26,-15
6111.327,309,-204,16360,-2212,-35,-45,1
6111.327,310,-204,16360,-2212,-35,-45,1
6115.5869999999995,310,-204,16360,-2212,-35,-45,1
6119.65,309,-204,16360,-2212,-35,-45,1
6119.65,309,-204,16360,-2212,-35,-45,1
6119.65,309,-204,16360,-2212,-35,-45,1
6127.775,309,-204,16360,-2212,-35,-45,1
6127.775,310,-236,16344,-2220,-56,-32,-11
6127.775,309,-236,16344,-2220,-56,-32,-11
6135.947,309,-236,16344,-2220,-56,-32,-11
6135.947,308,-236,16344,-2220,-56,-32,-11
6135.947,309,-236,16344,-2220,-56,-32,-11
6144.402,309,-236,16344,-2220,-56,-32,-11
6144.402,309,-236,16344,-2220,-56,-32,-11
6144.402,309,-204,16292,-2208,-48,-40,-46
6152.798,309,-204,16292,-2208,-48,-40,-46
6152.798,308,-204,16292,-2208,-48,-40,-46
6152.798,308,-204,16292,-2208,-48,-40,-46
6161.188,308,-204,16292,-2208,-48,-40,-46
6161.188,308,-204,16292,-2208,-48,-40,-46
6161.188,309,-204,16292,-2208,-48,-40,-46
6170.928,308,-192,16400,-2216,-18,-50,10
6170.928,309,-192,16400,-2216,-18,-50,10
6170.928,307,-192,16400,-2216,-18,-50,10
6178.656,307,-192,16400,-2216,-18,-50,10
6178.656,307,-192,16400,-2216,-18,-50,10
6183.755999999999,307,-192,16400,-2216,-18,-50,10
6188.485,308,-192,16400,-2216,-18,-50,10
6188.485,309,-220,16420,-2208,-47,-46,-7
6188.485,308,-220,16420,-2208,-47,-46,-7
6194.312,308,-220,16420,-2208,-47,-46,-7
6194.312,308,-220,16420,-2208,-47,-46,-7
6194.312,308,-220,16420,-2208,-47,-46,-7
6202.842000000001,308,-220,16420,-2208,-47,-46,-7
6202.842000000001,307,-220,16420,-2208,-47,-46,-7
6202.842000000001,309,-220,16356,-2200,-44,-43,-1
6211.099,309,-220,16356,-2200,-44,-43,-1
6211.099,308,-220,16356,-2200,-44,-43,-1
6211.099,308,-220,16356,-2200,-44,-43,-1
6219.616,308,-220,16356,-2200,-44,-43,-1
6219.616,307,-220,16356,-2200,-44,-43,-1
6227.837,308,-220,16356,-2200,-44,-43,-1
6227.837,308,-168,16368,-2216,4,-30,-19
6227.837,308,-168,16368,-2216,4,-30,-19
6236.401,307,-168,16368,-2216,4,-30,-19
6236.401,307,-168,16368,-2216,4,-30,-19
6236.401,307,-168,16368,-2216,4,-30,-19
6244.63,307,-168,16368,-2216,4,-30,-19
6246.3769999999995,307,-168,16368,-2216,4,-30,-19
6247.47,308,-212,16400,-2212,-36,-45,4
6253.165,308,-212,16400,-2212,-36,-45,4
6255.26,308,-212,16400,-2212,-36,-45,4
6257.192,308,-212,16400,-2212,-36,-45,4
6257.192,307,-212,16400,-2212,-36,-45,4
6261.621,308,-212,16400,-2212,-36,-45,4
6265.166,308,-212,16400,-2212,-36,-45,4
6265.166,309,-184,16332,-2196,-53,-29,-12
6271.650000000001,309,-184,16332,-2196,-53,-29,-12
6273.215,308,-184,16332,-2196,-53,-29,-12
6278.9580000000005,308,-184,16332,-2196,-53,-29,-12
6278.9580000000005,308,-184,16332,-2196,-53,-29,-12
6278.9580000000005,308,-184,16332,-2196,-53,-29,-12
6286.101000000001,308,-184,16332,-2196,-53,-29,-12
6288.551,308,-228,16284,-2212,-42,-57,3
6290.097000000001,308,-228,16284,-2212,-42,-57,3
6294.119000000001,309,-228,16284,-2212,-42,-57,3
6296.13,308,-228,16284,-2212,-42,-57,3
6298.137,307,-228,16284,-2212,-42,-57,3
6302.339,307,-228,16284,-2212,-42,-57,3
6304.584,307,-228,16284,-2212,-42,-57,3
6305.6140000000005,307,-228,16284,-2212,-42,-57,3
6310.498,308,-156,16328,-2236,-47,-32,-16
6310.498,306,-156,16328,-2236,-47,-32,-16
6310.498,306,-156,16328,-2236,-47,-32,-16
6319.014,307,-156,16328,-2236,-47,-32,-16
6321.286,306,-156,16328,-2236,-47,-32,-16
6321.286,306,-156,16328,-2236,-47,-32,-16
6328.423,307,-156,16328,-2236,-47,-32,-16
6332.235,307,-176,16316,-2268,-32,-39,-8
6332.235,308,-176,16316,-2268,-32,-39,-8
6335.275000000001,307,-176,16316,-2268,-32,-39,-8
6340.82,308,-176,16316,-2268,-32,-39,-8
6343.775,307,-176,16316,-2268,-32,-39,-8
6344.865000000001,307,-176,16316,-2268,-32,-39,-8
6344.865000000001,307,-176,16316,-2268,-32,-39,-8
6351.473999999999,308,-216,16368,-2200,-17,-46,-22
6351.473999999999,307,-216,16368,-2200,-17,-46,-22
6356.398999999999,308,-216,16368,-2200,-17,-46,-22
6359.573,307,-216,16368,-2200,-17,-46,-22
6359.573,309,-216,16368,-2200,-17,-46,-22
6359.573,307,-216,16368,-2200,-17,-46,-22
6368.005,308,-180,16344,-2252,-46,-29,-3
6371.601,307,-180,16344,-2252,-46,-29,-3
6371.601,308,-180,16344,-2252,-46,-29,-3
6376.415,308,-180,16344,-2252,-46,-29,-3
6376.415,307,-180,16344,-2252,-46,-29,-3
6376.415,307,-180,16344,-2252,-46,-29,-3
6385.549,308,-180,16344,-2252,-46,-29,-3
6385.549,308,-188,16348,-2180,-39,-23,-7
6391.049,309,-188,16348,-2180,-39,-23,-7
6393.644,308,-188,16348,-2180,-39,-23,-7
6397.9439999999995,307,-188,16348,-2180,-39,-23,-7
6401.002,308,-188,16348,-2180,-39,-23,-7
6401.002,307,-188,16348,-2180,-39,-23,-7
6401.002,307,-188,16348,-2180,-39,-23,-7
6409.376,307,-188,16348,-2180,-39,-23,-7
6409.376,306,-244,16316,-2216,-16,-32,-14
6409.376,307,-244,16316,-2216,-16,-32,-14
6417.561,307,-244,16316,-2216,-16,-32,-14
6417.561,307,-244,16316,-2216,-16,-32,-14
6423.241,307,-244,16316,-2216,-16,-32,-14
6425.848,307,-244,16316,-2216,-16,-32,-14
6425.848,308,-192,16336,-2196,-29,-26,-4
6425.848,308,-192,16336,-2196,-29,-26,-4
6434.74,308,-192,16336,-2196,-29,-26,-4
6434.74,307,-192,16336,-2196,-29,-26,-4
6440.648,307,-192,16336,-2196,-29,-26,-4
6442.4169999999995,308,-192,16336,-2196,-29,-26,-4
6442.4169999999995,308,-192,16336,-2196,-29,-26,-4
6442.4169999999995,308,-172,16392,-2240,-50,-30,-11
6451.5779999999995,308,-172,16392,-2240,-50,-30,-11
6454.048000000001,308,-172,16392,-2240,-50,-30,-11
6459.299,308,-172,16392,-2240,-50,-30,-11
6460.916,308,-172,16392,-2240,-50,-30,-11
6460.916,308,-172,16392,-2240,-50,-30,-11
6467.6140000000005,308,-172,16392,-2240,-50,-30,-11
6467.6140000000005,309,-172,16348,-2192,-37,-25,-22
6472.799,309,-172,16348,-2192,-37,-25,-22
6476.044,309,-172,16348,-2192,-37,-25,-22
6479.898,308,-172,16348,-2192,-37,-25,-22
6479.898,308,-172,16348,-2192,-37,-25,-22
6484.273,308,-172,16348,-2192,-37,-25,-22
6488.534,309,-172,16348,-2192,-37,-25,-22
6489.672,309,-220,16332,-2260,-17,-46,-14
6492.396000000001,308,-220,16332,-2260,-17,-46,-14
6496.24,309,-220,16332,-2260,-17,-46,-14
6500.351000000001,308,-220,16332,-2260,-17,-46,-14
6500.351000000001,308,-220,16332,-2260,-17,-46,-14
6505.095,308,-220,16332,-2260,-17,-46,-14
6508.577,309,-220,16332,-2260,-17,-46,-14
6508.577,308,-236,16428,-2168,-40,-36,-10
6508.577,309,-236,16428,-2168,-40,-36,-10
6516.7339999999995,308,-236,16428,-2168,-40,-36,-10
6516.7339999999995,308,-236,16428,-2168,-40,-36,-10
6522.721,308,-236,16428,-2168,-40,-36,-10
6526.015,308,-236,16428,-2168,-40,-36,-10
6527.933,308,-236,16428,-2168,-40,-36,-10
6530.14,307,-228,16332,-2280,-35,-34,-6
6532.893999999999,307,-228,16332,-2280,-35,-34,-6
6538.366,307,-228,16332,-2280,-35,-34,-6
6541.265,307,-228,16332,-2280,-35,-34,-6
6541.265,307,-228,16332,-2280,-35,-34,-6
6541.265,308,-228,16332,-2280,-35,-34,-6
6549.482,307,-228,16332,-2280,-35,-34,-6
6551.583,308,-224,16288,-2200,-47,-44,-18
6554.663,308,-224,16288,-2200,-47,-44,-18
6557.682,308,-224,16288,-2200,-47,-44,-18
6557.682,308,-224,16288,-2200,-47,-44,-18
6561.777,308,-224,16288,-2200,-47,-44,-18
6566.075,308,-224,16288,-2200,-47,-44,-18
6566.075,308,-224,16288,-2200,-47,-44,-18
6573.057000000001,308,-220,16336,-2196,-17,-49,-19
6574.575000000001,309,-220,16336,-2196,-17,-49,-19
6576.32,308,-220,16336,-2196,-17,-49,-19
6576.32,308,-220,16336,-2196,-17,-49,-19
6582.684,307,-220,16336,-2196,-17,-49,-19
6582.684,308,-220,16336,-2196,-17,-49,-19
6590.415,308,-220,16336,-2196,-17,-49,-19
6590.415,308,-172,16388,-2220,-28,-21,-12
6593.4400000000005,308,-172,16388,-2220,-28,-21,-12
6598.4619999999995,307,-172,16388,-2220,-28,-21,-12
6598.4619999999995,308,-172,16388,-2220,-28,-21,-12
6598.4619999999995,307,-172,16388,-2220,-28,-21,-12
6606.642,308,-172,16388,-2220,-28,-21,-12
6610.867,309,-208,16344,-2176,-74,-25,-4
6610.867,307,-208,16344,-2176,-74,-25,-4
6614.962,307,-208,16344,-2176,-74,-25,-4
6614.962,306,-208,16344,-2176,-74,-25,-4
6614.962,306,-208,16344,-2176,-74,-25,-4
6623.242,307,-208,16344,-2176,-74,-25,-4
6623.242,307,-208,16344,-2176,-74,-25,-4
6623.242,307,-208,16344,-2176,-74,-25,-4
6631.415,307,-192,16308,-2172,-17,-41,-5
6635.527,307,-192,16308,-2172,-17,-41,-5
6638.967,306,-192,16308,-2172,-17,-41,-5
6640.227999999999,306,-192,16308,-2172,-17,-41,-5
6643.599,307,-192,16308,-2172,-17,-41,-5
6647.741,307,-192,16308,-2172,-17,-41,-5
6648.1089999999995,308,-192,16308,-2172,-17,-41,-5
6651.841,308,-228,16344,-2212,-19,-50,-32
6655.8060000000005,308,-228,16344,-2212,-19,-50,-32
6656.489,307,-228,16344,-2212,-19,-50,-32
6656.489,307,-228,16344,-2212,-19,-50,-32
6664.104,307,-228,16344,-2212,-19,-50,-32
6664.104,308,-228,16344,-2212,-19,-50,-32
6664.104,307,-220,16384,-2200,-54,-41,4
6673.245,307,-220,16384,-2200,-54,-41,4
6676.861,307,-220,16384,-2200,-54,-41,4
6676.861,307,-220,16384,-2200,-54,-41,4
6680.378,308,-220,16384,-2200,-54,-41,4
6684.659,308,-220,16384,-2200,-54,-41,4
6685.171,307,-220,16384,-2200,-54,-41,4
6689.307000000001,307,-220,16384,-2200,-54,-41,4
6689.816000000001,307,-216,16416,-2168,-24,-38,-2
6694.397999999999,308,-216,16416,-2168,-24,-38,-2
6696.793000000001,307,-216,16416,-2168,-24,-38,-2
6699.683,307,-216,16416,-2168,-24,-38,-2
6701.692999999999,307,-216,16416,-2168,-24,-38,-2
6705.777999999999,307,-216,16416,-2168,-24,-38,-2
6705.777999999999,307,-216,16416,-2168,-24,-38,-2
6713.185,307,-216,16300,-2208,-12,-50,-14
6713.185,307,-216,16300,-2208,-12,-50,-14
6713.185,307,-216,16300,-2208,-12,-50,-14
6721.573,308,-216,16300,-2208,-12,-50,-14
6721.573,308,-216,16300,-2208,-12,-50,-14
6721.573,307,-216,16300,-2208,-12,-50,-14
6729.633,308,-216,16300,-2208,-12,-50,-14
6733.787,309,-180,16356,-2156,-69,-47,-5
6733.787,308,-180,16356,-2156,-69,-47,-5
6737.773,307,-180,16356,-2156,-69,-47,-5
6737.773,308,-180,16356,-2156,-69,-47,-5
6737.773,308,-180,16356,-2156,-69,-47,-5
6745.787,307,-180,16356,-2156,-69,-47,-5
6749.942,308,-180,16356,-2156,-69,-47,-5
6752.076,309,-256,16348,-2236,-29,-43,-26
6754.802,308,-256,16348,-2236,-29,-43,-26
6754.802,308,-256,16348,-2236,-29,-43,-26
6761.997,308,-256,16348,-2236,-29,-43,-26
6762.692999999999,308,-256,16348,-2236,-29,-43,-26
6767.1089999999995,307,-256,16348,-2236,-29,-43,-26
6770.316,308,-256,16348,-2236,-29,-43,-26
6770.316,308,-244,16336,-2232,-27,-38,-23
6773.634,308,-244,16336,-2232,-27,-38,-23
6778.443,307,-244,16336,-2232,-27,-38,-23
6782.583,307,-244,16336,-2232,-27,-38,-23
6782.583,308,-244,16336,-2232,-27,-38,-23
6787.553,308,-244,16336,-2232,-27,-38,-23
6788.538,308,-156,16332,-2216,-66,-42,-8
6788.538,309,-156,16332,-2216,-66,-42,-8
6794.871999999999,308,-156,16332,-2216,-66,-42,-8
6794.871999999999,309,-156,16332,-2216,-66,-42,-8
6794.871999999999,308,-156,16332,-2216,-66,-42,-8
6803.009999999999,308,-156,16332,-2216,-66,-42,-8
6805.746,308,-156,16332,-2216,-66,-42,-8
6810.735000000001,309,-192,16284,-2164,-34,-46,-17
6810.735000000001,308,-192,16284,-2164,-34,-46,-17
6810.735000000001,309,-192,16284,-2164,-34,-46,-17
6819.324,308,-192,16284,-2164,-34,-46,-17
6819.324,307,-192,16284,-2164,-34,-46,-17
6822.398,307,-192,16284,-2164,-34,-46,-17
6828.0289999999995,307,-192,16284,-2164,-34,-46,-17
6828.525,308,-228,16408,-2252,2,-41,-4
6828.525,308,-228,16408,-2252,2,-41,-4
6835.866,309,-228,16408,-2252,2,-41,-4
6835.866,309,-228,16408,-2252,2,-41,-4
6840.768,307,-228,16408,-2252,2,-41,-4
6844.035,307,-228,16408,-2252,2,-41,-4
6844.035,308,-228,16408,-2252,2,-41,-4
6844.035,307,-228,16408,-2252,2,-41,-4
6852.817,309,-188,16356,-2236,-71,-38,5
6852.817,308,-188,16356,-2236,-71,-38,5
6856.867,307,-188,16356,-2236,-71,-38,5
6860.415,308,-188,16356,-2236,-71,-38,5
6860.415,307,-188,16356,-2236,-71,-38,5
6860.415,307,-188,16356,-2236,-71,-38,5
6868.588,308,-188,16356,-2236,-71,-38,5
6868.588,307,-192,16308,-2192,-37,-40,-1
6872.358,308,-192,16308,-2192,-37,-40,-1
6876.733,307,-192,16308,-2192,-37,-40,-1
6880.726000000001,307,-192,16308,-2192,-37,-40,-1
6881.768,307,-192,16308,-2192,-37,-40,-1
6884.925,306,-192,16308,-2192,-37,-40,-1
6887.943,307,-192,16308,-2192,-37,-40,-1
6890.004,308,-240,16336,-2232,13,-42,-8
6892.6990000000005,307,-240,16336,-2232,13,-42,-8
6896.89,308,-240,16336,-2232,13,-42,-8
6896.89,307,-240,16336,-2232,13,-42,-8
6900.874,307,-240,16336,-2232,13,-42,-8
6905.326999999999,308,-240,16336,-2232,13,-42,-8
6905.326999999999,306,-240,16336,-2232,13,-42,-8
6909.102,306,-228,16340,-2212,-40,-21,0
6909.102,307,-228,16340,-2212,-40,-21,0
6909.102,307,-228,16340,-2212,-40,-21,0
6917.418,307,-228,16340,-2212,-40,-21,0
6921.237999999999,306,-228,16340,-2212,-40,-21,0
6923.239,307,-228,16340,-2212,-40,-21,0
6926.032,306,-228,16340,-2212,-40,-21,0
6926.032,307,-228,16340,-2212,-40,-21,0
6926.032,308,-224,16296,-2184,-53,-35,1
6934.519,308,-224,16296,-2184,-53,-35,1
6934.519,307,-224,16296,-2184,-53,-35,1
6934.519,307,-224,16296,-2184,-53,-35,1
6942.781,307,-224,16296,-2184,-53,-35,1
6942.781,307,-224,16296,-2184,-53,-35,1
6942.781,307,-224,16296,-2184,-53,-35,1
6950.991,308,-180,16284,-2204,-12,-31,-9
6952.508,308,-180,16284,-2204,-12,-31,-9
6955.426,307,-180,16284,-2204,-12,-31,-9
6959.06,307,-180,16284,-2204,-12,-31,-9
6959.06,307,-180,16284,-2204,-12,-31,-9
6967.336,307,-180,16284,-2204,-12,-31,-9
6967.336,308,-180,16284,-2204,-12,-31,-9
6967.336,308,-188,16300,-2216,-15,-43,14
6975.411,308,-188,16300,-2216,-15,-43,14
6975.411,307,-188,16300,-2216,-15,-43,14
6975.411,307,-188,16300,-2216,-15,-43,14
6983.705,307,-188,16300,-2216,-15,-43,14
6984.927,307,-188,16300,-2216,-15,-43,14
6988.547,307,-188,16300,-2216,-15,-43,14
6992.643,308,-208,16388,-2212,-47,-47,-17
6995.941,308,-208,16388,-2212,-47,-47,-17
6995.941,307,-208,16388,-2212,-47,-47,-17
7000.661,306,-208,16388,-2212,-47,-47,-17
7000.661,307,-208,16388,-2212,-47,-47,-17
7006.464,307,-208,16388,-2212,-47,-47,-17
7008.353999999999,307,-208,16388,-2212,-47,-47,-17
7008.353999999999,307,-216,16312,-2216,-72,-49,-5
7016.4400000000005,307,-216,16312,-2216,-72,-49,-5
7016.853,308,-216,16312,-2216,-72,-49,-5
7016.853,307,-216,16312,-2216,-72,-49,-5
7024.733,307,-216,16312,-2216,-72,-49,-5
7024.733,308,-216,16312,-2216,-72,-49,-5
7024.733,308,-216,16312,-2216,-72,-49,-5
7032.756,308,-192,16340,-2224,-4,-18,-17
7032.756,308,-192,16340,-2224,-4,-18,-17
7032.756,308,-192,16340,-2224,-4,-18,-17
7040.903,307,-192,16340,-2224,-4,-18,-17
7040.903,307,-192,16340,-2224,-4,-18,-17
7040.903,307,-192,16340,-2224,-4,-18,-17
7049.224999999999,307,-192,16340,-2224,-4,-18,-17
7052.7660000000005,307,-212,16392,-2212,-37,-32,-9
7052.7660000000005,308,-212,16392,-2212,-37,-32,-9
7057.336,308,-212,16392,-2212,-37,-32,-9
7061.512,307,-212,16392,-2212,-37,-32,-9
7061.512,307,-212,16392,-2212,-37,-32,-9
7065.499,307,-212,16392,-2212,-37,-32,-9
7069.672,308,-212,16392,-2212,-37,-32,-9
7069.672,307,-196,16360,-2180,-81,-44,-8
7073.764999999999,308,-196,16360,-2180,-81,-44,-8
7073.764999999999,308,-196,16360,-2180,-81,-44,-8
7073.764999999999,308,-196,16360,-2180,-81,-44,-8
7081.969,307,-196,16360,-2180,-81,-44,-8
7081.969,308,-196,16360,-2180,-81,-44,-8
7089.558,308,-196,16360,-2180,-81,-44,-8
7091.594,307,-220,16332,-2180,-24,-44,-9
7092.032999999999,307,-220,16332,-2180,-24,-44,-9
7097.68,307,-220,16332,-2180,-24,-44,-9
7097.68,307,-220,16332,-2180,-24,-44,-9
7097.68,308,-220,16332,-2180,-24,-44,-9
7105.5650000000005,308,-220,16332,-2180,-24,-44,-9
7107.751,307,-220,16332,-2180,-24,-44,-9
7110.5380000000005,307,-220,16340,-2184,-2,-30,-7
7113.883000000001,307,-220,16340,-2184,-2,-30,-7
7115.8910000000005,307,-220,16340,-2184,-2,-30,-7
7115.8910000000005,307,-220,16340,-2184,-2,-30,-7
7122.319,308,-220,16340,-2184,-2,-30,-7
7123.678,307,-220,16340,-2184,-2,-30,-7
7124.273999999999,307,-220,16340,-2184,-2,-30,-7
7131.293000000001,308,-220,16340,-2184,-2,-30,-7
7132.003,307,-172,16316,-2192,-84,-34,-11
7132.003,308,-172,16316,-2192,-84,-34,-11
7139.418,307,-172,16316,-2192,-84,-34,-11
7143.116,307,-172,16316,-2192,-84,-34,-11
7143.116,307,-172,16316,-2192,-84,-34,-11
7147.487,307,-172,16316,-2192,-84,-34,-11
7147.487,308,-184,16284,-2204,-25,-49,-13
7152.974999999999,308,-184,16284,-2204,-25,-49,-13
7155.851000000001,308,-184,16284,-2204,-25,-49,-13
7155.851000000001,307,-184,16284,-2204,-25,-49,-13
7163.98,308,-184,16284,-2204,-25,-49,-13
7164.509,308,-184,16284,-2204,-25,-49,-13
7164.509,307,-184,16284,-2204,-25,-49,-13
7172.145,307,-236,16380,-2224,19,-37,3
7172.145,308,-236,16380,-2224,19,-37,3
7174.064,308,-236,16380,-2224,19,-37,3
7179.820000000001,307,-236,16380,-2224,19,-37,3
7179.820000000001,307,-236,16380,-2224,19,-37,3
7182.247,307,-236,16380,-2224,19,-37,3
7187.893,308,-236,16380,-2224,19,-37,3
7187.893,307,-236,16380,-2224,19,-37,3
7191.830000000001,307,-172,16424,-2236,-77,-46,-18
7196.124,307,-172,16424,-2236,-77,-46,-18
7196.124,307,-172,16424,-2236,-77,-46,-18
7196.124,306,-172,16424,-2236,-77,-46,-18
7204.63,307,-172,16424,-2236,-77,-46,-18
7205.968000000001,307,-172,16424,-2236,-77,-46,-18
7205.968000000001,308,-172,16424,-2236,-77,-46,-18
7212.9529999999995,307,-192,16288,-2192,-38,-40,-10
7217.285000000001,307,-192,16288,-2192,-38,-40,-10
7218.115,307,-192,16288,-2192,-38,-40,-10
7220.752,307,-192,16288,-2192,-38,-40,-10
7220.752,307,-192,16288,-2192,-38,-40,-10
7229.026,307,-192,16288,-2192,-38,-40,-10
7230.161,307,-192,16288,-2192,-38,-40,-10
7230.161,307,-196,16332,-2200,28,-36,1
7237.037,307,-196,16332,-2200,28,-36,1
7238.823,307,-196,16332,-2200,28,-36,1
7239.530000000001,306,-196,16332,-2200,28,-36,1
7245.253,306,-196,16332,-2200,28,-36,1
7247.262,307,-196,16332,-2200,28,-36,1
7249.952,307,-196,16332,-2200,28,-36,1
7254.524,308,-212,16364,-2220,-109,-38,-16
7256.053,308,-212,16364,-2220,-109,-38,-16
7256.053,307,-212,16364,-2220,-109,-38,-16
7261.335,307,-212,16364,-2220,-109,-38,-16
7261.335,307,-212,16364,-2220,-109,-38,-16
7261.335,307,-212,16364,-2220,-109,-38,-16
7269.873,307,-212,16364,-2220,-109,-38,-16
7271.88,307,-224,16348,-2180,-56,-55,-5
7271.88,307,-224,16348,-2180,-56,-55,-5
7278.028,307,-224,16348,-2180,-56,-55,-5
7278.028,305,-224,16348,-2180,-56,-55,-5
7278.028,306,-224,16348,-2180,-56,-55,-5
7286.506,306,-224,16348,-2180,-56,-55,-5
7290.188,307,-224,16348,-2180,-56,-55,-5
7294.95,306,-212,16388,-2228,25,-45,-20
7294.95,307,-212,16388,-2228,25,-45,-20
7294.95,307,-212,16388,-2228,25,-45,-20
7303.338,306,-212,16388,-2228,25,-45,-20
7305.512000000001,307,-212,16388,-2228,25,-45,-20
7307.66,307,-212,16388,-2228,25,-45,-20
7307.66,307,-212,16388,-2228,25,-45,-20
7311.639,308,-168,16384,-2236,-107,-47,-6
7315.45,307,-168,16384,-2236,-107,-47,-6
7320.032,307,-168,16384,-2236,-107,-47,-6
7322.6269999999995,308,-168,16384,-2236,-107,-47,-6
7322.6269999999995,307,-168,16384,-2236,-107,-47,-6
7328.116,307,-168,16384,-2236,-107,-47,-6
7330.208,307,-168,16384,-2236,-107,-47,-6
7332.224,307,-180,16300,-2220,-64,-52,-6
7336.4580000000005,307,-180,16300,-2220,-64,-52,-6
7339.708,307,-180,16300,-2220,-64,-52,-6
7339.708,307,-180,16300,-2220,-64,-52,-6
7344.75,307,-180,16300,-2220,-64,-52,-6
7347.667,306,-180,16300,-2220,-64,-52,-6
7351.652,308,-180,16300,-2220,-64,-52,-6
7353.162,308,-196,16316,-2236,31,-24,-10
7357.1720000000005,308,-196,16316,-2236,31,-24,-10
7359.886,308,-196,16316,-2236,31,-24,-10
7359.886,307,-196,16316,-2236,31,-24,-10
7361.639,307,-196,16316,-2236,31,-24,-10
7361.639,307,-196,16316,-2236,31,-24,-10
7361.639,307,-196,16316,-2236,31,-24,-10
7372.117,308,-240,16364,-2264,-79,-32,-24
7374.13,308,-240,16364,-2264,-79,-32,-24
7380.969999999999,308,-240,16364,-2264,-79,-32,-24
7381.914,307,-240,16364,-2264,-79,-32,-24
7381.914,307,-240,16364,-2264,-79,-32,-24
7387.945000000001,307,-240,16364,-2264,-79,-32,-24
7391.728999999999,308,-240,16364,-2264,-79,-32,-24
7391.728999999999,307,-192,16332,-2188,-47,-24,-21
7394.677,307,-192,16332,-2188,-47,-24,-21
7398.992,308,-192,16332,-2188,-47,-24,-21
7398.992,307,-192,16332,-2188,-47,-24,-21
7406.2029999999995,308,-192,16332,-2188,-47,-24,-21
7409.544000000001,308,-192,16332,-2188,-47,-24,-21
7409.544000000001,307,-172,16300,-2216,1,-34,-4
7411.298000000001,308,-172,16300,-2216,1,-34,-4
7411.298000000001,308,-172,16300,-2216,1,-34,-4
7411.298000000001,307,-172,16300,-2216,1,-34,-4
7421.504,307,-172,16300,-2216,1,-34,-4
7422.5830000000005,307,-172,16300,-2216,1,-34,-4
7422.5830000000005,307,-172,16300,-2216,1,-34,-4
7429.942999999999,307,-172,16300,-2216,1,-34,-4
7433.51,308,-156,16292,-2248,-40,-41,-18
7433.51,307,-156,16292,-2248,-40,-41,-18
7440.083,307,-156,16292,-2248,-40,-41,-18
7441.039,308,-156,16292,-2248,-40,-41,-18
7444.756,308,-156,16292,-2248,-40,-41,-18
7444.756,307,-156,16292,-2248,-40,-41,-18
7444.756,307,-156,16292,-2248,-40,-41,-18
7454.79,308,-196,16368,-2208,-65,-32,-4
7456.052,308,-196,16368,-2208,-65,-32,-4
7456.879,307,-196,16368,-2208,-65,-32,-4
7462.907999999999,307,-196,16368,-2208,-65,-32,-4
7462.907999999999,308,-196,16368,-2208,-65,-32,-4
7462.907999999999,308,-196,16368,-2208,-65,-32,-4
7468.9529999999995,308,-196,16368,-2208,-65,-32,-4
7472.597000000001,308,-204,16372,-2192,-18,-54,-17
7472.597000000001,308,-204,16372,-2192,-18,-54,-17
7479.017,307,-204,16372,-2192,-18,-54,-17
7483.137,307,-204,16372,-2192,-18,-54,-17
7483.137,307,-204,16372,-2192,-18,-54,-17
7488.036,307,-204,16372,-2192,-18,-54,-17
7490.054,307,-204,16372,-2192,-18,-54,-17
7493.155,307,-212,16328,-2208,-30,-33,2
7494.6900000000005,308,-212,16328,-2208,-30,-33,2
7494.6900000000005,307,-212,16328,-2208,-30,-33,2
7494.6900000000005,307,-212,16328,-2208,-30,-33,2
7504.768,307,-212,16328,-2208,-30,-33,2
7506.85,308,-212,16328,-2208,-30,-33,2
7509.207,308,-212,16328,-2208,-30,-33,2
7511.098,308,-212,16268,-2180,-59,-15,-4
7511.098,308,-212,16268,-2180,-59,-15,-4
7519.688,308,-212,16268,-2180,-59,-15,-4
7521.682,307,-212,16268,-2180,-59,-15,-4
7523.924,307,-212,16268,-2180,-59,-15,-4
7528.403,307,-212,16268,-2180,-59,-15,-4
7528.403,308,-212,16268,-2180,-59,-15,-4
7528.403,308,-216,16376,-2168,-29,-41,6
7536.570000000001,308,-216,16376,-2168,-29,-41,6
7538.968,308,-216,16376,-2168,-29,-41,6
7539.905,307,-216,16376,-2168,-29,-41,6
7544.914000000001,306,-216,16376,-2168,-29,-41,6
7544.914000000001,308,-216,16376,-2168,-29,-41,6
7548.924,308,-216,16376,-2168,-29,-41,6
7553.129,308,-176,16396,-2252,17,-27,-11
7554.259,308,-176,16396,-2252,17,-27,-11
7555.577,308,-176,16396,-2252,17,-27,-11
7561.287,307,-176,16396,-2252,17,-27,-11
7565.289,307,-176,16396,-2252,17,-27,-11
7565.289,307,-176,16396,-2252,17,-27,-11
7569.727000000001,308,-176,16396,-2252,17,-27,-11
7571.249,308,-220,16284,-2244,-96,-27,-24
7574.144,307,-220,16284,-2244,-96,-27,-24
7577.919,308,-220,16284,-2244,-96,-27,-24
7581.866,307,-220,16284,-2244,-96,-27,-24
7586.295,307,-220,16284,-2244,-96,-27,-24
7590.343,307,-220,16284,-2244,-96,-27,-24
7592.365,308,-220,16284,-2244,-96,-27,-24
7595.146,308,-196,16268,-2188,-53,-43,-6
7601.193,308,-196,16268,-2188,-53,-43,-6
7602.708,308,-196,16268,-2188,-53,-43,-6
7604.717,307,-196,16268,-2188,-53,-43,-6
7604.717,307,-196,16268,-2188,-53,-43,-6
7606.7390000000005,307,-196,16268,-2188,-53,-43,-6
7608.76,307,-196,16268,-2188,-53,-43,-6
7610.769,308,-176,16416,-2200,13,-55,-3
7614.798000000001,308,-176,16416,-2200,13,-55,-3
7618.826999999999,308,-176,16416,-2200,13,-55,-3
7618.826999999999,307,-176,16416,-2200,13,-55,-3
7622.935,307,-176,16416,-2200,13,-55,-3
7626.966,307,-176,16416,-2200,13,-55,-3
7626.966,307,-176,16416,-2200,13,-55,-3
7630.9800000000005,308,-176,16416,-2200,13,-55,-3
7635.004999999999,308,-192,16392,-2216,-94,-43,-14
7638.106,307,-192,16392,-2216,-94,-43,-14
7639.541,307,-192,16392,-2216,-94,-43,-14
7643.319,307,-192,16392,-2216,-94,-43,-14
7647.34,306,-192,16392,-2216,-94,-43,-14
7647.34,306,-192,16392,-2216,-94,-43,-14
7651.362,307,-132,16344,-2192,-58,-49,-12
7654.845,307,-132,16344,-2192,-58,-49,-12
7658.22,307,-132,16344,-2192,-58,-49,-12
7659.737,307,-132,16344,-2192,-58,-49,-12
7664.317999999999,308,-132,16344,-2192,-58,-49,-12
7667.586,307,-132,16344,-2192,-58,-49,-12
7668.101,308,-132,16344,-2192,-58,-49,-12
7672.2570000000005,307,-228,16296,-2240,13,-27,3
7676.027,308,-228,16296,-2240,13,-27,3
7676.027,308,-228,16296,-2240,13,-27,3
7680.081,307,-228,16296,-2240,13,-27,3
7684.047,307,-228,16296,-2240,13,-27,3
7684.047,308,-228,16296,-2240,13,-27,3
7684.047,307,-228,16296,-2240,13,-27,3
7692.202,308,-228,16296,-2240,13,-27,3
7694.216,308,-208,16340,-2216,-79,-39,-17
7696.228999999999,308,-208,16340,-2216,-79,-39,-17
7700.262000000001,307,-208,16340,-2216,-79,-39,-17
7700.262000000001,307,-208,16340,-2216,-79,-39,-17
7705.032,307,-208,16340,-2216,-79,-39,-17
7708.682,306,-208,16340,-2216,-79,-39,-17
7711.627,308,-208,16340,-2216,-79,-39,-17
7711.627,308,-216,16356,-2168,-33,-34,-14
7716.793,307,-216,16356,-2168,-33,-34,-14
7716.793,307,-216,16356,-2168,-33,-34,-14
7716.793,307,-216,16356,-2168,-33,-34,-14
7725.781,307,-216,16356,-2168,-33,-34,-14
7726.473999999999,307,-216,16356,-2168,-33,-34,-14
7733.149,307,-216,16356,-2168,-33,-34,-14
7734.449,309,-212,16360,-2276,-16,-42,-11
7734.449,307,-212,16360,-2276,-16,-42,-11
7741.189,307,-212,16360,-2276,-16,-42,-11
7743.773,307,-212,16360,-2276,-16,-42,-11
7743.773,307,-212,16360,-2276,-16,-42,-11
7749.311,307,-212,16360,-2276,-16,-42,-11
7753.638,307,-144,16340,-2236,-73,-34,3
7753.638,307,-144,16340,-2236,-73,-34,3
7757.6140000000005,308,-144,16340,-2236,-73,-34,3
7757.6140000000005,307,-144,16340,-2236,-73,-34,3
7757.6140000000005,306,-144,16340,-2236,-73,-34,3
7765.862,306,-144,16340,-2236,-73,-34,3
7765.862,307,-144,16340,-2236,-73,-34,3
7765.862,307,-144,16340,-2236,-73,-34,3
7774.0289999999995,307,-216,16344,-2180,-37,-33,1
7778.262,307,-216,16344,-2180,-37,-33,1
7778.262,307,-216,16344,-2180,-37,-33,1
7782.171,307,-216,16344,-2180,-37,-33,1
7782.171,307,-216,16344,-2180,-37,-33,1
7782.171,307,-216,16344,-2180,-37,-33,1
7790.407,308,-216,16344,-2180,-37,-33,1
7794.608,308,-152,16396,-2196,3,-43,-18
7794.608,308,-152,16396,-2196,3,-43,-18
7798.5509999999995,308,-152,16396,-2196,3,-43,-18
7798.5509999999995,307,-152,16396,-2196,3,-43,-18
7798.5509999999995,307,-152,16396,-2196,3,-43,-18
7806.969,307,-152,16396,-2196,3,-43,-18
7810.075000000001,308,-152,16396,-2196,3,-43,-18
7810.075000000001,307,-200,16324,-2236,-66,-26,-2
7815.543,307,-200,16324,-2236,-66,-26,-2
7815.543,307,-200,16324,-2236,-66,-26,-2
7820.986000000001,307,-200,16324,-2236,-66,-26,-2
7823.812,306,-200,16324,-2236,-66,-26,-2
7823.812,306,-200,16324,-2236,-66,-26,-2
7823.812,306,-200,16324,-2236,-66,-26,-2
7832.057,307,-180,16332,-2204,-29,-17,-2
7832.057,307,-180,16332,-2204,-29,-17,-2
7832.057,307,-180,16332,-2204,-29,-17,-2
7840.4220000000005,306,-180,16332,-2204,-29,-17,-2
7840.4220000000005,307,-180,16332,-2204,-29,-17,-2
7840.4220000000005,307,-180,16332,-2204,-29,-17,-2
7848.57,307,-180,16332,-2204,-29,-17,-2
7848.57,308,-200,16356,-2180,-2,-33,-1
7853.664,307,-200,16356,-2180,-2,-33,-1
7856.755,307,-200,16356,-2180,-2,-33,-1
7860.131,306,-200,16356,-2180,-2,-33,-1
7861.861,306,-200,16356,-2180,-2,-33,-1
7864.843,306,-200,16356,-2180,-2,-33,-1
7864.843,307,-200,16356,-2180,-2,-33,-1
7872.902,307,-200,16356,-2180,-2,-33,-1
7872.902,307,-144,16428,-2220,-66,-30,1
7872.902,307,-144,16428,-2220,-66,-30,1
7881.3240000000005,307,-144,16428,-2220,-66,-30,1
7881.3240000000005,307,-144,16428,-2220,-66,-30,1
7881.3240000000005,306,-144,16428,-2220,-66,-30,1
7881.3240000000005,306,-144,16428,-2220,-66,-30,1
7889.876,307,-144,16428,-2220,-66,-30,1
7889.876,307,-220,16308,-2228,-62,-28,-7
7889.876,307,-220,16308,-2228,-62,-28,-7
7901.167,307,-220,16308,-2228,-62,-28,-7
7901.167,307,-220,16308,-2228,-62,-28,-7
7901.167,306,-220,16308,-2228,-62,-28,-7
7908.657,307,-220,16308,-2228,-62,-28,-7
7910.67,307,-220,16308,-2228,-62,-28,-7
7912.68,307,-216,16392,-2256,-17,-18,-2
7914.786999999999,307,-216,16392,-2256,-17,-18,-2
7914.786999999999,307,-216,16392,-2256,-17,-18,-2
7922.918000000001,307,-216,16392,-2256,-17,-18,-2
7923.996,307,-216,16392,-2256,-17,-18,-2
7923.996,307,-216,16392,-2256,-17,-18,-2
7931.366,308,-216,16392,-2256,-17,-18,-2
7931.366,308,-196,16312,-2192,-27,-30,-26
7931.366,308,-196,16312,-2192,-27,-30,-26
7939.4439999999995,307,-196,16312,-2192,-27,-30,-26
7939.4439999999995,308,-196,16312,-2192,-27,-30,-26
7939.4439999999995,307,-196,16312,-2192,-27,-30,-26
7947.829,307,-196,16312,-2192,-27,-30,-26
7947.829,307,-196,16312,-2192,-27,-30,-26
7954.028,308,-216,16352,-2192,-60,-28,0
7956.053,308,-216,16352,-2192,-60,-28,0
7956.053,308,-216,16352,-2192,-60,-28,0
7956.053,307,-216,16352,-2192,-60,-28,0
7964.603999999999,309,-216,16352,-2192,-60,-28,0
7964.603999999999,308,-216,16352,-2192,-60,-28,0
7972.054,308,-216,16352,-2192,-60,-28,0
7973.322999999999,309,-224,16332,-2232,0,-52,-6
7973.322999999999,308,-224,16332,-2232,0,-52,-6
7973.322999999999,308,-224,16332,-2232,0,-52,-6
7981.46,308,-224,16332,-2232,0,-52,-6
7981.46,308,-224,16332,-2232,0,-52,-6
7981.46,307,-224,16332,-2232,0,-52,-6
7989.656,308,-224,16332,-2232,0,-52,-6
7989.656,308,-224,16332,-2232,0,-52,-6
7989.656,308,-164,16284,-2216,-65,-35,-16
7997.799,307,-164,16284,-2216,-65,-35,-16
7997.799,307,-164,16284,-2216,-65,-35,-16
7997.799,307,-164,16284,-2216,-65,-35,-16
8005.4529999999995,307,-164,16284,-2216,-65,-35,-16
8005.4529999999995,308,-164,16284,-2216,-65,-35,-16
8005.4529999999995,308,-164,16284,-2216,-65,-35,-16
8016.838,308,-168,16316,-2180,-44,-55,-14
8016.838,308,-168,16316,-2180,-44,-55,-14
8022.265000000001,307,-168,16316,-2180,-44,-55,-14
8022.265000000001,307,-168,16316,-2180,-44,-55,-14
8022.265000000001,308,-168,16316,-2180,-44,-55,-14
8031.273999999999,307,-168,16316,-2180,-44,-55,-14
8033.025000000001,307,-164,16412,-2180,-5,-42,6
8035.187000000001,308,-164,16412,-2180,-5,-42,6
8038.321,308,-164,16412,-2180,-5,-42,6
8040.35,307,-164,16412,-2180,-5,-42,6
8040.35,307,-164,16412,-2180,-5,-42,6
8040.35,307,-164,16412,-2180,-5,-42,6
8046.651000000001,307,-164,16412,-2180,-5,-42,6
8046.651000000001,307,-164,16412,-2180,-5,-42,6
8055.543,307,-176,16328,-2248,-55,-46,-9
8055.543,307,-176,16328,-2248,-55,-46,-9
8055.543,307,-176,16328,-2248,-55,-46,-9
8062.568,306,-176,16328,-2248,-55,-46,-9
8062.568,306,-176,16328,-2248,-55,-46,-9
8062.568,307,-176,16328,-2248,-55,-46,-9
8070.826,307,-176,16328,-2248,-55,-46,-9
8070.826,307,-188,16312,-2208,-38,-41,-12
8070.826,307,-188,16312,-2208,-38,-41,-12
8081.5470000000005,306,-188,16312,-2208,-38,-41,-12
8081.5470000000005,306,-188,16312,-2208,-38,-41,-12
8081.5470000000005,307,-188,16312,-2208,-38,-41,-12
8089.831,306,-188,16312,-2208,-38,-41,-12
8093.588000000001,307,-188,16312,-2208,-38,-41,-12
8093.588000000001,308,-228,16352,-2220,-15,-35,-9
8095.789,307,-228,16352,-2220,-15,-35,-9
8099.729,306,-228,16352,-2220,-15,-35,-9
8099.729,306,-228,16352,-2220,-15,-35,-9
8103.854,306,-228,16352,-2220,-15,-35,-9
8109.5380000000005,306,-228,16352,-2220,-15,-35,-9
8112.628000000001,307,-228,16352,-2220,-15,-35,-9
8112.628000000001,306,-180,16352,-2220,-53,-41,-10
8112.628000000001,307,-180,16352,-2220,-53,-41,-10
8120.005000000001,306,-180,16352,-2220,-53,-41,-10
8120.005000000001,307,-180,16352,-2220,-53,-41,-10
8120.005000000001,307,-180,16352,-2220,-53,-41,-10
8130.537,306,-180,16352,-2220,-53,-41,-10
8130.537,307,-180,16352,-2220,-53,-41,-10
8130.537,307,-184,16384,-2196,-47,-35,-1
8136.503,306,-184,16384,-2196,-47,-35,-1
8141.048,306,-184,16384,-2196,-47,-35,-1
8141.048,306,-184,16384,-2196,-47,-35,-1
8144.726000000001,306,-184,16384,-2196,-47,-35,-1
8144.726000000001,306,-184,16384,-2196,-47,-35,-1
8152.786000000001,307,-184,16384,-2196,-47,-35,-1
8154.308,307,-156,16372,-2208,-20,-28,-1
8154.308,306,-156,16372,-2208,-20,-28,-1
8161.006,306,-156,16372,-2208,-20,-28,-1
8161.006,307,-156,16372,-2208,-20,-28,-1
8161.006,306,-156,16372,-2208,-20,-28,-1
8169.478,306,-156,16372,-2208,-20,-28,-1
8172.331,307,-156,16372,-2208,-20,-28,-1
8174.353,306,-236,16300,-2204,-26,-34,-19
8177.764,306,-236,16300,-2204,-26,-34,-19
8177.764,306,-236,16300,-2204,-26,-34,-19
8177.764,306,-236,16300,-2204,-26,-34,-19
8188.2210000000005,306,-236,16300,-2204,-26,-34,-19
8188.2210000000005,307,-236,16300,-2204,-26,-34,-19
8188.2210000000005,306,-236,16300,-2204,-26,-34,-19
8196.268,307,-168,16352,-2216,-45,-43,-10
8196.268,307,-168,16352,-2216,-45,-43,-10
8202.386,307,-168,16352,-2216,-45,-43,-10
8204.288999999999,306,-168,16352,-2216,-45,-43,-10
8204.288999999999,307,-168,16352,-2216,-45,-43,-10
8210.688,307,-168,16352,-2216,-45,-43,-10
8210.688,307,-168,16352,-2216,-45,-43,-10
8210.688,307,-220,16352,-2172,-21,-49,4
8219.035999999998,306,-220,16352,-2172,-21,-49,4
8221.244999999999,306,-220,16352,-2172,-21,-49,4
8223.262,307,-220,16352,-2172,-21,-49,4
8227.398000000001,307,-220,16352,-2172,-21,-49,4
8227.911,306,-220,16352,-2172,-21,-49,4
8227.911,306,-220,16352,-2172,-21,-49,4
8235.742,307,-212,16336,-2192,-9,-37,1
8235.742,306,-212,16336,-2192,-9,-37,1
8235.742,307,-212,16336,-2192,-9,-37,1
8235.742,306,-212,16336,-2192,-9,-37,1
8245.272,306,-212,16336,-2192,-9,-37,1
8249.706,307,-212,16336,-2192,-9,-37,1
8249.706,307,-212,16336,-2192,-9,-37,1
8254.275,307,-212,16320,-2212,-46,-52,-18
8256.52,307,-212,16320,-2212,-46,-52,-18
8260.774,306,-212,16320,-2212,-46,-52,-18
8260.774,306,-212,16320,-2212,-46,-52,-18
8260.774,306,-212,16320,-2212,-46,-52,-18
8269.011,307,-212,16320,-2212,-46,-52,-18
8272.131,307,-212,16320,-2212,-46,-52,-18
8274.604,308,-176,16344,-2164,-27,-34,-1
8277.374,307,-176,16344,-2164,-27,-34,-1
8277.374,307,-176,16344,-2164,-27,-34,-1
8277.374,307,-176,16344,-2164,-27,-34,-1
8285.41,306,-176,16344,-2164,-27,-34,-1
8285.41,306,-176,16344,-2164,-27,-34,-1
8285.41,306,-176,16344,-2164,-27,-34,-1
8293.881000000001,307,-160,16388,-2236,-40,-31,-24
8293.881000000001,306,-160,16388,-2236,-40,-31,-24
8293.881000000001,307,-160,16388,-2236,-40,-31,-24
8302.495,306,-160,16388,-2236,-40,-31,-24
8306.278,306,-160,16388,-2236,-40,-31,-24
8310.843,306,-160,16388,-2236,-40,-31,-24
8310.843,307,-160,16388,-2236,-40,-31,-24
8310.843,307,-200,16320,-2192,-77,-47,-12
8319.077,307,-200,16320,-2192,-77,-47,-12
8319.077,307,-200,16320,-2192,-77,-47,-12
8319.077,306,-200,16320,-2192,-77,-47,-12
8327.216999999999,307,-200,16320,-2192,-77,-47,-12
8331.222,307,-200,16320,-2192,-77,-47,-12
8331.222,307,-200,16320,-2192,-77,-47,-12
8335.421999999999,307,-176,16352,-2192,-1,-45,-17
8338.082999999999,307,-176,16352,-2192,-1,-45,-17
8340.957,307,-176,16352,-2192,-1,-45,-17
8343.684,307,-176,16352,-2192,-1,-45,-17
8343.684,306,-176,16352,-2192,-1,-45,-17
8343.684,307,-176,16352,-2192,-1,-45,-17
8351.798,307,-176,16352,-2192,-1,-45,-17
8355.047,307,-152,16344,-2228,-14,-29,3
8357.061,307,-152,16344,-2228,-14,-29,3
8359.776,308,-152,16344,-2228,-14,-29,3
8359.776,307,-152,16344,-2228,-14,-29,3
8359.776,307,-152,16344,-2228,-14,-29,3
8368.027,307,-152,16344,-2228,-14,-29,3
8370.234999999999,308,-152,16344,-2228,-14,-29,3
8373.621,308,-240,16388,-2188,-56,-46,-4
8376.211,308,-240,16388,-2188,-56,-46,-4
8376.211,308,-240,16388,-2188,-56,-46,-4
8384.518999999998,307,-240,16388,-2188,-56,-46,-4
8384.518999999998,306,-240,16388,-2188,-56,-46,-4
8389.172,307,-240,16388,-2188,-56,-46,-4
8392.563,307,-240,16388,-2188,-56,-46,-4
8394.323999999999,307,-176,16348,-2176,-27,-34,14
8394.323999999999,308,-176,16348,-2176,-27,-34,14
8401.011999999999,308,-176,16348,-2176,-27,-34,14
8401.011999999999,307,-176,16348,-2176,-27,-34,14
8406.087,307,-176,16348,-2176,-27,-34,14
8409.051,307,-176,16348,-2176,-27,-34,14
8409.051,306,-176,16348,-2176,-27,-34,14
8409.051,307,-160,16336,-2180,-13,-41,-4
8417.372,307,-160,16336,-2180,-13,-41,-4
8417.372,306,-160,16336,-2180,-13,-41,-4
8417.372,307,-160,16336,-2180,-13,-41,-4
8426.291000000001,306,-160,16336,-2180,-13,-41,-4
8426.291000000001,307,-160,16336,-2180,-13,-41,-4
8426.291000000001,306,-160,16336,-2180,-13,-41,-4
8433.762,308,-196,16328,-2172,-37,-33,-14
8437.374,307,-196,16328,-2172,-37,-33,-14
8439.175000000001,308,-196,16328,-2172,-37,-33,-14
8441.957999999999,307,-196,16328,-2172,-37,-33,-14
8446.565,308,-196,16328,-2172,-37,-33,-14
8450.184,308,-196,16328,-2172,-37,-33,-14
8450.184,307,-196,16328,-2172,-37,-33,-14
8455.326,308,-216,16360,-2232,-30,-45,-10
8458.252,307,-216,16360,-2232,-30,-45,-10
8458.252,308,-216,16360,-2232,-30,-45,-10
8458.252,307,-216,16360,-2232,-30,-45,-10
8466.395,308,-216,16360,-2232,-30,-45,-10
8466.395,307,-216,16360,-2232,-30,-45,-10
8471.310000000001,308,-216,16360,-2232,-30,-45,-10
8474.445,308,-152,16348,-2208,-27,-18,-19
8474.445,307,-152,16348,-2208,-27,-18,-19
8474.445,307,-152,16348,-2208,-27,-18,-19
8482.739,307,-152,16348,-2208,-27,-18,-19
8482.739,307,-152,16348,-2208,-27,-18,-19
8490.771999999999,307,-152,16348,-2208,-27,-18,-19
8490.771999999999,307,-152,16348,-2208,-27,-18,-19
8490.771999999999,308,-212,16380,-2224,-35,-38,-12
8498.889000000001,307,-212,16380,-2224,-35,-38,-12
8500.902,307,-212,16380,-2224,-35,-38,-12
8505.416000000001,307,-212,16380,-2224,-35,-38,-12
8507.177,307,-212,16380,-2224,-35,-38,-12
8510.707,307,-212,16380,-2224,-35,-38,-12
8510.707,307,-212,16380,-2224,-35,-38,-12
8515.331,307,-204,16392,-2188,-22,-31,-5
8515.331,307,-204,16392,-2188,-22,-31,-5
8521.736,307,-204,16392,-2188,-22,-31,-5
8523.669,307,-204,16392,-2188,-22,-31,-5
8523.669,307,-204,16392,-2188,-22,-31,-5
8532.002999999999,307,-204,16392,-2188,-22,-31,-5
8532.002999999999,307,-204,16392,-2188,-22,-31,-5
8532.002999999999,307,-152,16348,-2204,-40,-36,-11
8538.149000000001,307,-152,16348,-2204,-40,-36,-11
8540.509,306,-152,16348,-2204,-40,-36,-11
8544.202000000001,308,-152,16348,-2204,-40,-36,-11
8548.876,307,-152,16348,-2204,-40,-36,-11
8550.893,308,-152,16348,-2204,-40,-36,-11
8554.739,307,-152,16348,-2204,-40,-36,-11
8557.351,308,-176,16332,-2216,-48,-47,-18
8557.351,307,-176,16332,-2216,-48,-47,-18
8563.162,307,-176,16332,-2216,-48,-47,-18
8565.53,308,-176,16332,-2216,-48,-47,-18
8565.53,307,-176,16332,-2216,-48,-47,-18
8572.399000000001,306,-176,16332,-2216,-48,-47,-18
8574.125,307,-176,16332,-2216,-48,-47,-18
8576.822,308,-172,16368,-2192,-27,-21,13
8581.594000000001,308,-172,16368,-2192,-27,-21,13
8581.594000000001,307,-172,16368,-2192,-27,-21,13
8581.594000000001,306,-172,16368,-2192,-27,-21,13
8581.594000000001,307,-172,16368,-2192,-27,-21,13
8590.666000000001,307,-172,16368,-2192,-27,-21,13
8593.297,307,-172,16368,-2192,-27,-21,13
8593.297,307,-196,16344,-2212,-8,-31,-9
8600.345000000001,307,-196,16344,-2212,-8,-31,-9
8604.787,306,-196,16344,-2212,-8,-31,-9
8606.744,306,-196,16344,-2212,-8,-31,-9
8606.744,305,-196,16344,-2212,-8,-31,-9
8606.744,306,-196,16344,-2212,-8,-31,-9
8614.134,306,-196,16344,-2212,-8,-31,-9
8615.24,307,-220,16348,-2224,-62,-24,6
8617.022,307,-220,16348,-2224,-62,-24,6
8621.976999999999,307,-220,16348,-2224,-62,-24,6
8623.626,306,-220,16348,-2224,-62,-24,6
8626.042,306,-220,16348,-2224,-62,-24,6
8626.042,306,-220,16348,-2224,-62,-24,6
8631.689,307,-220,16348,-2224,-62,-24,6
8631.689,307,-216,16316,-2180,-52,-56,-17
8639.056999999999,307,-216,16316,-2180,-52,-56,-17
8643.011,306,-216,16316,-2180,-52,-56,-17
8643.011,306,-216,16316,-2180,-52,-56,-17
8643.011,307,-216,16316,-2180,-52,-56,-17
8648.702,306,-216,16316,-2180,-52,-56,-17
8648.702,308,-216,16316,-2180,-52,-56,-17
8655.747,307,-176,16328,-2188,-6,-48,-23
8656.762999999999,307,-176,16328,-2188,-6,-48,-23
8656.762999999999,306,-176,16328,-2188,-6,-48,-23
8665.756,306,-176,16328,-2188,-6,-48,-23
8665.756,307,-176,16328,-2188,-6,-48,-23
8665.756,307,-176,16328,-2188,-6,-48,-23
8673.059000000001,306,-176,16328,-2188,-6,-48,-23
8675.077,307,-216,16328,-2228,-28,-45,-14
8675.077,306,-216,16328,-2228,-28,-45,-14
8680.706,307,-216,16328,-2228,-28,-45,-14
8682.731,307,-216,16328,-2228,-28,-45,-14
8688.462,306,-216,16328,-2228,-28,-45,-14
8691.766,307,-216,16328,-2228,-28,-45,-14
8693.821,307,-216,16328,-2228,-28,-45,-14
8696.673999999999,307,-248,16424,-2192,-49,-25,9
8696.673999999999,307,-248,16424,-2192,-49,-25,9
8696.673999999999,307,-248,16424,-2192,-49,-25,9
8705.149000000001,307,-248,16424,-2192,-49,-25,9
8707.155999999999,307,-248,16424,-2192,-49,-25,9
8707.155999999999,306,-248,16424,-2192,-49,-25,9
8712.491,306,-248,16424,-2192,-49,-25,9
8714.404,307,-208,16332,-2232,-32,-35,-11
8714.404,308,-208,16332,-2232,-32,-35,-11
8721.893,308,-208,16332,-2232,-32,-35,-11
8724.581,307,-208,16332,-2232,-32,-35,-11
8728.331,307,-208,16332,-2232,-32,-35,-11
8730.017,307,-208,16332,-2232,-32,-35,-11
8730.017,307,-208,16332,-2232,-32,-35,-11
8738.03,308,-116,16384,-2208,-27,-26,-9
8738.03,308,-116,16384,-2208,-27,-26,-9
8740.970000000001,307,-116,16384,-2208,-27,-26,-9
8740.970000000001,306,-116,16384,-2208,-27,-26,-9
8746.316,307,-116,16384,-2208,-27,-26,-9
8746.316,306,-116,16384,-2208,-27,-26,-9
8746.316,308,-116,16384,-2208,-27,-26,-9
8756.81,306,-196,16388,-2228,-13,-46,-9
8758.827,307,-196,16388,-2228,-13,-46,-9
8760.842999999999,306,-196,16388,-2228,-13,-46,-9
8764.476,307,-196,16388,-2228,-13,-46,-9
8766.49,306,-196,16388,-2228,-13,-46,-9
8770.596,306,-196,16388,-2228,-13,-46,-9
8773.621000000001,307,-196,16388,-2228,-13,-46,-9
8774.938,307,-200,16316,-2196,-38,-46,2
8778.252,307,-200,16316,-2196,-38,-46,2
8780.015000000001,307,-200,16316,-2196,-38,-46,2
8780.015000000001,306,-200,16316,-2196,-38,-46,2
8784.682,306,-200,16316,-2196,-38,-46,2
8789.796,306,-200,16316,-2196,-38,-46,2
8790.654,307,-200,16316,-2196,-38,-46,2
8790.654,307,-224,16368,-2192,-39,-39,-32
8796.678,307,-224,16368,-2192,-39,-39,-32
8796.678,307,-224,16368,-2192,-39,-39,-32
8804.885,306,-224,16368,-2192,-39,-39,-32
8806.901,306,-224,16368,-2192,-39,-39,-32
8806.901,306,-224,16368,-2192,-39,-39,-32
8813.041,306,-224,16368,-2192,-39,-39,-32
8813.041,306,-192,16332,-2188,-23,-29,-12
8813.041,306,-192,16332,-2188,-23,-29,-12
8821.061,307,-192,16332,-2188,-23,-29,-12
8821.061,307,-192,16332,-2188,-23,-29,-12
8821.061,306,-192,16332,-2188,-23,-29,-12
8829.174,307,-192,16332,-2188,-23,-29,-12
8829.174,307,-192,16332,-2188,-23,-29,-12
8829.174,307,-216,16380,-2200,-60,-29,-10
8839.665,307,-216,16380,-2200,-60,-29,-10
8839.665,306,-216,16380,-2200,-60,-29,-10
8845.371,306,-216,16380,-2200,-60,-29,-10
8846.943,307,-216,16380,-2200,-60,-29,-10
8846.943,307,-216,16380,-2200,-60,-29,-10
8854.903,308,-216,16380,-2200,-60,-29,-10
8855.773,308,-188,16356,-2216,-62,-52,-12
8859.526,307,-188,16356,-2216,-62,-52,-12
8861.824,307,-188,16356,-2216,-62,-52,-12
8861.824,307,-188,16356,-2216,-62,-52,-12
8861.824,307,-188,16356,-2216,-62,-52,-12
8870.024000000001,308,-188,16356,-2216,-62,-52,-12
8870.024000000001,308,-188,16356,-2216,-62,-52,-12
8870.024000000001,308,-232,16340,-2208,-22,-26,-25
8878.235,308,-232,16340,-2208,-22,-26,-25
8878.235,307,-232,16340,-2208,-22,-26,-25
8878.235,307,-232,16340,-2208,-22,-26,-25
8886.383,307,-232,16340,-2208,-22,-26,-25
8886.383,307,-232,16340,-2208,-22,-26,-25
8894.964999999998,307,-232,16340,-2208,-22,-26,-25
8894.964999999998,307,-148,16320,-2224,-33,-41,-28
8899.519,306,-148,16320,-2224,-33,-41,-28
8903.387999999999,307,-148,16320,-2224,-33,-41,-28
8903.387999999999,307,-148,16320,-2224,-33,-41,-28
8903.387999999999,306,-148,16320,-2224,-33,-41,-28
8911.577,307,-148,16320,-2224,-33,-41,-28
8911.577,307,-148,16320,-2224,-33,-41,-28
8911.577,307,-216,16380,-2200,-12,-26,-1
8920.109999999999,307,-216,16380,-2200,-12,-26,-1
8920.109999999999,306,-216,16380,-2200,-12,-26,-1
8920.109999999999,307,-216,16380,-2200,-12,-26,-1
8929.314,307,-216,16380,-2200,-12,-26,-1
8933.328,307,-216,16380,-2200,-12,-26,-1
8933.328,307,-216,16380,-2200,-12,-26,-1
8936.506,307,-204,16368,-2188,-59,-43,-19
8936.506,307,-204,16368,-2188,-59,-43,-19
8944.631,307,-204,16368,-2188,-59,-43,-19
8946.645,306,-204,16368,-2188,-59,-43,-19
8950.667,307,-204,16368,-2188,-59,-43,-19
8952.681,307,-204,16368,-2188,-59,-43,-19
8955.202,307,-252,16296,-2192,-65,-37,-6
8957.222,307,-252,16296,-2192,-65,-37,-6
8960.722,307,-252,16296,-2192,-65,-37,-6
8962.738,307,-252,16296,-2192,-65,-37,-6
8964.751,307,-252,16296,-2192,-65,-37,-6
8969.068,308,-252,16296,-2192,-65,-37,-6
8972.46,307,-252,16296,-2192,-65,-37,-6
8973.919,307,-188,16300,-2184,-7,-27,-17
8977.515000000001,308,-188,16300,-2184,-7,-27,-17
8977.515000000001,307,-188,16300,-2184,-7,-27,-17
8977.515000000001,306,-188,16300,-2184,-7,-27,-17
8985.794,306,-188,16300,-2184,-7,-27,-17
8991.289999999999,306,-188,16300,-2184,-7,-27,-17
8991.289999999999,307,-188,16300,-2184,-7,-27,-17
8994.141000000001,307,-188,16300,-2184,-7,-27,-17
8994.141000000001,307,-196,16384,-2192,-35,-20,-16
8994.141000000001,306,-196,16384,-2192,-35,-20,-16
9002.235,307,-196,16384,-2192,-35,-20,-16
9007.904999999999,307,-196,16384,-2192,-35,-20,-16
9010.777,306,-196,16384,-2192,-35,-20,-16
9010.777,307,-196,16384,-2192,-35,-20,-16
9010.777,307,-220,16292,-2200,-91,-40,1
9019.15,308,-220,16292,-2200,-91,-40,1
9019.15,307,-220,16292,-2200,-91,-40,1
9019.15,306,-220,16292,-2200,-91,-40,1
9027.374,307,-220,16292,-2200,-91,-40,1
9027.374,307,-220,16292,-2200,-91,-40,1
9027.374,307,-220,16292,-2200,-91,-40,1
9035.498,307,-220,16292,-2200,-91,-40,1
9035.498,307,-188,16328,-2192,6,-32,5
9035.498,307,-188,16328,-2192,6,-32,5
9043.69,307,-188,16328,-2192,6,-32,5
9043.69,307,-188,16328,-2192,6,-32,5
9043.69,307,-188,16328,-2192,6,-32,5
9051.970000000001,307,-188,16328,-2192,6,-32,5
9051.970000000001,308,-188,16328,-2192,6,-32,5
9055.536999999998,308,-176,16368,-2268,-4,-35,9
9055.536999999998,307,-176,16368,-2268,-4,-35,9
9060.110999999999,307,-176,16368,-2268,-4,-35,9
9063.980000000001,306,-176,16368,-2268,-4,-35,9
9065.227,307,-176,16368,-2268,-4,-35,9
9068.667,307,-176,16368,-2268,-4,-35,9
9068.667,307,-176,16368,-2268,-4,-35,9
9074.452000000001,307,-176,16368,-2268,-4,-35,9
9077.090999999999,307,-172,16428,-2208,-76,-48,-21
9077.090999999999,307,-172,16428,-2208,-76,-48,-21
9077.090999999999,307,-172,16428,-2208,-76,-48,-21
9085.232,306,-172,16428,-2208,-76,-48,-21
9085.232,307,-172,16428,-2208,-76,-48,-21
9085.232,307,-172,16428,-2208,-76,-48,-21
9093.603,308,-172,16428,-2208,-76,-48,-21
9093.603,307,-192,16384,-2240,-46,-35,-19
9093.603,307,-192,16384,-2240,-46,-35,-19
9102.086,306,-192,16384,-2240,-46,-35,-19
9102.086,307,-192,16384,-2240,-46,-35,-19
9102.086,307,-192,16384,-2240,-46,-35,-19
9113.528,307,-192,16384,-2240,-46,-35,-19
9114.757000000001,308,-192,16384,-2240,-46,-35,-19
9114.757000000001,308,-184,16324,-2208,-10,-33,-1
9118.815,307,-184,16324,-2208,-10,-33,-1
9118.815,306,-184,16324,-2208,-10,-33,-1
9118.815,307,-184,16324,-2208,-10,-33,-1
9126.993,307,-184,16324,-2208,-10,-33,-1
9126.993,308,-184,16324,-2208,-10,-33,-1
9135.098,308,-184,16324,-2208,-10,-33,-1
9135.098,308,-228,16316,-2228,-48,-32,-11
9135.098,308,-228,16316,-2228,-48,-32,-11
9143.198,307,-228,16316,-2228,-48,-32,-11
9143.198,306,-228,16316,-2228,-48,-32,-11
9143.198,307,-228,16316,-2228,-48,-32,-11
9151.482,307,-228,16316,-2228,-48,-32,-11
9151.482,307,-228,16316,-2228,-48,-32,-11
9159.864000000001,307,-156,16408,-2228,-41,-12,-16
9159.864000000001,307,-156,16408,-2228,-41,-12,-16
9159.864000000001,307,-156,16408,-2228,-41,-12,-16
9159.864000000001,306,-156,16408,-2228,-41,-12,-16
9170.357,307,-156,16408,-2228,-41,-12,-16
9172.099,308,-156,16408,-2228,-41,-12,-16
9174.228,308,-228,16324,-2200,-40,-41,-17
9178.845000000001,307,-228,16324,-2200,-40,-41,-17
9182.865,307,-228,16324,-2200,-40,-41,-17
9184.972,306,-228,16324,-2200,-40,-41,-17
9184.972,307,-228,16324,-2200,-40,-41,-17
9184.972,307,-228,16324,-2200,-40,-41,-17
9193.466,308,-228,16324,-2200,-40,-41,-17
9195.596,307,-232,16364,-2176,-49,-23,-10
9195.596,307,-232,16364,-2176,-49,-23,-10
9201.807999999999,308,-232,16364,-2176,-49,-23,-10
9201.807999999999,307,-232,16364,-2176,-49,-23,-10
9207.485999999999,307,-232,16364,-2176,-49,-23,-10
9211.883,307,-232,16364,-2176,-49,-23,-10
9211.883,307,-232,16364,-2176,-49,-23,-10
9211.883,307,-200,16244,-2212,-38,-31,-13
9218.148,306,-200,16244,-2212,-38,-31,-13
9221.994,306,-200,16244,-2212,-38,-31,-13
9226.271999999999,307,-200,16244,-2212,-38,-31,-13
9228.287999999999,307,-200,16244,-2212,-38,-31,-13
9230.299,307,-200,16244,-2212,-38,-31,-13
9234.615,307,-200,16244,-2212,-38,-31,-13
9234.615,307,-228,16408,-2224,-2,-33,-7
9240.302,307,-228,16408,-2224,-2,-33,-7
9242.64,307,-228,16408,-2224,-2,-33,-7
9242.64,307,-228,16408,-2224,-2,-33,-7
9242.64,307,-228,16408,-2224,-2,-33,-7
9250.811,307,-228,16408,-2224,-2,-33,-7
9250.811,307,-228,16408,-2224,-2,-33,-7
9255.483999999999,308,-184,16340,-2244,-30,-32,-13
9258.888,308,-184,16340,-2244,-30,-32,-13
9258.888,307,-184,16340,-2244,-30,-32,-13
9258.888,307,-184,16340,-2244,-30,-32,-13
9267.063,307,-184,16340,-2244,-30,-32,-13
9271.46,307,-184,16340,-2244,-30,-32,-13
9273.913999999999,307,-184,16340,-2244,-30,-32,-13
9276.635,307,-196,16332,-2200,-51,-47,-13
9281.442000000001,306,-196,16332,-2200,-51,-47,-13
9283.456,306,-196,16332,-2200,-51,-47,-13
9285.475,306,-196,16332,-2200,-51,-47,-13
9288.643,306,-196,16332,-2200,-51,-47,-13
9291.676000000001,307,-196,16332,-2200,-51,-47,-13
9293.625,307,-196,16332,-2200,-51,-47,-13
9298.565999999999,307,-172,16380,-2220,16,-19,18
9301.898,306,-172,16380,-2220,16,-19,18
9303.890000000001,306,-172,16380,-2220,16,-19,18
9305.904,306,-172,16380,-2220,16,-19,18
9309.689,306,-172,16380,-2220,16,-19,18
9311.707,306,-172,16380,-2220,16,-19,18
9313.278,306,-172,16380,-2220,16,-19,18
9317.313,307,-184,16416,-2220,-52,-39,-12
9319.329,307,-184,16416,-2220,-52,-39,-12
9323.055,307,-184,16416,-2220,-52,-39,-12
9327.104000000001,306,-184,16416,-2220,-52,-39,-12
9331.141000000001,307,-184,16416,-2220,-52,-39,-12
9333.157,307,-184,16416,-2220,-52,-39,-12
9335.175,307,-184,16416,-2220,-52,-39,-12
9338.668,307,-260,16336,-2216,-82,-31,6
9340.688,307,-260,16336,-2216,-82,-31,6
9342.708,307,-260,16336,-2216,-82,-31,6
9346.745,307,-260,16336,-2216,-82,-31,6
9348.763,307,-260,16336,-2216,-82,-31,6
9350.778999999999,307,-260,16336,-2216,-82,-31,6
9355.826000000001,307,-260,16336,-2216,-82,-31,6
9355.826000000001,308,-184,16312,-2228,8,-19,-10
9359.866,307,-184,16312,-2228,8,-19,-10
9362.899000000001,306,-184,16312,-2228,8,-19,-10
9364.913,306,-184,16312,-2228,8,-19,-10
9367.071,306,-184,16312,-2228,8,-19,-10
9370.898000000001,307,-184,16312,-2228,8,-19,-10
9375.366,307,-184,16312,-2228,8,-19,-10
9381.168000000001,307,-184,16312,-2228,8,-19,-10
9383.187,307,-200,16344,-2196,-68,-43,1
