Time (ms),EMG,AccX,AccY,AccZ,GyroX,GyroY,GyroZ
1550.8059999999998,0,0,0,0,0,0,0
1552.8169999999998,311,0,0,0,0,0,0
1552.8169999999998,311,0,0,0,0,0,0
1556.493,311,0,0,0,0,0,0
1556.493,311,0,0,0,0,0,0
1559.108,311,0,0,0,0,0,0
1559.108,311,0,0,0,0,0,0
1559.108,312,0,0,0,0,0,0
1559.108,311,0,0,0,0,0,0
1559.108,311,0,0,0,0,0,0
1559.108,312,0,0,0,0,0,0
1568.538,312,0,0,0,0,0,0
1568.538,312,0,0,0,0,0,0
1568.538,312,0,0,0,0,0,0
1572.929,312,0,0,0,0,0,0
1572.929,311,0,0,0,0,0,0
1575.191,312,0,0,0,0,0,0
1577.304,312,0,0,0,0,0,0
1578.639,312,-196,16356,-2252,55,-45,-27
1582.086,311,-196,16356,-2252,55,-45,-27
1583.607,312,-196,16356,-2252,55,-45,-27
1587.905,313,-196,16356,-2252,55,-45,-27
1587.905,313,-196,16356,-2252,55,-45,-27
1591.655,313,-196,16356,-2252,55,-45,-27
1597.275,313,-196,16356,-2252,55,-45,-27
1599.2869999999998,312,-156,16360,-2280,-80,-43,-12
1600.441,312,-156,16360,-2280,-80,-43,-12
1600.441,313,-156,16360,-2280,-80,-43,-12
1607.317,313,-156,16360,-2280,-80,-43,-12
1607.317,313,-156,16360,-2280,-80,-43,-12
1607.317,313,-156,16360,-2280,-80,-43,-12
1615.383,313,-156,16360,-2280,-80,-43,-12
1615.383,313,-208,16312,-2216,-58,-39,-10
1615.383,313,-208,16312,-2216,-58,-39,-10
1625.494,313,-208,16312,-2216,-58,-39,-10
1625.494,314,-208,16312,-2216,-58,-39,-10
1630.865,314,-208,16312,-2216,-58,-39,-10
1631.882,314,-208,16312,-2216,-58,-39,-10
1631.882,315,-208,16312,-2216,-58,-39,-10
1640.0,315,-244,16356,-2248,34,-14,-14
1643.959,315,-244,16356,-2248,34,-14,-14
1645.391,315,-244,16356,-2248,34,-14,-14
1648.172,316,-244,16356,-2248,34,-14,-14
1648.172,315,-244,16356,-2248,34,-14,-14
1653.68,316,-244,16356,-2248,34,-14,-14
1656.49,316,-244,16356,-2248,34,-14,-14
1659.882,317,-200,16352,-2264,-88,-47,-12
1659.882,317,-200,16352,-2264,-88,-47,-12
1664.6799999999998,317,-200,16352,-2264,-88,-47,-12
1664.6799999999998,318,-200,16352,-2264,-88,-47,-12
1664.6799999999998,319,-200,16352,-2264,-88,-47,-12
1674.455,319,-200,16352,-2264,-88,-47,-12
1674.455,319,-200,16352,-2264,-88,-47,-12
1674.455,319,-204,16332,-2244,-33,-35,-27
1681.115,321,-204,16332,-2244,-33,-35,-27
1681.115,321,-204,16332,-2244,-33,-35,-27
1689.943,322,-204,16332,-2244,-33,-35,-27
1693.103,322,-204,16332,-2244,-33,-35,-27
1693.103,321,-204,16332,-2244,-33,-35,-27
1697.804,322,-204,16332,-2244,-33,-35,-27
1697.804,322,-260,16368,-2244,10,-12,-15
1697.804,323,-260,16368,-2244,10,-12,-15
1706.1219999999998,324,-260,16368,-2244,10,-12,-15
1707.682,323,-260,16368,-2244,10,-12,-15
1707.682,323,-260,16368,-2244,10,-12,-15
1714.439,323,-260,16368,-2244,10,-12,-15
1714.439,324,-260,16368,-2244,10,-12,-15
1719.204,324,-216,16356,-2324,-71,-32,-6
1723.7450000000001,324,-216,16356,-2324,-71,-32,-6
1726.323,325,-216,16356,-2324,-71,-32,-6
1728.2649999999999,326,-216,16356,-2324,-71,-32,-6
1730.9209999999998,325,-216,16356,-2324,-71,-32,-6
1730.9209999999998,325,-216,16356,-2324,-71,-32,-6
1730.9209999999998,325,-216,16356,-2324,-71,-32,-6
1739.911,324,-220,16292,-2232,-55,-37,6
1739.911,325,-220,16292,-2232,-55,-37,6
1739.911,325,-220,16292,-2232,-55,-37,6
1749.432,325,-220,16292,-2232,-55,-37,6
1750.146,325,-220,16292,-2232,-55,-37,6
1752.155,325,-220,16292,-2232,-55,-37,6
1776.014,324,-220,16292,-2232,-55,-37,6
1782.0339999999999,325,-216,16320,-2240,22,-47,-16
1783.19,324,-216,16320,-2240,22,-47,-16
1783.19,324,-216,16320,-2240,22,-47,-16
1785.1950000000002,324,-216,16320,-2240,22,-47,-16
1786.514,323,-216,16320,-2240,22,-47,-16
1786.514,323,-216,16320,-2240,22,-47,-16
1788.145,322,-216,16320,-2240,22,-47,-16
1791.3049999999998,321,-224,16356,-2248,-28,-30,3
1792.752,321,-224,16356,-2248,-28,-30,3
1792.752,321,-224,16356,-2248,-28,-30,3
1794.759,321,-224,16356,-2248,-28,-30,3
1794.759,321,-224,16356,-2248,-28,-30,3
1796.507,319,-224,16356,-2248,-28,-30,3
1804.54,319,-224,16356,-2248,-28,-30,3
1806.549,318,-212,16348,-2244,-106,-25,20
1808.5580000000002,317,-212,16348,-2244,-106,-25,20
1808.5580000000002,316,-212,16348,-2244,-106,-25,20
1810.585,316,-212,16348,-2244,-106,-25,20
1810.585,315,-212,16348,-2244,-106,-25,20
1814.587,314,-212,16348,-2244,-106,-25,20
1814.587,314,-212,16348,-2244,-106,-25,20
1818.2849999999999,312,-232,16308,-2204,15,-50,-10
1821.277,311,-232,16308,-2204,15,-50,-10
1824.227,311,-232,16308,-2204,15,-50,-10
1825.7890000000002,310,-232,16308,-2204,15,-50,-10
1828.827,310,-232,16308,-2204,15,-50,-10
1828.827,308,-232,16308,-2204,15,-50,-10
1828.827,307,-232,16308,-2204,15,-50,-10
1839.0610000000001,307,-200,16380,-2248,4,-40,6
1842.227,306,-200,16380,-2248,4,-40,6
1842.227,305,-200,16380,-2248,4,-40,6
1845.221,305,-200,16380,-2248,4,-40,6
1845.221,305,-200,16380,-2248,4,-40,6
1845.221,303,-200,16380,-2248,4,-40,6
1854.33,302,-200,16380,-2248,4,-40,6
1856.2160000000001,301,-200,16380,-2248,4,-40,6
1858.757,301,-224,16352,-2300,-133,-40,-12
1862.1570000000002,300,-224,16352,-2300,-133,-40,-12
1862.1570000000002,301,-224,16352,-2300,-133,-40,-12
1862.1570000000002,299,-224,16352,-2300,-133,-40,-12
1871.001,299,-224,16352,-2300,-133,-40,-12
1874.797,298,-224,16352,-2300,-133,-40,-12
1877.415,297,-224,16352,-2300,-133,-40,-12
1878.423,297,-228,16276,-2192,-33,-29,-2
1878.423,296,-228,16276,-2192,-33,-29,-2
1886.494,296,-228,16276,-2192,-33,-29,-2
1889.4789999999998,296,-228,16276,-2192,-33,-29,-2
1891.5610000000001,295,-228,16276,-2192,-33,-29,-2
1896.595,295,-228,16276,-2192,-33,-29,-2
1896.595,294,-228,16276,-2192,-33,-29,-2
1900.618,294,-272,16412,-2180,48,-33,-11
1902.63,294,-272,16412,-2180,48,-33,-11
1905.728,294,-272,16412,-2180,48,-33,-11
1907.767,294,-272,16412,-2180,48,-33,-11
1910.961,294,-272,16412,-2180,48,-33,-11
1910.961,293,-272,16412,-2180,48,-33,-11
1910.961,293,-272,16412,-2180,48,-33,-11
1919.356,293,-224,16308,-2268,-125,-26,-12
1919.356,293,-224,16308,-2268,-125,-26,-12
1925.88,293,-224,16308,-2268,-125,-26,-12
1927.635,293,-224,16308,-2268,-125,-26,-12
1927.635,293,-224,16308,-2268,-125,-26,-12
1935.739,292,-224,16308,-2268,-125,-26,-12
1935.739,291,-224,16308,-2268,-125,-26,-12
1939.549,292,-236,16276,-2204,-67,-55,-4
1944.6380000000001,292,-236,16276,-2204,-67,-55,-4
1944.6380000000001,293,-236,16276,-2204,-67,-55,-4
1944.6380000000001,293,-236,16276,-2204,-67,-55,-4
1952.143,293,-236,16276,-2204,-67,-55,-4
1952.143,292,-236,16276,-2204,-67,-55,-4
1952.143,292,-236,16276,-2204,-67,-55,-4
1960.34,292,-212,16348,-2192,53,-36,-4
1965.81,292,-212,16348,-2192,53,-36,-4
1965.81,292,-212,16348,-2192,53,-36,-4
1968.4489999999998,292,-212,16348,-2192,53,-36,-4
1972.823,292,-212,16348,-2192,53,-36,-4
1976.597,293,-212,16348,-2192,53,-36,-4
1978.61,292,-212,16348,-2192,53,-36,-4
1980.622,292,-144,16420,-2272,-75,-48,-10
1980.622,292,-144,16420,-2272,-75,-48,-10
1984.675,293,-144,16420,-2272,-75,-48,-10
1989.9199999999998,293,-144,16420,-2272,-75,-48,-10
1992.776,293,-144,16420,-2272,-75,-48,-10
1992.776,293,-144,16420,-2272,-75,-48,-10
1992.776,292,-144,16420,-2272,-75,-48,-10
2002.954,293,-200,16352,-2208,-104,-39,-2
2002.954,293,-200,16352,-2208,-104,-39,-2
2007.37,293,-200,16352,-2208,-104,-39,-2
2011.5409999999997,294,-200,16352,-2208,-104,-39,-2
2012.895,293,-200,16352,-2208,-104,-39,-2
2015.9720000000002,294,-200,16352,-2208,-104,-39,-2
2018.952,294,-200,16352,-2208,-104,-39,-2
2023.7910000000002,293,-184,16404,-2228,64,-48,-2
2026.032,294,-184,16404,-2228,64,-48,-2
2027.443,294,-184,16404,-2228,64,-48,-2
2029.284,294,-184,16404,-2228,64,-48,-2
2029.284,294,-184,16404,-2228,64,-48,-2
2035.5500000000002,294,-184,16404,-2228,64,-48,-2
2040.4300000000003,293,-184,16404,-2228,64,-48,-2
2042.98,294,-244,16324,-2296,-28,-43,4
2043.7479999999998,295,-244,16324,-2296,-28,-43,4
2046.9560000000001,295,-244,16324,-2296,-28,-43,4
2048.962,295,-244,16324,-2296,-28,-43,4
2052.342,295,-244,16324,-2296,-28,-43,4
2052.342,295,-244,16324,-2296,-28,-43,4
2052.342,295,-244,16324,-2296,-28,-43,4
2059.6899999999996,295,-200,16372,-2188,-127,-61,-16
2061.698,295,-200,16372,-2188,-127,-61,-16
2066.843,295,-200,16372,-2188,-127,-61,-16
2066.843,296,-200,16372,-2188,-127,-61,-16
2073.264,296,-200,16372,-2188,-127,-61,-16
2075.686,296,-200,16372,-2188,-127,-61,-16
2075.686,296,-200,16372,-2188,-127,-61,-16
2075.686,296,-224,16360,-2236,57,-39,-15
2083.3430000000003,296,-224,16360,-2236,57,-39,-15
2083.3430000000003,297,-224,16360,-2236,57,-39,-15
2090.746,298,-224,16360,-2236,57,-39,-15
2093.1890000000003,297,-224,16360,-2236,57,-39,-15
2094.744,297,-224,16360,-2236,57,-39,-15
2098.414,297,-224,16360,-2236,57,-39,-15
2099.8929999999996,297,-192,16328,-2300,-3,-34,-2
2099.8929999999996,298,-192,16328,-2300,-3,-34,-2
2105.866,298,-192,16328,-2300,-3,-34,-2
2108.26,297,-192,16328,-2300,-3,-34,-2
2108.26,297,-192,16328,-2300,-3,-34,-2
2108.26,298,-192,16328,-2300,-3,-34,-2
2116.635,297,-192,16328,-2300,-3,-34,-2
2116.635,298,-192,16324,-2228,-133,-30,-12
2116.635,298,-192,16324,-2228,-133,-30,-12
2125.868,299,-192,16324,-2228,-133,-30,-12
2125.868,298,-192,16324,-2228,-133,-30,-12
2133.189,299,-192,16324,-2228,-133,-30,-12
2133.189,299,-192,16324,-2228,-133,-30,-12
2133.189,298,-192,16324,-2228,-133,-30,-12
2141.5130000000004,299,-208,16320,-2196,33,-44,-19
2141.5130000000004,300,-208,16320,-2196,33,-44,-19
2147.721,300,-208,16320,-2196,33,-44,-19
2149.832,300,-208,16320,-2196,33,-44,-19
2149.832,299,-208,16320,-2196,33,-44,-19
2149.832,299,-208,16320,-2196,33,-44,-19
2157.927,299,-208,16320,-2196,33,-44,-19
2157.927,300,-240,16396,-2268,5,-31,-22
2157.927,300,-240,16396,-2268,5,-31,-22
2166.407,301,-240,16396,-2268,5,-31,-22
2166.407,301,-240,16396,-2268,5,-31,-22
2172.784,300,-240,16396,-2268,5,-31,-22
2174.5739999999996,300,-240,16396,-2268,5,-31,-22
2174.5739999999996,300,-240,16396,-2268,5,-31,-22
2180.4860000000003,301,-212,16352,-2240,-136,-53,-10
2182.978,300,-212,16352,-2240,-136,-53,-10
2187.272,301,-212,16352,-2240,-136,-53,-10
2191.0699999999997,302,-212,16352,-2240,-136,-53,-10
2193.082,301,-212,16352,-2240,-136,-53,-10
2193.593,301,-212,16352,-2240,-136,-53,-10
2199.284,301,-212,16352,-2240,-136,-53,-10
2199.284,301,-236,16404,-2244,6,-16,-22
2199.284,302,-236,16404,-2244,6,-16,-22
2207.392,302,-236,16404,-2244,6,-16,-22
2210.047,302,-236,16404,-2244,6,-16,-22
2210.047,302,-236,16404,-2244,6,-16,-22
2215.7650000000003,301,-236,16404,-2244,6,-16,-22
2215.7650000000003,302,-236,16404,-2244,6,-16,-22
2220.433,301,-216,16332,-2276,-1,-43,-36
2224.231,302,-216,16332,-2276,-1,-43,-36
2227.7599999999998,302,-216,16332,-2276,-1,-43,-36
2227.7599999999998,303,-216,16332,-2276,-1,-43,-36
2232.29,303,-216,16332,-2276,-1,-43,-36
2232.29,303,-216,16332,-2276,-1,-43,-36
2232.29,302,-216,16332,-2276,-1,-43,-36
2240.643,303,-228,16336,-2256,-74,-57,1
2240.643,303,-228,16336,-2256,-74,-57,1
2240.643,304,-228,16336,-2256,-74,-57,1
2249.085,304,-228,16336,-2256,-74,-57,1
2249.085,303,-228,16336,-2256,-74,-57,1
2249.085,304,-228,16336,-2256,-74,-57,1
2256.944,303,-228,16336,-2256,-74,-57,1
2259.038,304,-240,16324,-2208,-43,-40,-15
2265.196,303,-240,16324,-2208,-43,-40,-15
2265.196,304,-240,16324,-2208,-43,-40,-15
2265.196,304,-240,16324,-2208,-43,-40,-15
2273.27,304,-240,16324,-2208,-43,-40,-15
2274.7709999999997,304,-240,16324,-2208,-43,-40,-15
2274.7709999999997,304,-240,16324,-2208,-43,-40,-15
2281.5150000000003,304,-188,16336,-2220,18,-24,-6
2282.9139999999998,305,-188,16336,-2220,18,-24,-6
2282.9139999999998,305,-188,16336,-2220,18,-24,-6
2289.7059999999997,305,-188,16336,-2220,18,-24,-6
2291.9990000000003,304,-188,16336,-2220,18,-24,-6
2291.9990000000003,305,-188,16336,-2220,18,-24,-6
2297.775,305,-188,16336,-2220,18,-24,-6
2300.625,305,-212,16336,-2204,-63,-35,-7
2303.616,305,-212,16336,-2204,-63,-35,-7
2306.555,305,-212,16336,-2204,-63,-35,-7
2306.555,305,-212,16336,-2204,-63,-35,-7
2306.555,306,-212,16336,-2204,-63,-35,-7
2314.741,305,-212,16336,-2204,-63,-35,-7
2318.217,306,-212,16336,-2204,-63,-35,-7
2318.217,305,-248,16304,-2200,-35,-38,1
2323.833,305,-248,16304,-2200,-35,-38,1
2327.074,306,-248,16304,-2200,-35,-38,1
2327.074,306,-248,16304,-2200,-35,-38,1
2331.317,306,-248,16304,-2200,-35,-38,1
2331.317,306,-248,16304,-2200,-35,-38,1
2331.317,306,-248,16304,-2200,-35,-38,1
2340.051,306,-248,16304,-2200,-35,-38,1
2340.051,306,-204,16392,-2232,13,-27,7
2340.051,306,-204,16392,-2232,13,-27,7
2347.764,306,-204,16392,-2232,13,-27,7
2350.5950000000003,307,-204,16392,-2232,13,-27,7
2352.603,307,-204,16392,-2232,13,-27,7
2356.132,307,-204,16392,-2232,13,-27,7
2356.591,306,-204,16392,-2232,13,-27,7
2356.591,306,-256,16376,-2256,-50,-17,3
2364.245,307,-256,16376,-2256,-50,-17,3
2364.245,307,-256,16376,-2256,-50,-17,3
2364.245,308,-256,16376,-2256,-50,-17,3
2372.296,308,-256,16376,-2256,-50,-17,3
2373.4700000000003,307,-256,16376,-2256,-50,-17,3
2373.4700000000003,307,-256,16376,-2256,-50,-17,3
2380.6090000000004,307,-220,16352,-2236,-79,-29,-18
2383.344,307,-220,16352,-2236,-79,-29,-18
2383.344,307,-220,16352,-2236,-79,-29,-18
2388.8250000000003,308,-220,16352,-2236,-79,-29,-18
2388.8250000000003,307,-220,16352,-2236,-79,-29,-18
2388.8250000000003,308,-220,16352,-2236,-79,-29,-18
2398.46,307,-220,16352,-2236,-79,-29,-18
2400.467,307,-200,16396,-2236,25,-52,-19
2400.467,308,-200,16396,-2236,25,-52,-19
2405.234,307,-200,16396,-2236,25,-52,-19
2405.234,308,-200,16396,-2236,25,-52,-19
2405.234,308,-200,16396,-2236,25,-52,-19
2415.281,308,-200,16396,-2236,25,-52,-19
2417.29,307,-200,16396,-2236,25,-52,-19
2421.3089999999997,307,-228,16336,-2236,-80,-38,-8
2424.9990000000003,308,-228,16336,-2236,-80,-38,-8
2426.0190000000002,309,-228,16336,-2236,-80,-38,-8
2429.641,309,-228,16336,-2236,-80,-38,-8
2429.641,308,-228,16336,-2236,-80,-38,-8
2429.641,309,-228,16336,-2236,-80,-38,-8
2437.717,308,-228,16336,-2236,-80,-38,-8
2440.388,308,-208,16296,-2260,-41,-34,-12
2440.388,308,-208,16296,-2260,-41,-34,-12
2445.865,308,-208,16296,-2260,-41,-34,-12
2445.865,309,-208,16296,-2260,-41,-34,-12
2445.865,309,-208,16296,-2260,-41,-34,-12
2454.094,309,-208,16296,-2260,-41,-34,-12
2456.759,308,-208,16296,-2260,-41,-34,-12
2462.164,309,-228,16340,-2208,-5,-36,-16
2462.7720000000004,309,-228,16340,-2208,-5,-36,-16
2462.7720000000004,308,-228,16340,-2208,-5,-36,-16
2470.475,308,-228,16340,-2208,-5,-36,-16
2473.7740000000003,308,-228,16340,-2208,-5,-36,-16
2473.7740000000003,309,-228,16340,-2208,-5,-36,-16
2473.7740000000003,308,-228,16340,-2208,-5,-36,-16
2479.935,309,-244,16316,-2228,-59,-35,-21
2479.935,309,-244,16316,-2228,-59,-35,-21
2479.935,309,-244,16316,-2228,-59,-35,-21
2490.0829999999996,309,-244,16316,-2228,-59,-35,-21
2490.0829999999996,309,-244,16316,-2228,-59,-35,-21
2490.0829999999996,308,-244,16316,-2228,-59,-35,-21
2495.4990000000003,308,-244,16316,-2228,-59,-35,-21
2495.4990000000003,309,-196,16316,-2228,-74,-37,-8
2504.016,309,-196,16316,-2228,-74,-37,-8
2506.033,309,-196,16316,-2228,-74,-37,-8
2508.049,309,-196,16316,-2228,-74,-37,-8
2512.178,310,-196,16316,-2228,-74,-37,-8
2512.178,309,-196,16316,-2228,-74,-37,-8
2517.898,308,-196,16316,-2228,-74,-37,-8
2520.6349999999998,308,-232,16380,-2200,7,-43,-11
2523.156,309,-232,16380,-2200,7,-43,-11
2526.186,309,-232,16380,-2200,7,-43,-11
2528.046,310,-232,16380,-2200,7,-43,-11
2528.046,309,-232,16380,-2200,7,-43,-11
2536.29,308,-232,16380,-2200,7,-43,-11
2537.21,308,-232,16380,-2200,7,-43,-11
2537.21,309,-204,16360,-2252,-50,-36,-11
2537.21,308,-204,16360,-2252,-50,-36,-11
2544.5299999999997,309,-204,16360,-2252,-50,-36,-11
2544.5299999999997,310,-204,16360,-2252,-50,-36,-11
2552.5570000000002,309,-204,16360,-2252,-50,-36,-11
2552.5570000000002,309,-204,16360,-2252,-50,-36,-11
2552.5570000000002,309,-204,16360,-2252,-50,-36,-11
2560.987,309,-204,16328,-2208,-76,-41,-14
2560.987,309,-204,16328,-2208,-76,-41,-14
2560.987,309,-204,16328,-2208,-76,-41,-14
2570.2799999999997,309,-204,16328,-2208,-76,-41,-14
2573.616,309,-204,16328,-2208,-76,-41,-14
2575.793,309,-204,16328,-2208,-76,-41,-14
2577.5519999999997,309,-204,16328,-2208,-76,-41,-14
2577.5519999999997,309,-252,16364,-2256,46,-34,0
2577.5519999999997,309,-252,16364,-2256,46,-34,0
2585.71,309,-252,16364,-2256,46,-34,0
2589.035,310,-252,16364,-2256,46,-34,0
2591.059,309,-252,16364,-2256,46,-34,0
2593.378,309,-252,16364,-2256,46,-34,0
2593.378,309,-252,16364,-2256,46,-34,0
2593.378,308,-252,16364,-2256,46,-34,0
2601.584,309,-212,16388,-2292,-82,-54,-12
2606.186,310,-212,16388,-2292,-82,-54,-12
2606.996,310,-212,16388,-2292,-82,-54,-12
2613.161,309,-212,16388,-2292,-82,-54,-12
2614.3610000000003,309,-212,16388,-2292,-82,-54,-12
2617.7760000000003,309,-212,16388,-2292,-82,-54,-12
2620.3120000000004,309,-212,16388,-2292,-82,-54,-12
2622.3399999999997,309,-184,16324,-2236,-95,-44,-6
2626.375,309,-184,16324,-2236,-95,-44,-6
2626.375,309,-184,16324,-2236,-95,-44,-6
2626.375,309,-184,16324,-2236,-95,-44,-6
2634.5429999999997,309,-184,16324,-2236,-95,-44,-6
2635.472,309,-184,16324,-2236,-95,-44,-6
2641.289,309,-184,16324,-2236,-95,-44,-6
2643.046,309,-204,16296,-2248,59,-34,-4
2643.046,309,-204,16296,-2248,59,-34,-4
2643.046,310,-204,16296,-2248,59,-34,-4
2652.13,309,-204,16296,-2248,59,-34,-4
2652.13,309,-204,16296,-2248,59,-34,-4
2652.13,309,-204,16296,-2248,59,-34,-4
2659.532,309,-204,16296,-2248,59,-34,-4
2659.532,308,-228,16372,-2272,-71,-51,-9
2659.532,309,-228,16372,-2272,-71,-51,-9
2667.922,309,-228,16372,-2272,-71,-51,-9
2667.922,309,-228,16372,-2272,-71,-51,-9
2673.483,309,-228,16372,-2272,-71,-51,-9
2676.104,309,-228,16372,-2272,-71,-51,-9
2676.104,308,-228,16372,-2272,-71,-51,-9
2676.104,309,-256,16320,-2268,-91,-39,-11
2686.629,309,-256,16320,-2268,-91,-39,-11
2688.6389999999997,309,-256,16320,-2268,-91,-39,-11
2690.663,310,-256,16320,-2268,-91,-39,-11
2692.424,309,-256,16320,-2268,-91,-39,-11
2692.424,309,-256,16320,-2268,-91,-39,-11
2699.981,309,-256,16320,-2268,-91,-39,-11
2699.981,309,-188,16364,-2244,37,-48,-27
2705.507,309,-188,16364,-2244,37,-48,-27
2708.003,309,-188,16364,-2244,37,-48,-27
2708.003,310,-188,16364,-2244,37,-48,-27
2708.003,309,-188,16364,-2244,37,-48,-27
2716.334,309,-188,16364,-2244,37,-48,-27
2716.334,308,-188,16364,-2244,37,-48,-27
2723.2980000000002,309,-224,16392,-2260,-32,-41,-17
2724.8160000000003,308,-224,16392,-2260,-32,-41,-17
2726.3269999999998,309,-224,16392,-2260,-32,-41,-17
2731.912,309,-224,16392,-2260,-32,-41,-17
2732.923,309,-224,16392,-2260,-32,-41,-17
2732.923,308,-224,16392,-2260,-32,-41,-17
2741.254,309,-224,16392,-2260,-32,-41,-17
2742.1259999999997,309,-252,16316,-2220,-106,-35,-28
2742.1259999999997,310,-252,16316,-2220,-106,-35,-28
2742.1259999999997,310,-252,16316,-2220,-106,-35,-28
2749.6870000000004,309,-252,16316,-2220,-106,-35,-28
2749.6870000000004,309,-252,16316,-2220,-106,-35,-28
2758.467,309,-252,16316,-2220,-106,-35,-28
2761.843,309,-248,16320,-2228,13,-54,-13
2763.2059999999997,309,-248,16320,-2228,13,-54,-13
2766.262,309,-248,16320,-2228,13,-54,-13
2767.68,309,-248,16320,-2228,13,-54,-13
2770.451,309,-248,16320,-2228,13,-54,-13
2776.6820000000002,309,-248,16320,-2228,13,-54,-13
2776.6820000000002,309,-248,16320,-2228,13,-54,-13
2776.6820000000002,308,-212,16372,-2324,18,-12,-13
2782.143,309,-212,16372,-2324,18,-12,-13
2782.143,310,-212,16372,-2324,18,-12,-13
2790.2740000000003,309,-212,16372,-2324,18,-12,-13
2790.2740000000003,309,-212,16372,-2324,18,-12,-13
2794.707,309,-212,16372,-2324,18,-12,-13
2794.707,308,-212,16372,-2324,18,-12,-13
2798.7380000000003,308,-236,16324,-2244,-111,-20,4
2804.245,309,-236,16324,-2244,-111,-20,4
2806.9829999999997,309,-236,16324,-2244,-111,-20,4
2810.1349999999998,309,-236,16324,-2244,-111,-20,4
2812.477,309,-236,16324,-2244,-111,-20,4
2815.005,308,-236,16324,-2244,-111,-20,4
2815.005,309,-236,16324,-2244,-111,-20,4
2815.005,308,-236,16324,-2244,-111,-20,4
2823.623,308,-196,16308,-2224,-10,-36,11
2826.241,309,-196,16308,-2224,-10,-36,11
2826.241,309,-196,16308,-2224,-10,-36,11
2831.5389999999998,309,-196,16308,-2224,-10,-36,11
2834.063,308,-196,16308,-2224,-10,-36,11
2839.5640000000003,308,-196,16308,-2224,-10,-36,11
2841.2000000000003,308,-196,16308,-2224,-10,-36,11
2843.918,308,-180,16360,-2232,24,-60,-19
2843.918,309,-180,16360,-2232,24,-60,-19
2850.5009999999997,309,-180,16360,-2232,24,-60,-19
2852.013,308,-180,16360,-2232,24,-60,-19
2852.013,308,-180,16360,-2232,24,-60,-19
2857.012,308,-180,16360,-2232,24,-60,-19
2857.012,308,-180,16360,-2232,24,-60,-19
2862.2619999999997,308,-240,16296,-2280,-89,-27,-11
2864.022,308,-240,16296,-2280,-89,-27,-11
2868.358,308,-240,16296,-2280,-89,-27,-11
2872.15,308,-240,16296,-2280,-89,-27,-11
2873.045,308,-240,16296,-2280,-89,-27,-11
2873.045,308,-240,16296,-2280,-89,-27,-11
2880.271,308,-240,16296,-2280,-89,-27,-11
2880.271,308,-240,16332,-2204,-66,-48,-2
2880.271,309,-240,16332,-2204,-66,-48,-2
2889.4950000000003,309,-240,16332,-2204,-66,-48,-2
2893.328,309,-240,16332,-2204,-66,-48,-2
2893.328,308,-240,16332,-2204,-66,-48,-2
2898.819,307,-240,16332,-2204,-66,-48,-2
2898.819,307,-240,16332,-2204,-66,-48,-2
2898.819,308,-172,16312,-2300,45,-35,-13
2907.244,308,-172,16312,-2300,45,-35,-13
2909.26,309,-172,16312,-2300,45,-35,-13
2909.26,308,-172,16312,-2300,45,-35,-13
2916.025,308,-172,16312,-2300,45,-35,-13
2918.0350000000003,308,-172,16312,-2300,45,-35,-13
2920.0499999999997,308,-172,16312,-2300,45,-35,-13
2923.579,308,-224,16340,-2284,-86,-49,-9
2926.468,308,-224,16340,-2284,-86,-49,-9
2926.468,308,-224,16340,-2284,-86,-49,-9
2930.047,309,-224,16340,-2284,-86,-49,-9
2930.047,308,-224,16340,-2284,-86,-49,-9
2938.284,308,-224,16340,-2284,-86,-49,-9
2939.607,307,-224,16340,-2284,-86,-49,-9
2941.623,307,-236,16296,-2248,-70,-47,-22
2946.3149999999996,309,-236,16296,-2248,-70,-47,-22
2946.3149999999996,309,-236,16296,-2248,-70,-47,-22
2946.3149999999996,308,-236,16296,-2248,-70,-47,-22
2956.931,308,-236,16296,-2248,-70,-47,-22
2956.931,308,-236,16296,-2248,-70,-47,-22
2956.931,307,-236,16296,-2248,-70,-47,-22
2962.621,308,-212,16320,-2180,61,-35,-17
2962.621,309,-212,16320,-2180,61,-35,-17
2962.621,308,-212,16320,-2180,61,-35,-17
2973.232,308,-212,16320,-2180,61,-35,-17
2973.232,308,-212,16320,-2180,61,-35,-17
2973.232,308,-212,16320,-2180,61,-35,-17
2979.0930000000003,307,-212,16320,-2180,61,-35,-17
2979.0930000000003,307,-212,16312,-2244,-34,-37,-6
2979.0930000000003,308,-212,16312,-2244,-34,-37,-6
2987.507,309,-212,16312,-2244,-34,-37,-6
2991.377,309,-212,16312,-2244,-34,-37,-6
2995.565,308,-212,16312,-2244,-34,-37,-6
2995.565,308,-212,16312,-2244,-34,-37,-6
2995.565,307,-212,16312,-2244,-34,-37,-6
3004.089,307,-212,16376,-2224,-131,-13,-7
3006.199,308,-212,16376,-2224,-131,-13,-7
3010.4410000000003,309,-212,16376,-2224,-131,-13,-7
3012.6110000000003,308,-212,16376,-2224,-131,-13,-7
3012.6110000000003,307,-212,16376,-2224,-131,-13,-7
3012.6110000000003,308,-212,16376,-2224,-131,-13,-7
3021.0460000000003,308,-212,16376,-2224,-131,-13,-7
3023.746,308,-184,16356,-2208,36,-48,2
3026.6609999999996,308,-184,16356,-2208,36,-48,2
3030.687,308,-184,16356,-2208,36,-48,2
3032.703,308,-184,16356,-2208,36,-48,2
3032.703,308,-184,16356,-2208,36,-48,2
3037.162,307,-184,16356,-2208,36,-48,2
3037.162,308,-184,16356,-2208,36,-48,2
3037.162,308,-172,16400,-2260,-13,-28,-6
3045.3320000000003,308,-172,16400,-2260,-13,-28,-6
3045.3320000000003,309,-172,16400,-2260,-13,-28,-6
3050.311,308,-172,16400,-2260,-13,-28,-6
3053.4089999999997,308,-172,16400,-2260,-13,-28,-6
3056.9320000000002,308,-172,16400,-2260,-13,-28,-6
3059.411,307,-172,16400,-2260,-13,-28,-6
3061.429,308,-200,16372,-2232,-119,-31,-4
3061.429,308,-200,16372,-2232,-119,-31,-4
3061.429,308,-200,16372,-2232,-119,-31,-4
3069.8439999999996,308,-200,16372,-2232,-119,-31,-4
3075.715,309,-200,16372,-2232,-119,-31,-4
3075.715,308,-200,16372,-2232,-119,-31,-4
3078.255,308,-200,16372,-2232,-119,-31,-4
3078.255,309,-228,16364,-2228,-9,-41,-13
3078.255,308,-228,16364,-2228,-9,-41,-13
3086.387,308,-228,16364,-2228,-9,-41,-13
3090.287,309,-228,16364,-2228,-9,-41,-13
3094.539,308,-228,16364,-2228,-9,-41,-13
3096.5539999999996,308,-228,16364,-2228,-9,-41,-13
3098.687,309,-228,16364,-2228,-9,-41,-13
3102.5719999999997,308,-244,16364,-2280,5,-34,-4
3102.5719999999997,309,-244,16364,-2280,5,-34,-4
3102.5719999999997,308,-244,16364,-2280,5,-34,-4
3111.5029999999997,309,-244,16364,-2280,5,-34,-4
3113.931,308,-244,16364,-2280,5,-34,-4
3115.062,308,-244,16364,-2280,5,-34,-4
3115.062,308,-244,16364,-2280,5,-34,-4
3119.151,308,-228,16336,-2232,-71,-31,-8
3122.91,309,-228,16336,-2232,-71,-31,-8
3127.6079999999997,308,-228,16336,-2232,-71,-31,-8
3127.6079999999997,309,-228,16336,-2232,-71,-31,-8
3134.17,308,-228,16336,-2232,-71,-31,-8
3137.2309999999998,307,-228,16336,-2232,-71,-31,-8
3137.918,308,-228,16336,-2232,-71,-31,-8
3141.471,308,-200,16356,-2228,-32,-39,-4
3143.624,307,-200,16356,-2228,-32,-39,-4
3143.624,308,-200,16356,-2228,-32,-39,-4
3148.7980000000002,309,-200,16356,-2228,-32,-39,-4
3151.865,308,-200,16356,-2228,-32,-39,-4
3156.7569999999996,308,-200,16356,-2228,-32,-39,-4
3159.955,307,-200,16356,-2228,-32,-39,-4
3159.955,308,-200,16356,-2228,-32,-39,-4
3163.4159999999997,309,-204,16328,-2248,5,-25,-12
3163.4159999999997,309,-204,16328,-2248,5,-25,-12
3170.395,309,-204,16328,-2248,5,-25,-12
3174.2599999999998,308,-204,16328,-2248,5,-25,-12
3176.239,307,-204,16328,-2248,5,-25,-12
3176.239,308,-204,16328,-2248,5,-25,-12
3176.239,307,-204,16328,-2248,5,-25,-12
3176.239,307,-200,16388,-2252,-63,-33,-1
3186.735,308,-200,16388,-2252,-63,-33,-1
3190.969,308,-200,16388,-2252,-63,-33,-1
3192.594,308,-200,16388,-2252,-63,-33,-1
3193.6079999999997,308,-200,16388,-2252,-63,-33,-1
3195.616,307,-200,16388,-2252,-63,-33,-1
3195.616,308,-200,16388,-2252,-63,-33,-1
3201.039,308,-228,16292,-2220,-57,-47,5
3207.132,308,-228,16292,-2220,-57,-47,5
3207.132,309,-228,16292,-2220,-57,-47,5
3211.7960000000003,308,-228,16292,-2220,-57,-47,5
3213.808,308,-228,16292,-2220,-57,-47,5
3215.816,308,-228,16292,-2220,-57,-47,5
3219.576,307,-228,16292,-2220,-57,-47,5
3222.985,308,-176,16336,-2256,34,-34,-5
3225.022,308,-176,16336,-2256,34,-34,-5
3227.038,308,-176,16336,-2256,34,-34,-5
3231.052,308,-176,16336,-2256,34,-34,-5
3234.064,308,-176,16336,-2256,34,-34,-5
3236.0699999999997,308,-176,16336,-2256,34,-34,-5
3239.246,307,-176,16336,-2256,34,-34,-5
3242.029,307,-188,16396,-2264,-63,-50,-17
3244.0370000000003,307,-188,16396,-2264,-63,-50,-17
3248.051,307,-188,16396,-2264,-63,-50,-17
3250.066,308,-188,16396,-2264,-63,-50,-17
3250.066,308,-188,16396,-2264,-63,-50,-17
3256.185,308,-188,16396,-2264,-63,-50,-17
3260.355,307,-188,16396,-2264,-63,-50,-17
3262.3630000000003,307,-156,16312,-2184,-81,-38,-14
3262.3630000000003,308,-156,16312,-2184,-81,-38,-14
3268.5840000000003,309,-156,16312,-2184,-81,-38,-14
3270.5899999999997,308,-156,16312,-2184,-81,-38,-14
3270.5899999999997,308,-156,16312,-2184,-81,-38,-14
3274.9579999999996,307,-156,16312,-2184,-81,-38,-14
3274.9579999999996,308,-156,16312,-2184,-81,-38,-14
3283.394,307,-228,16328,-2216,29,-34,-5
3283.394,308,-228,16328,-2216,29,-34,-5
3283.394,308,-228,16328,-2216,29,-34,-5
3291.793,308,-228,16328,-2216,29,-34,-5
3291.793,308,-228,16328,-2216,29,-34,-5
3291.793,307,-228,16328,-2216,29,-34,-5
3299.94,308,-228,16328,-2216,29,-34,-5
3299.94,307,-192,16328,-2280,-30,-45,-8
3299.94,308,-192,16328,-2280,-30,-45,-8
3308.388,308,-192,16328,-2280,-30,-45,-8
3308.388,308,-192,16328,-2280,-30,-45,-8
3308.388,308,-192,16328,-2280,-30,-45,-8
3316.919,307,-192,16328,-2280,-30,-45,-8
3316.919,308,-192,16328,-2280,-30,-45,-8
3320.258,308,-240,16356,-2244,-116,-24,4
3325.4139999999998,307,-240,16356,-2244,-116,-24,4
3327.125,307,-240,16356,-2244,-116,-24,4
3327.125,308,-240,16356,-2244,-116,-24,4
3333.776,307,-240,16356,-2244,-116,-24,4
3333.776,308,-240,16356,-2244,-116,-24,4
3340.516,307,-240,16356,-2244,-116,-24,4
3341.917,308,-232,16244,-2216,13,-55,-19
3341.917,307,-232,16244,-2216,13,-55,-19
3341.917,308,-232,16244,-2216,13,-55,-19
3349.996,308,-232,16244,-2216,13,-55,-19
3349.996,308,-232,16244,-2216,13,-55,-19
3356.4919999999997,307,-232,16244,-2216,13,-55,-19
3360.169,307,-232,16244,-2216,13,-55,-19
3363.2960000000003,307,-232,16244,-2216,13,-55,-19
3366.859,308,-216,16328,-2228,35,-43,-26
3366.859,308,-216,16328,-2228,35,-43,-26
3366.859,308,-216,16328,-2228,35,-43,-26
3375.23,307,-216,16328,-2228,35,-43,-26
3375.23,308,-216,16328,-2228,35,-43,-26
3375.23,307,-216,16328,-2228,35,-43,-26
3375.23,307,-216,16328,-2228,35,-43,-26
3384.494,308,-188,16372,-2272,-106,-31,-15
3384.494,308,-188,16372,-2272,-106,-31,-15
3392.154,307,-188,16372,-2272,-106,-31,-15
3392.154,308,-188,16372,-2272,-106,-31,-15
3392.154,308,-188,16372,-2272,-106,-31,-15
3400.406,308,-188,16372,-2272,-106,-31,-15
3400.406,307,-228,16300,-2204,-48,-41,-7
3400.406,308,-228,16300,-2204,-48,-41,-7
3408.528,307,-228,16300,-2204,-48,-41,-7
3408.528,308,-228,16300,-2204,-48,-41,-7
3408.528,308,-228,16300,-2204,-48,-41,-7
3417.029,308,-228,16300,-2204,-48,-41,-7
3417.029,307,-228,16300,-2204,-48,-41,-7
3417.029,307,-236,16376,-2276,60,-21,8
3425.484,308,-236,16376,-2276,60,-21,8
3427.4179999999997,307,-236,16376,-2276,60,-21,8
3427.4179999999997,308,-236,16376,-2276,60,-21,8
3433.8489999999997,307,-236,16376,-2276,60,-21,8
3433.8489999999997,307,-236,16376,-2276,60,-21,8
3440.1259999999997,307,-236,16376,-2276,60,-21,8
3441.92,307,-236,16376,-2276,60,-21,8
3444.074,308,-208,16352,-2216,-67,-34,-10
3448.099,308,-208,16352,-2216,-67,-34,-10
3450.108,308,-208,16352,-2216,-67,-34,-10
3452.1169999999997,308,-208,16352,-2216,-67,-34,-10
3454.126,308,-208,16352,-2216,-67,-34,-10
3458.828,307,-208,16352,-2216,-67,-34,-10
3458.828,308,-208,16352,-2216,-67,-34,-10
3458.828,307,-216,16356,-2236,-83,-54,-16
3466.666,308,-216,16356,-2236,-83,-54,-16
3466.666,308,-216,16356,-2236,-83,-54,-16
3472.541,308,-216,16356,-2236,-83,-54,-16
3474.702,308,-216,16356,-2236,-83,-54,-16
3474.702,307,-216,16356,-2236,-83,-54,-16
3474.702,307,-216,16356,-2236,-83,-54,-16
3482.763,308,-252,16344,-2244,27,-37,-1
3482.763,307,-252,16344,-2244,27,-37,-1
3490.822,307,-252,16344,-2244,27,-37,-1
3490.822,308,-252,16344,-2244,27,-37,-1
3490.822,307,-252,16344,-2244,27,-37,-1
3499.264,307,-252,16344,-2244,27,-37,-1
3501.229,308,-252,16344,-2244,27,-37,-1
3501.229,307,-212,16356,-2256,-17,-18,-18
3507.061,307,-212,16356,-2256,-17,-18,-18
3507.061,308,-212,16356,-2256,-17,-18,-18
3507.061,308,-212,16356,-2256,-17,-18,-18
3515.327,307,-212,16356,-2256,-17,-18,-18
3515.327,307,-212,16356,-2256,-17,-18,-18
3515.327,307,-212,16356,-2256,-17,-18,-18
3523.7090000000003,308,-184,16288,-2224,-101,-46,1
3528.774,307,-184,16288,-2224,-101,-46,1
3528.774,308,-184,16288,-2224,-101,-46,1
3534.2780000000002,308,-184,16288,-2224,-101,-46,1
3536.289,307,-184,16288,-2224,-101,-46,1
3539.97,307,-184,16288,-2224,-101,-46,1
3539.97,308,-184,16288,-2224,-101,-46,1
3539.97,307,-204,16364,-2240,-10,-44,-5
3539.97,308,-204,16364,-2240,-10,-44,-5
3548.118,308,-204,16364,-2240,-10,-44,-5
3548.118,308,-204,16364,-2240,-10,-44,-5
3556.4770000000003,308,-204,16364,-2240,-10,-44,-5
3557.79,307,-204,16364,-2240,-10,-44,-5
3557.79,307,-204,16364,-2240,-10,-44,-5
3564.758,308,-188,16380,-2304,-19,-44,6
3564.758,308,-188,16380,-2304,-19,-44,6
3564.758,308,-188,16380,-2304,-19,-44,6
3573.214,308,-188,16380,-2304,-19,-44,6
3573.214,308,-188,16380,-2304,-19,-44,6
3573.214,308,-188,16380,-2304,-19,-44,6
3581.47,307,-188,16380,-2304,-19,-44,6
3582.135,308,-216,16324,-2252,-86,-38,-12
3582.135,308,-216,16324,-2252,-86,-38,-12
3589.746,309,-216,16324,-2252,-86,-38,-12
3589.746,308,-216,16324,-2252,-86,-38,-12
3589.746,308,-216,16324,-2252,-86,-38,-12
3598.217,307,-216,16324,-2252,-86,-38,-12
3598.217,308,-216,16324,-2252,-86,-38,-12
3598.217,307,-248,16364,-2160,2,-31,-12
3607.0660000000003,308,-248,16364,-2160,2,-31,-12
3609.63,308,-248,16364,-2160,2,-31,-12
3609.63,308,-248,16364,-2160,2,-31,-12
3615.193,307,-248,16364,-2160,2,-31,-12
3617.204,308,-248,16364,-2160,2,-31,-12
3621.224,308,-248,16364,-2160,2,-31,-12
3623.6929999999998,308,-236,16384,-2252,-1,-41,8
3623.6929999999998,308,-236,16384,-2252,-1,-41,8
3627.6839999999997,308,-236,16384,-2252,-1,-41,8
3631.261,309,-236,16384,-2252,-1,-41,8
3631.261,308,-236,16384,-2252,-1,-41,8
3631.261,308,-236,16384,-2252,-1,-41,8
3640.915,308,-236,16384,-2252,-1,-41,8
3640.915,307,-236,16384,-2252,-1,-41,8
3645.486,308,-204,16352,-2236,-79,-15,11
3648.963,308,-204,16352,-2236,-79,-15,11
3650.975,308,-204,16352,-2236,-79,-15,11
3652.06,308,-204,16352,-2236,-79,-15,11
3655.9080000000004,308,-204,16352,-2236,-79,-15,11
3658.582,308,-204,16352,-2236,-79,-15,11
3660.597,307,-204,16352,-2236,-79,-15,11
3665.547,308,-200,16280,-2220,4,-28,-18
3665.547,308,-200,16280,-2220,4,-28,-18
3665.547,309,-200,16280,-2220,4,-28,-18
3672.628,307,-200,16280,-2220,4,-28,-18
3672.628,308,-200,16280,-2220,4,-28,-18
3672.628,307,-200,16280,-2220,4,-28,-18
3680.7349999999997,308,-200,16280,-2220,4,-28,-18
3680.7349999999997,308,-228,16368,-2236,12,-28,1
3680.7349999999997,308,-228,16368,-2236,12,-28,1
3689.795,309,-228,16368,-2236,12,-28,1
3692.904,309,-228,16368,-2236,12,-28,1
3692.904,308,-228,16368,-2236,12,-28,1
3697.204,308,-228,16368,-2236,12,-28,1
3697.204,308,-228,16368,-2236,12,-28,1
3697.204,308,-228,16368,-2236,12,-28,1
3705.4680000000003,308,-204,16344,-2264,-72,-38,2
3708.031,308,-204,16344,-2264,-72,-38,2
3708.031,308,-204,16344,-2264,-72,-38,2
3713.6650000000004,309,-204,16344,-2264,-72,-38,2
3713.6650000000004,308,-204,16344,-2264,-72,-38,2
3713.6650000000004,307,-204,16344,-2264,-72,-38,2
3721.893,308,-204,16344,-2264,-72,-38,2
3723.922,308,-184,16360,-2216,-69,-41,-13
3727.665,309,-184,16360,-2216,-69,-41,-13
3730.456,309,-184,16360,-2216,-69,-41,-13
3730.456,308,-184,16360,-2216,-69,-41,-13
3730.456,308,-184,16360,-2216,-69,-41,-13
3740.231,308,-184,16360,-2216,-69,-41,-13
3740.231,308,-184,16360,-2216,-69,-41,-13
3740.231,308,-272,16264,-2224,17,-58,7
3747.031,309,-272,16264,-2224,17,-58,7
3747.031,308,-272,16264,-2224,17,-58,7
3747.031,308,-272,16264,-2224,17,-58,7
3755.368,308,-272,16264,-2224,17,-58,7
3758.5060000000003,308,-272,16264,-2224,17,-58,7
3760.522,308,-272,16264,-2224,17,-58,7
3763.567,308,-172,16360,-2216,-52,-44,-6
3766.364,308,-172,16360,-2216,-52,-44,-6
3766.364,308,-172,16360,-2216,-52,-44,-6
3772.797,309,-172,16360,-2216,-52,-44,-6
3773.956,309,-172,16360,-2216,-52,-44,-6
3773.956,308,-172,16360,-2216,-52,-44,-6
3780.423,308,-172,16360,-2216,-52,-44,-6
3780.423,308,-216,16396,-2248,-83,-21,5
3780.423,309,-216,16396,-2248,-83,-21,5
3787.919,308,-216,16396,-2248,-83,-21,5
3790.4559999999997,308,-216,16396,-2248,-83,-21,5
3790.4559999999997,308,-216,16396,-2248,-83,-21,5
3796.4880000000003,308,-216,16396,-2248,-83,-21,5
3798.4680000000003,308,-216,16396,-2248,-83,-21,5
3798.4680000000003,309,-216,16396,-2248,-83,-21,5
3807.335,308,-232,16304,-2252,-11,-38,-15
3809.513,308,-232,16304,-2252,-11,-38,-15
3813.2980000000002,308,-232,16304,-2252,-11,-38,-15
3813.2980000000002,309,-232,16304,-2252,-11,-38,-15
3813.2980000000002,308,-232,16304,-2252,-11,-38,-15
3821.764,308,-232,16304,-2252,-11,-38,-15
3824.876,308,-240,16308,-2236,-10,-43,-22
3824.876,308,-240,16308,-2236,-10,-43,-22
3829.6820000000002,309,-240,16308,-2236,-10,-43,-22
3829.6820000000002,309,-240,16308,-2236,-10,-43,-22
3829.6820000000002,308,-240,16308,-2236,-10,-43,-22
3837.79,308,-240,16308,-2236,-10,-43,-22
3840.446,308,-240,16308,-2236,-10,-43,-22
3840.446,308,-252,16260,-2260,-60,-55,-20
3845.985,309,-252,16260,-2260,-60,-55,-20
3849.723,308,-252,16260,-2260,-60,-55,-20
3854.226,309,-252,16260,-2260,-60,-55,-20
3854.226,309,-252,16260,-2260,-60,-55,-20
3858.079,308,-252,16260,-2260,-60,-55,-20
3862.466,308,-252,16260,-2260,-60,-55,-20
3862.466,308,-192,16396,-2232,-22,-41,-7
3862.466,309,-192,16396,-2232,-22,-41,-7
3870.828,308,-192,16396,-2232,-22,-41,-7
3870.828,309,-192,16396,-2232,-22,-41,-7
3870.828,308,-192,16396,-2232,-22,-41,-7
3878.88,308,-192,16396,-2232,-22,-41,-7
3880.608,308,-192,16396,-2232,-22,-41,-7
3880.608,309,-164,16336,-2252,-44,-26,2
3887.108,309,-164,16336,-2252,-44,-26,2
3887.108,309,-164,16336,-2252,-44,-26,2
3891.946,308,-164,16336,-2252,-44,-26,2
3896.209,309,-164,16336,-2252,-44,-26,2
3896.209,308,-164,16336,-2252,-44,-26,2
3896.209,309,-164,16336,-2252,-44,-26,2
3903.445,308,-252,16304,-2220,-35,-41,-13
3906.536,309,-252,16304,-2220,-35,-41,-13
3906.536,309,-252,16304,-2220,-35,-41,-13
3911.883,308,-252,16304,-2220,-35,-41,-13
3914.018,309,-252,16304,-2220,-35,-41,-13
3920.111,308,-252,16304,-2220,-35,-41,-13
3920.111,309,-252,16304,-2220,-35,-41,-13
3923.7540000000004,308,-192,16356,-2264,0,-49,-4
3923.7540000000004,309,-192,16356,-2264,0,-49,-4
3928.192,309,-192,16356,-2264,0,-49,-4
3932.076,308,-192,16356,-2264,0,-49,-4
3932.076,309,-192,16356,-2264,0,-49,-4
3936.698,308,-192,16356,-2264,0,-49,-4
3939.92,308,-192,16356,-2264,0,-49,-4
3939.92,308,-192,16356,-2264,0,-49,-4
3944.9230000000002,308,-212,16372,-2260,-48,-27,-9
3948.639,309,-212,16372,-2260,-48,-27,-9
3948.639,309,-212,16372,-2260,-48,-27,-9
3953.224,309,-212,16372,-2260,-48,-27,-9
3957.244,309,-212,16372,-2260,-48,-27,-9
3957.244,308,-212,16372,-2260,-48,-27,-9
3961.542,308,-212,16372,-2260,-48,-27,-9
3961.542,308,-200,16344,-2236,-60,-30,-13
3961.542,309,-200,16344,-2236,-60,-30,-13
3973.286,309,-200,16344,-2236,-60,-30,-13
3973.286,308,-200,16344,-2236,-60,-30,-13
3977.348,308,-200,16344,-2236,-60,-30,-13
3977.348,308,-200,16344,-2236,-60,-30,-13
3977.348,308,-200,16344,-2236,-60,-30,-13
3985.377,308,-240,16316,-2252,-34,-34,-30
3985.377,309,-240,16316,-2252,-34,-34,-30
3993.551,308,-240,16316,-2252,-34,-34,-30
3993.551,309,-240,16316,-2252,-34,-34,-30
3997.64,308,-240,16316,-2252,-34,-34,-30
4001.9460000000004,308,-240,16316,-2252,-34,-34,-30
4001.9460000000004,307,-240,16316,-2252,-34,-34,-30
4006.2550000000006,307,-196,16332,-2232,-12,-25,-12
4010.026,309,-196,16332,-2232,-12,-25,-12
4011.2050000000004,308,-196,16332,-2232,-12,-25,-12
4011.2050000000004,308,-196,16332,-2232,-12,-25,-12
4018.091,307,-196,16332,-2232,-12,-25,-12
4018.8430000000003,307,-196,16332,-2232,-12,-25,-12
4024.158,308,-196,16332,-2232,-12,-25,-12
4026.168,308,-184,16380,-2232,-85,-42,-17
4030.582,308,-184,16380,-2232,-85,-42,-17
4034.656,308,-184,16380,-2232,-85,-42,-17
4034.656,308,-184,16380,-2232,-85,-42,-17
4034.656,308,-184,16380,-2232,-85,-42,-17
4042.6719999999996,307,-184,16380,-2232,-85,-42,-17
4042.6719999999996,307,-164,16332,-2232,-81,-34,-1
4042.6719999999996,307,-164,16332,-2232,-81,-34,-1
4050.859,308,-164,16332,-2232,-81,-34,-1
4050.859,308,-164,16332,-2232,-81,-34,-1
4054.8,308,-164,16332,-2232,-81,-34,-1
4059.217,307,-164,16332,-2232,-81,-34,-1
4063.178,307,-164,16332,-2232,-81,-34,-1
4063.178,308,-216,16348,-2244,-7,-22,-1
4063.178,308,-216,16348,-2244,-7,-22,-1
4067.7640000000006,308,-216,16348,-2244,-7,-22,-1
4067.7640000000006,308,-216,16348,-2244,-7,-22,-1
4075.851,307,-216,16348,-2244,-7,-22,-1
4079.542,307,-216,16348,-2244,-7,-22,-1
4080.97,308,-216,16348,-2244,-7,-22,-1
4080.97,307,-216,16348,-2244,-7,-22,-1
4084.3809999999994,307,-180,16360,-2220,-52,-37,-1
4090.135,308,-180,16360,-2220,-52,-37,-1
4090.135,308,-180,16360,-2220,-52,-37,-1
4094.597,308,-180,16360,-2220,-52,-37,-1
4094.597,307,-180,16360,-2220,-52,-37,-1
4098.227,307,-180,16360,-2220,-52,-37,-1
4101.098,308,-180,16360,-2220,-52,-37,-1
4101.098,308,-212,16324,-2252,-73,-33,-2
4106.325,307,-212,16324,-2252,-73,-33,-2
4109.616,307,-212,16324,-2252,-73,-33,-2
4109.616,308,-212,16324,-2252,-73,-33,-2
4109.616,307,-212,16324,-2252,-73,-33,-2
4117.954,307,-212,16324,-2252,-73,-33,-2
4117.954,308,-212,16324,-2252,-73,-33,-2
4126.54,308,-176,16284,-2264,0,-42,0
4128.675,307,-176,16284,-2264,0,-42,0
4130.845,308,-176,16284,-2264,0,-42,0
4130.845,307,-176,16284,-2264,0,-42,0
4136.880999999999,307,-176,16284,-2264,0,-42,0
4136.880999999999,307,-176,16284,-2264,0,-42,0
4140.641,307,-176,16284,-2264,0,-42,0
4142.657,307,-176,16284,-2264,0,-42,0
4142.657,307,-232,16344,-2260,-11,-38,-2
4142.657,308,-232,16344,-2260,-11,-38,-2
4153.282,308,-232,16344,-2260,-11,-38,-2
4153.282,308,-232,16344,-2260,-11,-38,-2
4158.501,307,-232,16344,-2260,-11,-38,-2
4161.294,306,-232,16344,-2260,-11,-38,-2
4165.028,307,-232,16344,-2260,-11,-38,-2
4166.2429999999995,308,-220,16340,-2256,-68,-28,-10
4166.2429999999995,307,-220,16340,-2256,-68,-28,-10
4166.2429999999995,307,-220,16340,-2256,-68,-28,-10
4174.476000000001,307,-220,16340,-2256,-68,-28,-10
4178.067999999999,306,-220,16340,-2256,-68,-28,-10
4181.664,306,-220,16340,-2256,-68,-28,-10
4182.68,308,-220,16340,-2256,-68,-28,-10
4182.68,306,-256,16364,-2236,-25,-42,-8
4191.998,307,-256,16364,-2236,-25,-42,-8
4193.201,307,-256,16364,-2236,-25,-42,-8
4195.341,306,-256,16364,-2236,-25,-42,-8
4195.341,305,-256,16364,-2236,-25,-42,-8
4202.410000000001,305,-256,16364,-2236,-25,-42,-8
4202.410000000001,305,-256,16364,-2236,-25,-42,-8
4207.500999999999,304,-192,16360,-2292,19,-10,-21
4207.500999999999,303,-192,16360,-2292,19,-10,-21
4207.500999999999,301,-192,16360,-2292,19,-10,-21
4207.500999999999,300,-192,16360,-2292,19,-10,-21
4218.7789999999995,299,-192,16360,-2292,19,-10,-21
4221.977,300,-192,16360,-2292,19,-10,-21
4224.005,301,-192,16360,-2292,19,-10,-21
4227.017,301,-172,16284,-2240,-91,-58,-14
4231.12,301,-172,16284,-2240,-91,-58,-14
4232.135,302,-172,16284,-2240,-91,-58,-14
4235.171,301,-172,16284,-2240,-91,-58,-14
4235.171,301,-172,16284,-2240,-91,-58,-14
4243.342000000001,301,-172,16284,-2240,-91,-58,-14
4243.342000000001,301,-240,16348,-2224,-46,-36,14
4243.342000000001,301,-240,16348,-2224,-46,-36,14
4248.656000000001,300,-240,16348,-2224,-46,-36,14
4248.656000000001,298,-240,16348,-2224,-46,-36,14
4256.369000000001,296,-240,16348,-2224,-46,-36,14
4258.378000000001,290,-240,16348,-2224,-46,-36,14
4258.378000000001,289,-240,16348,-2224,-46,-36,14
4258.378000000001,290,-240,16348,-2224,-46,-36,14
4264.662,290,-200,16340,-2252,27,-42,-12
4264.662,291,-200,16340,-2252,27,-42,-12
4273.048,290,-200,16340,-2252,27,-42,-12
4275.955,290,-200,16340,-2252,27,-42,-12
4279.902,289,-200,16340,-2252,27,-42,-12
4279.902,288,-200,16340,-2252,27,-42,-12
4284.445,287,-200,16340,-2252,27,-42,-12
4284.445,287,-204,16308,-2284,-79,-27,-5
4289.879,286,-204,16308,-2284,-79,-27,-5
4289.879,287,-204,16308,-2284,-79,-27,-5
4289.879,288,-204,16308,-2284,-79,-27,-5
4289.879,288,-204,16308,-2284,-79,-27,-5
4300.929,288,-204,16308,-2284,-79,-27,-5
4300.929,289,-204,16308,-2284,-79,-27,-5
4308.676,291,-236,16312,-2236,-66,-27,-1
4308.676,289,-236,16312,-2236,-66,-27,-1
4312.36,288,-236,16312,-2236,-66,-27,-1
4315.259,287,-236,16312,-2236,-66,-27,-1
4315.259,287,-236,16312,-2236,-66,-27,-1
4315.259,289,-236,16312,-2236,-66,-27,-1
4324.446,291,-236,16312,-2236,-66,-27,-1
4326.455,292,-224,16380,-2248,10,-28,-26
4328.9169999999995,295,-224,16380,-2248,10,-28,-26
4333.1359999999995,296,-224,16380,-2248,10,-28,-26
4333.1359999999995,296,-224,16380,-2248,10,-28,-26
4335.5160000000005,296,-224,16380,-2248,10,-28,-26
4340.964,296,-224,16380,-2248,10,-28,-26
4342.974,298,-224,16380,-2248,10,-28,-26
4342.974,298,-228,16332,-2228,-60,-40,-27
4347.55,299,-228,16332,-2228,-60,-40,-27
4347.55,300,-228,16332,-2228,-60,-40,-27
4347.55,301,-228,16332,-2228,-60,-40,-27
4358.411,301,-228,16332,-2228,-60,-40,-27
4358.411,300,-228,16332,-2228,-60,-40,-27
4363.911,301,-228,16332,-2228,-60,-40,-27
4363.911,301,-180,16388,-2224,-65,-30,1
4370.563,302,-180,16388,-2224,-65,-30,1
4372.274,301,-180,16388,-2224,-65,-30,1
4375.786,300,-180,16388,-2224,-65,-30,1
4375.786,300,-180,16388,-2224,-65,-30,1
4380.683,301,-180,16388,-2224,-65,-30,1
4382.692,302,-180,16388,-2224,-65,-30,1
4386.7029999999995,303,-192,16348,-2240,18,-28,-10
4389.084000000001,303,-192,16348,-2240,18,-28,-10
4389.084000000001,303,-192,16348,-2240,18,-28,-10
4389.084000000001,303,-192,16348,-2240,18,-28,-10
4398.629,303,-192,16348,-2240,18,-28,-10
4399.714999999999,303,-192,16348,-2240,18,-28,-10
4400.444,303,-192,16348,-2240,18,-28,-10
4406.2029999999995,305,-212,16352,-2272,3,-30,11
4406.2029999999995,305,-212,16352,-2272,3,-30,11
4406.2029999999995,305,-212,16352,-2272,3,-30,11
4413.553,304,-212,16352,-2272,3,-30,11
4413.553,305,-212,16352,-2272,3,-30,11
4413.553,304,-212,16352,-2272,3,-30,11
4423.014,304,-212,16352,-2272,3,-30,11
4423.014,305,-204,16356,-2296,-81,-31,-3
4423.014,306,-204,16356,-2296,-81,-31,-3
4431.247,307,-204,16356,-2296,-81,-31,-3
4431.247,306,-204,16356,-2296,-81,-31,-3
4431.247,306,-204,16356,-2296,-81,-31,-3
4439.917,306,-204,16356,-2296,-81,-31,-3
4439.917,305,-204,16356,-2296,-81,-31,-3
4439.917,304,-200,16316,-2240,-29,-31,-4
4446.214,305,-200,16316,-2240,-29,-31,-4
4446.214,305,-200,16316,-2240,-29,-31,-4
4446.214,305,-200,16316,-2240,-29,-31,-4
4454.448,305,-200,16316,-2240,-29,-31,-4
4454.448,305,-200,16316,-2240,-29,-31,-4
4454.448,304,-200,16316,-2240,-29,-31,-4
4462.655,305,-200,16316,-2240,-29,-31,-4
4462.655,305,-180,16368,-2232,1,-40,-15
4462.655,306,-180,16368,-2232,1,-40,-15
4473.054999999999,306,-180,16368,-2232,1,-40,-15
4477.003,306,-180,16368,-2232,1,-40,-15
4477.582,306,-180,16368,-2232,1,-40,-15
4478.813,306,-180,16368,-2232,1,-40,-15
4478.813,308,-180,16368,-2232,1,-40,-15
4478.813,308,-224,16364,-2264,-60,-27,-17
4488.929,308,-224,16364,-2264,-60,-27,-17
4492.961,307,-224,16364,-2264,-60,-27,-17
4495.1179999999995,307,-224,16364,-2264,-60,-27,-17
4495.1179999999995,306,-224,16364,-2264,-60,-27,-17
4495.1179999999995,307,-224,16364,-2264,-60,-27,-17
4503.991,307,-224,16364,-2264,-60,-27,-17
4503.991,308,-164,16340,-2228,-68,-36,-18
4503.991,308,-164,16340,-2228,-68,-36,-18
4511.711,307,-164,16340,-2228,-68,-36,-18
4511.711,306,-164,16340,-2228,-68,-36,-18
4511.711,305,-164,16340,-2228,-68,-36,-18
4519.937,306,-164,16340,-2228,-68,-36,-18
4523.878,307,-164,16340,-2228,-68,-36,-18
4523.878,308,-212,16364,-2232,26,-33,-11
4528.032999999999,308,-212,16364,-2232,26,-33,-11
4534.161,307,-212,16364,-2232,26,-33,-11
4536.392,306,-212,16364,-2232,26,-33,-11
4540.267,307,-212,16364,-2232,26,-33,-11
4540.267,306,-212,16364,-2232,26,-33,-11
4544.661,307,-212,16364,-2232,26,-33,-11
4544.661,307,-192,16360,-2304,-62,-11,-13
4544.661,308,-192,16360,-2304,-62,-11,-13
4553.473,308,-192,16360,-2304,-62,-11,-13
4553.473,307,-192,16360,-2304,-62,-11,-13
4553.473,307,-192,16360,-2304,-62,-11,-13
4562.8099999999995,307,-192,16360,-2304,-62,-11,-13
4562.8099999999995,307,-212,16376,-2192,-91,-42,-10
4562.8099999999995,308,-212,16376,-2192,-91,-42,-10
4569.282,308,-212,16376,-2192,-91,-42,-10
4574.571,308,-212,16376,-2192,-91,-42,-10
4574.571,307,-212,16376,-2192,-91,-42,-10
4577.636,306,-212,16376,-2192,-91,-42,-10
4577.636,308,-212,16376,-2192,-91,-42,-10
4587.415,308,-220,16312,-2232,-17,-2,-11
4587.415,309,-220,16312,-2232,-17,-2,-11
4587.415,310,-220,16312,-2232,-17,-2,-11
4594.252,308,-220,16312,-2232,-17,-2,-11
4594.252,309,-220,16312,-2232,-17,-2,-11
4594.252,309,-220,16312,-2232,-17,-2,-11
4602.341,310,-220,16312,-2232,-17,-2,-11
4602.341,310,-232,16308,-2232,-30,-54,-2
4602.341,308,-232,16308,-2232,-30,-54,-2
4611.928,308,-232,16308,-2232,-30,-54,-2
4611.928,308,-232,16308,-2232,-30,-54,-2
4611.928,307,-232,16308,-2232,-30,-54,-2
4619.987,306,-232,16308,-2232,-30,-54,-2
4620.921,307,-232,16308,-2232,-30,-54,-2
4620.921,308,-200,16324,-2224,-14,-35,-13
4627.658,309,-200,16324,-2224,-14,-35,-13
4631.74,309,-200,16324,-2224,-14,-35,-13
4631.74,309,-200,16324,-2224,-14,-35,-13
4635.335999999999,310,-200,16324,-2224,-14,-35,-13
4639.919,310,-200,16324,-2224,-14,-35,-13
4643.572,309,-200,16324,-2224,-14,-35,-13
4643.572,310,-188,16388,-2240,-61,-30,-18
4643.572,310,-188,16388,-2240,-61,-30,-18
4651.764,309,-188,16388,-2240,-61,-30,-18
4656.742,310,-188,16388,-2240,-61,-30,-18
4658.574,310,-188,16388,-2240,-61,-30,-18
4661.1669999999995,310,-188,16388,-2240,-61,-30,-18
4661.1669999999995,310,-188,16388,-2240,-61,-30,-18
4661.1669999999995,310,-204,16356,-2232,-40,-20,0
4669.561,309,-204,16356,-2232,-40,-20,0
4673.546,309,-204,16356,-2232,-40,-20,0
4673.546,309,-204,16356,-2232,-40,-20,0
4676.942999999999,310,-204,16356,-2232,-40,-20,0
4680.384,310,-204,16356,-2232,-40,-20,0
4680.384,311,-204,16356,-2232,-40,-20,0
4685.369,311,-244,16348,-2208,-44,-43,-24
4690.457,311,-244,16348,-2208,-44,-43,-24
4692.472000000001,311,-244,16348,-2208,-44,-43,-24
4692.472000000001,310,-244,16348,-2208,-44,-43,-24
4692.472000000001,309,-244,16348,-2208,-44,-43,-24
4700.68,307,-244,16348,-2208,-44,-43,-24
4700.68,309,-244,16348,-2208,-44,-43,-24
4703.927000000001,308,-224,16408,-2196,-33,-35,-10
4709.04,308,-224,16408,-2196,-33,-35,-10
4713.056,307,-224,16408,-2196,-33,-35,-10
4715.062,306,-224,16408,-2196,-33,-35,-10
4717.069,307,-224,16408,-2196,-33,-35,-10
4721.0830000000005,307,-224,16408,-2196,-33,-35,-10
4723.091,308,-224,16408,-2196,-33,-35,-10
4727.817,308,-244,16324,-2296,-13,-19,2
4737.594999999999,308,-244,16324,-2296,-13,-19,2
4741.977000000001,308,-244,16324,-2296,-13,-19,2
4743.630999999999,308,-244,16324,-2296,-13,-19,2
4743.630999999999,309,-244,16324,-2296,-13,-19,2
4744.637,309,-244,16324,-2296,-13,-19,2
4745.666,308,-244,16324,-2296,-13,-19,2
4746.683,310,-220,16328,-2280,-30,-43,-16
4750.332,310,-220,16328,-2280,-30,-43,-16
4750.332,310,-220,16328,-2280,-30,-43,-16
4753.447,310,-220,16328,-2280,-30,-43,-16
4759.491,309,-220,16328,-2280,-30,-43,-16
4759.491,309,-220,16328,-2280,-30,-43,-16
4759.491,308,-220,16328,-2280,-30,-43,-16
4767.576,309,-220,16364,-2252,-86,-41,-28
4768.7,309,-220,16364,-2252,-86,-41,-28
4772.724,311,-220,16364,-2252,-86,-41,-28
4774.974,310,-220,16364,-2252,-86,-41,-28
4774.974,310,-220,16364,-2252,-86,-41,-28
4774.974,308,-220,16364,-2252,-86,-41,-28
4783.247,308,-220,16364,-2252,-86,-41,-28
4783.247,310,-196,16328,-2208,-52,-46,-12
4791.422,309,-196,16328,-2208,-52,-46,-12
4791.422,308,-196,16328,-2208,-52,-46,-12
4791.422,307,-196,16328,-2208,-52,-46,-12
4799.792,307,-196,16328,-2208,-52,-46,-12
4799.792,307,-196,16328,-2208,-52,-46,-12
4799.792,307,-196,16328,-2208,-52,-46,-12
4807.856,308,-212,16348,-2256,14,-23,-17
4807.856,308,-212,16348,-2256,14,-23,-17
4807.856,308,-212,16348,-2256,14,-23,-17
4815.901,308,-212,16348,-2256,14,-23,-17
4815.901,307,-212,16348,-2256,14,-23,-17
4815.901,308,-212,16348,-2256,14,-23,-17
4826.3189999999995,309,-212,16348,-2256,14,-23,-17
4826.3189999999995,309,-240,16312,-2244,-74,-31,-25
4826.3189999999995,310,-240,16312,-2244,-74,-31,-25
4832.7660000000005,309,-240,16312,-2244,-74,-31,-25
4837.2609999999995,310,-240,16312,-2244,-74,-31,-25
4841.009,310,-240,16312,-2244,-74,-31,-25
4843.023999999999,310,-240,16312,-2244,-74,-31,-25
4845.454,310,-240,16312,-2244,-74,-31,-25
4849.165,311,-192,16380,-2244,-36,-32,-4
4849.165,311,-192,16380,-2244,-36,-32,-4
4849.165,311,-192,16380,-2244,-36,-32,-4
4857.52,310,-192,16380,-2244,-36,-32,-4
4860.64,311,-192,16380,-2244,-36,-32,-4
4860.64,311,-192,16380,-2244,-36,-32,-4
4865.858,310,-192,16380,-2244,-36,-32,-4
4867.275000000001,309,-244,16332,-2292,-7,-33,-3
4867.275000000001,309,-244,16332,-2292,-7,-33,-3
4873.5160000000005,308,-244,16332,-2292,-7,-33,-3
4873.5160000000005,308,-244,16332,-2292,-7,-33,-3
4873.5160000000005,308,-244,16332,-2292,-7,-33,-3
4883.409000000001,308,-244,16332,-2292,-7,-33,-3
4885.473,309,-244,16332,-2292,-7,-33,-3
4887.118,309,-204,16368,-2268,-61,-48,-4
4889.75,308,-204,16368,-2268,-61,-48,-4
4891.764,308,-204,16368,-2268,-61,-48,-4
4891.764,307,-204,16368,-2268,-61,-48,-4
4898.95,308,-204,16368,-2268,-61,-48,-4
4900.147,307,-204,16368,-2268,-61,-48,-4
4900.147,308,-204,16368,-2268,-61,-48,-4
4905.911,307,-172,16328,-2260,4,-29,11
4905.911,308,-172,16328,-2260,4,-29,11
4905.911,307,-172,16328,-2260,4,-29,11
4914.277,307,-172,16328,-2260,4,-29,11
4914.277,308,-172,16328,-2260,4,-29,11
4914.277,308,-172,16328,-2260,4,-29,11
4924.539000000001,308,-172,16328,-2260,4,-29,11
4926.608,308,-172,16328,-2260,4,-29,11
4926.608,309,-192,16328,-2296,-33,-41,-17
4932.0380000000005,308,-192,16328,-2296,-33,-41,-17
4932.547,308,-192,16328,-2296,-33,-41,-17
4932.547,309,-192,16328,-2296,-33,-41,-17
4939.851,308,-192,16328,-2296,-33,-41,-17
4939.851,309,-192,16328,-2296,-33,-41,-17
4947.732,309,-192,16328,-2296,-33,-41,-17
4947.732,310,-204,16364,-2248,-57,-44,1
4947.732,310,-204,16364,-2248,-57,-44,1
4955.985,310,-204,16364,-2248,-57,-44,1
4955.985,309,-204,16364,-2248,-57,-44,1
4955.985,308,-204,16364,-2248,-57,-44,1
4964.375,309,-204,16364,-2248,-57,-44,1
4964.375,308,-204,16364,-2248,-57,-44,1
4964.375,309,-208,16344,-2252,-15,-27,17
4972.82,309,-208,16344,-2252,-15,-27,17
4974.062,309,-208,16344,-2252,-15,-27,17
4974.062,309,-208,16344,-2252,-15,-27,17
4980.842,310,-208,16344,-2252,-15,-27,17
4981.967,308,-208,16344,-2252,-15,-27,17
4981.967,309,-208,16344,-2252,-15,-27,17
4989.876,309,-260,16320,-2248,-31,-22,4
4989.876,309,-260,16320,-2248,-31,-22,4
4989.876,309,-260,16320,-2248,-31,-22,4
4996.8550000000005,309,-260,16320,-2248,-31,-22,4
4996.8550000000005,308,-260,16320,-2248,-31,-22,4
4996.8550000000005,308,-260,16320,-2248,-31,-22,4
5006.268,309,-260,16320,-2248,-31,-22,4
5006.919,310,-240,16364,-2232,-68,-47,-1
5006.919,311,-240,16364,-2232,-68,-47,-1
5013.345,310,-240,16364,-2232,-68,-47,-1
5013.345,310,-240,16364,-2232,-68,-47,-1
5013.345,310,-240,16364,-2232,-68,-47,-1
5022.916,310,-240,16364,-2232,-68,-47,-1
5024.248,310,-240,16364,-2232,-68,-47,-1
5024.248,310,-212,16308,-2200,-37,-41,-9
5029.91,310,-212,16308,-2200,-37,-41,-9
5032.477,310,-212,16308,-2200,-37,-41,-9
5032.477,309,-212,16308,-2200,-37,-41,-9
5040.259,310,-212,16308,-2200,-37,-41,-9
5040.259,309,-212,16308,-2200,-37,-41,-9
5040.259,310,-212,16308,-2200,-37,-41,-9
5046.8679999999995,310,-192,16324,-2236,7,-30,-7
5050.988,311,-192,16324,-2236,7,-30,-7
5050.988,310,-192,16324,-2236,7,-30,-7
5055.174,309,-192,16324,-2236,7,-30,-7
5056.73,309,-192,16324,-2236,7,-30,-7
5056.73,309,-192,16324,-2236,7,-30,-7
5063.303999999999,308,-192,16324,-2236,7,-30,-7
5063.303999999999,308,-192,16324,-2236,7,-30,-7
5063.303999999999,309,-176,16400,-2292,-40,-35,-6
5063.303999999999,310,-176,16400,-2292,-40,-35,-6
5074.222,309,-176,16400,-2292,-40,-35,-6
5074.222,310,-176,16400,-2292,-40,-35,-6
5080.09,309,-176,16400,-2292,-40,-35,-6
5080.09,309,-176,16400,-2292,-40,-35,-6
5080.09,310,-176,16400,-2292,-40,-35,-6
5088.304,309,-252,16336,-2240,-42,-27,-12
5092.376,310,-252,16336,-2240,-42,-27,-12
5092.376,310,-252,16336,-2240,-42,-27,-12
5096.688999999999,310,-252,16336,-2240,-42,-27,-12
5096.688999999999,310,-252,16336,-2240,-42,-27,-12
5096.688999999999,309,-252,16336,-2240,-42,-27,-12
5107.265,309,-252,16336,-2240,-42,-27,-12
5107.265,309,-200,16292,-2240,-28,-25,-10
5107.265,310,-200,16292,-2240,-28,-25,-10
5113.462,309,-200,16292,-2240,-28,-25,-10
5113.462,309,-200,16292,-2240,-28,-25,-10
5121.566,308,-200,16292,-2240,-28,-25,-10
5121.566,309,-200,16292,-2240,-28,-25,-10
5121.566,310,-200,16292,-2240,-28,-25,-10
5129.754,309,-260,16316,-2236,-5,-43,-2
5132.240000000001,310,-260,16316,-2236,-5,-43,-2
5135.894,310,-260,16316,-2236,-5,-43,-2
5137.9039999999995,309,-260,16316,-2236,-5,-43,-2
5139.954000000001,309,-260,16316,-2236,-5,-43,-2
5139.954000000001,309,-260,16316,-2236,-5,-43,-2
5139.954000000001,310,-260,16316,-2236,-5,-43,-2
5148.788,310,-240,16360,-2252,-70,-37,-13
5148.788,309,-240,16360,-2252,-70,-37,-13
5156.884,309,-240,16360,-2252,-70,-37,-13
5156.884,309,-240,16360,-2252,-70,-37,-13
5156.884,308,-240,16360,-2252,-70,-37,-13
5163.058999999999,307,-240,16360,-2252,-70,-37,-13
5163.058999999999,308,-240,16360,-2252,-70,-37,-13
5163.058999999999,309,-200,16376,-2196,-29,-32,2
5171.145,310,-200,16376,-2196,-29,-32,2
5174.626,309,-200,16376,-2196,-29,-32,2
5174.626,310,-200,16376,-2196,-29,-32,2
5180.367,309,-200,16376,-2196,-29,-32,2
5180.367,310,-200,16376,-2196,-29,-32,2
5185.433,309,-200,16376,-2196,-29,-32,2
5188.5960000000005,310,-184,16328,-2292,4,-40,-19
5188.5960000000005,310,-184,16328,-2292,4,-40,-19
5193.399,309,-184,16328,-2292,4,-40,-19
5197.21,309,-184,16328,-2292,4,-40,-19
5197.21,309,-184,16328,-2292,4,-40,-19
5197.21,309,-184,16328,-2292,4,-40,-19
5206.336,309,-184,16328,-2292,4,-40,-19
5206.336,310,-236,16324,-2288,-60,-26,-15
5206.336,310,-236,16324,-2288,-60,-26,-15
5211.925,310,-236,16324,-2288,-60,-26,-15
5211.925,310,-236,16324,-2288,-60,-26,-15
5211.925,310,-236,16324,-2288,-60,-26,-15
5222.973,309,-236,16324,-2288,-60,-26,-15
5222.973,309,-236,16324,-2288,-60,-26,-15
5222.973,309,-232,16352,-2280,-47,-30,-9
5230.4529999999995,309,-232,16352,-2280,-47,-30,-9
5234.765,308,-232,16352,-2280,-47,-30,-9
5239.178,308,-232,16352,-2280,-47,-30,-9
5239.772,308,-232,16352,-2280,-47,-30,-9
5239.772,309,-232,16352,-2280,-47,-30,-9
5245.576,309,-232,16352,-2280,-47,-30,-9
5245.576,310,-208,16344,-2292,-11,-32,6
5245.576,310,-208,16344,-2292,-11,-32,6
5253.841,310,-208,16344,-2292,-11,-32,6
5255.852,309,-208,16344,-2292,-11,-32,6
5255.852,309,-208,16344,-2292,-11,-32,6
5263.225,309,-208,16344,-2292,-11,-32,6
5263.225,310,-208,16344,-2292,-11,-32,6
5266.241,309,-204,16304,-2232,-47,-39,-6
5271.410000000001,309,-204,16304,-2232,-47,-39,-6
5273.150000000001,310,-204,16304,-2232,-47,-39,-6
5275.247,310,-204,16304,-2232,-47,-39,-6
5278.616,309,-204,16304,-2232,-47,-39,-6
5278.616,309,-204,16304,-2232,-47,-39,-6
5284.068,308,-204,16304,-2232,-47,-39,-6
5286.909,309,-224,16320,-2208,-38,-23,10
5289.607,310,-224,16320,-2208,-38,-23,10
5292.838,310,-224,16320,-2208,-38,-23,10
5295.198,310,-224,16320,-2208,-38,-23,10
5295.198,308,-224,16320,-2208,-38,-23,10
5295.198,309,-224,16320,-2208,-38,-23,10
5303.514,309,-224,16320,-2208,-38,-23,10
5308.557000000001,309,-192,16384,-2256,-8,-14,4
5308.557000000001,309,-192,16384,-2256,-8,-14,4
5312.578,309,-192,16384,-2256,-8,-14,4
5312.578,310,-192,16384,-2256,-8,-14,4
5316.638,309,-192,16384,-2256,-8,-14,4
5320.047,309,-192,16384,-2256,-8,-14,4
5323.648999999999,309,-192,16384,-2256,-8,-14,4
5325.738,309,-192,16384,-2256,-8,-14,4
5328.13,309,-220,16320,-2288,-64,-33,2
5331.129,309,-220,16320,-2288,-64,-33,2
5333.135,309,-220,16320,-2288,-64,-33,2
5336.169,310,-220,16320,-2288,-64,-33,2
5340.095,310,-220,16320,-2288,-64,-33,2
5340.095,309,-220,16320,-2288,-64,-33,2
5344.4529999999995,310,-220,16320,-2288,-64,-33,2
5348.206,310,-232,16348,-2248,-47,-54,-7
5350.213,310,-232,16348,-2248,-47,-54,-7
5352.638,309,-232,16348,-2248,-47,-54,-7
5357.293000000001,309,-232,16348,-2248,-47,-54,-7
5359.298,310,-232,16348,-2248,-47,-54,-7
5361.245,309,-232,16348,-2248,-47,-54,-7
5361.245,310,-232,16348,-2248,-47,-54,-7
5369.004999999999,309,-196,16324,-2244,12,-34,-14
5369.004999999999,310,-196,16324,-2244,12,-34,-14
5372.7119999999995,309,-196,16324,-2244,12,-34,-14
5377.2029999999995,309,-196,16324,-2244,12,-34,-14
5377.2029999999995,309,-196,16324,-2244,12,-34,-14
5377.2029999999995,309,-196,16324,-2244,12,-34,-14
5385.479,309,-196,16324,-2244,12,-34,-14
5385.479,309,-208,16344,-2220,-81,-36,-24
5389.9619999999995,310,-208,16344,-2220,-81,-36,-24
5393.6089999999995,309,-208,16344,-2220,-81,-36,-24
5393.6089999999995,310,-208,16344,-2220,-81,-36,-24
5393.6089999999995,309,-208,16344,-2220,-81,-36,-24
5401.919000000001,308,-208,16344,-2220,-81,-36,-24
5406.4839999999995,308,-208,16344,-2220,-81,-36,-24
5406.799,310,-224,16416,-2252,-61,-27,-9
5409.973,310,-224,16416,-2252,-61,-27,-9
5409.973,309,-224,16416,-2252,-61,-27,-9
5409.973,308,-224,16416,-2252,-61,-27,-9
5418.267,308,-224,16416,-2252,-61,-27,-9
5423.339999999999,308,-224,16416,-2252,-61,-27,-9
5427.089,308,-224,16416,-2252,-61,-27,-9
5427.089,310,-220,16332,-2236,6,-38,9
5427.089,309,-220,16332,-2236,6,-38,9
5427.089,309,-220,16332,-2236,6,-38,9
5435.272,308,-220,16332,-2236,6,-38,9
5435.272,308,-220,16332,-2236,6,-38,9
5439.845,308,-220,16332,-2236,6,-38,9
5443.603,308,-220,16332,-2236,6,-38,9
5445.612999999999,309,-220,16332,-2236,6,-38,9
5445.612999999999,309,-256,16360,-2244,-42,-42,-24
5451.7660000000005,309,-256,16360,-2244,-42,-42,-24
5452.7080000000005,309,-256,16360,-2244,-42,-42,-24
5457.803,308,-256,16360,-2244,-42,-42,-24
5459.823,309,-256,16360,-2244,-42,-42,-24
5459.823,308,-256,16360,-2244,-42,-42,-24
5467.994,308,-256,16360,-2244,-42,-42,-24
5467.994,309,-176,16352,-2228,-72,-27,6
5467.994,309,-176,16352,-2228,-72,-27,6
5476.112,309,-176,16352,-2228,-72,-27,6
5476.112,309,-176,16352,-2228,-72,-27,6
5480.335,308,-176,16352,-2228,-72,-27,6
5484.614,308,-176,16352,-2228,-72,-27,6
5484.614,309,-176,16352,-2228,-72,-27,6
5484.614,308,-180,16376,-2244,-6,-41,-5
5489.704,309,-180,16376,-2244,-6,-41,-5
5493.013,308,-180,16376,-2244,-6,-41,-5
5493.013,308,-180,16376,-2244,-6,-41,-5
5501.03,307,-180,16376,-2244,-6,-41,-5
5501.03,308,-180,16376,-2244,-6,-41,-5
5501.03,308,-180,16376,-2244,-6,-41,-5
5508.655,309,-232,16372,-2236,-10,-23,-11
5508.655,309,-232,16372,-2236,-10,-23,-11
5513.179,310,-232,16372,-2236,-10,-23,-11
5517.186,308,-232,16372,-2236,-10,-23,-11
5517.186,308,-232,16372,-2236,-10,-23,-11
5523.838,308,-232,16372,-2236,-10,-23,-11
5525.551,308,-232,16372,-2236,-10,-23,-11
5529.4619999999995,308,-180,16356,-2232,-75,-35,10
5529.4619999999995,307,-180,16356,-2232,-75,-35,10
5533.599999999999,308,-180,16356,-2232,-75,-35,10
5533.599999999999,308,-180,16356,-2232,-75,-35,10
5540.368,307,-180,16356,-2232,-75,-35,10
5541.8859999999995,307,-180,16356,-2232,-75,-35,10
5545.861000000001,307,-180,16356,-2232,-75,-35,10
5550.003000000001,309,-188,16352,-2240,9,-46,-16
5550.003000000001,308,-188,16352,-2240,9,-46,-16
5550.003000000001,308,-188,16352,-2240,9,-46,-16
5557.585999999999,308,-188,16352,-2240,9,-46,-16
5557.585999999999,307,-188,16352,-2240,9,-46,-16
5562.247,307,-188,16352,-2240,9,-46,-16
5566.166,306,-188,16352,-2240,9,-46,-16
5566.166,307,-188,16352,-2240,9,-46,-16
5570.449,307,-176,16384,-2316,-35,-33,-16
5574.581,308,-176,16384,-2316,-35,-33,-16
5574.581,308,-176,16384,-2316,-35,-33,-16
5576.8769999999995,309,-176,16384,-2316,-35,-33,-16
5582.8949999999995,309,-176,16384,-2316,-35,-33,-16
5582.8949999999995,308,-176,16384,-2316,-35,-33,-16
5582.8949999999995,308,-176,16384,-2316,-35,-33,-16
5590.664000000001,308,-232,16264,-2224,-80,-37,-8
5591.906,308,-232,16264,-2224,-80,-37,-8
5591.906,308,-232,16264,-2224,-80,-37,-8
5598.942,306,-232,16264,-2224,-80,-37,-8
5598.942,308,-232,16264,-2224,-80,-37,-8
5598.942,308,-232,16264,-2224,-80,-37,-8
5607.817,308,-232,16264,-2224,-80,-37,-8
5607.817,308,-180,16320,-2204,-25,-36,-16
5615.598,308,-180,16320,-2204,-25,-36,-16
5615.598,308,-180,16320,-2204,-25,-36,-16
5615.598,308,-180,16320,-2204,-25,-36,-16
5623.799,308,-180,16320,-2204,-25,-36,-16
5623.799,308,-180,16320,-2204,-25,-36,-16
5623.799,308,-232,16408,-2244,-6,-13,-14
5632.376,309,-232,16408,-2244,-6,-13,-14
5633.904,308,-232,16408,-2244,-6,-13,-14
5635.972,308,-232,16408,-2244,-6,-13,-14
5636.917,308,-232,16408,-2244,-6,-13,-14
5644.157,307,-232,16408,-2244,-6,-13,-14
5644.157,308,-232,16408,-2244,-6,-13,-14
5646.01,308,-224,16372,-2288,-101,-21,-21
5652.338000000001,308,-224,16372,-2288,-101,-21,-21
5652.338000000001,307,-224,16372,-2288,-101,-21,-21
5657.3330000000005,307,-224,16372,-2288,-101,-21,-21
5660.334,307,-224,16372,-2288,-101,-21,-21
5660.334,308,-224,16372,-2288,-101,-21,-21
5665.391,308,-224,16372,-2288,-101,-21,-21
5665.391,308,-220,16292,-2248,-40,-36,0
5673.69,308,-220,16292,-2248,-40,-36,0
5675.826,308,-220,16292,-2248,-40,-36,0
5675.826,308,-220,16292,-2248,-40,-36,0
5680.97,307,-220,16292,-2248,-40,-36,0
5682.007,307,-220,16292,-2248,-40,-36,0
5682.007,307,-220,16292,-2248,-40,-36,0
5682.007,309,-224,16352,-2248,24,-41,19
5690.454,308,-224,16352,-2248,24,-41,19
5692.610000000001,307,-224,16352,-2248,24,-41,19
5692.610000000001,308,-224,16352,-2248,24,-41,19
5698.602,308,-224,16352,-2248,24,-41,19
5701.501,307,-224,16352,-2248,24,-41,19
5706.482,307,-224,16352,-2248,24,-41,19
5708.496,308,-224,16352,-2248,24,-41,19
5709.2210000000005,309,-212,16400,-2276,-72,-73,3
5714.111,308,-212,16400,-2276,-72,-73,3
5717.588,308,-212,16400,-2276,-72,-73,3
5718.771000000001,308,-212,16400,-2276,-72,-73,3
5722.902,307,-212,16400,-2276,-72,-73,3
5725.335,307,-212,16400,-2276,-72,-73,3
5725.335,309,-212,16400,-2276,-72,-73,3
5730.169,308,-216,16316,-2224,-88,-46,-1
5733.928,308,-216,16316,-2224,-88,-46,-1
5733.928,308,-216,16316,-2224,-88,-46,-1
5738.391,308,-216,16316,-2224,-88,-46,-1
5742.465,308,-216,16316,-2224,-88,-46,-1
5742.465,309,-216,16316,-2224,-88,-46,-1
5746.613,308,-216,16316,-2224,-88,-46,-1
5750.69,308,-208,16388,-2220,32,-56,-7
5750.69,308,-208,16388,-2220,32,-56,-7
5756.071999999999,308,-208,16388,-2220,32,-56,-7
5758.2519999999995,307,-208,16388,-2220,32,-56,-7
5758.2519999999995,308,-208,16388,-2220,32,-56,-7
5762.951,307,-208,16388,-2220,32,-56,-7
5764.593,308,-208,16388,-2220,32,-56,-7
5768.0160000000005,309,-188,16400,-2236,-13,-49,-5
5771.188,309,-188,16400,-2236,-13,-49,-5
5775.914000000001,309,-188,16400,-2236,-13,-49,-5
5778.984,308,-188,16400,-2236,-13,-49,-5
5778.984,307,-188,16400,-2236,-13,-49,-5
5778.984,307,-188,16400,-2236,-13,-49,-5
5787.1810000000005,307,-188,16400,-2236,-13,-49,-5
5787.1810000000005,308,-208,16328,-2244,-123,-35,11
5790.4130000000005,309,-208,16328,-2244,-123,-35,11
5795.413,308,-208,16328,-2244,-123,-35,11
5795.413,309,-208,16328,-2244,-123,-35,11
5795.413,308,-208,16328,-2244,-123,-35,11
5803.649,308,-208,16328,-2244,-123,-35,11
5807.094,308,-208,16328,-2244,-123,-35,11
5809.202,309,-188,16392,-2216,11,-30,3
5811.838,309,-188,16392,-2216,11,-30,3
5813.509,308,-188,16392,-2216,11,-30,3
5813.509,308,-188,16392,-2216,11,-30,3
5820.087,308,-188,16392,-2216,11,-30,3
5823.964,308,-188,16392,-2216,11,-30,3
5823.964,307,-188,16392,-2216,11,-30,3
5828.501,309,-188,16392,-2216,11,-30,3
5828.501,309,-228,16328,-2252,28,-44,4
5832.319,309,-228,16328,-2252,28,-44,4
5836.512,309,-228,16328,-2252,28,-44,4
5836.512,310,-228,16328,-2252,28,-44,4
5840.451,308,-228,16328,-2252,28,-44,4
5844.869,308,-228,16328,-2252,28,-44,4
5844.869,308,-228,16328,-2252,28,-44,4
5848.353,308,-184,16348,-2280,-131,-40,-37
5853.3730000000005,309,-184,16348,-2280,-131,-40,-37
5856.429999999999,309,-184,16348,-2280,-131,-40,-37
5858.768999999999,307,-184,16348,-2280,-131,-40,-37
5861.237,308,-184,16348,-2280,-131,-40,-37
5865.356000000001,308,-184,16348,-2280,-131,-40,-37
5869.2919999999995,309,-184,16348,-2280,-131,-40,-37
5869.2919999999995,309,-172,16348,-2228,-39,-32,-6
5873.208,308,-172,16348,-2228,-39,-32,-6
5877.575,308,-172,16348,-2228,-39,-32,-6
5877.575,309,-172,16348,-2228,-39,-32,-6
5879.540000000001,308,-172,16348,-2228,-39,-32,-6
5885.861,309,-172,16348,-2228,-39,-32,-6
5885.861,308,-172,16348,-2228,-39,-32,-6
5889.8640000000005,308,-220,16360,-2284,9,-29,-22
5894.005,308,-220,16360,-2284,9,-29,-22
5894.005,309,-220,16360,-2284,9,-29,-22
5894.005,309,-220,16360,-2284,9,-29,-22
5902.289,309,-220,16360,-2284,9,-29,-22
5903.401,309,-220,16360,-2284,9,-29,-22
5906.655,309,-220,16360,-2284,9,-29,-22
5909.695,310,-264,16372,-2276,-72,-22,-7
5911.249,310,-264,16372,-2276,-72,-22,-7
5914.923,310,-264,16372,-2276,-72,-22,-7
5918.308,309,-264,16372,-2276,-72,-22,-7
5923.022,308,-264,16372,-2276,-72,-22,-7
5924.04,308,-264,16372,-2276,-72,-22,-7
5926.678,309,-264,16372,-2276,-72,-22,-7
5926.678,309,-228,16376,-2200,-54,-30,-5
5926.678,309,-228,16376,-2200,-54,-30,-5
5935.067,309,-228,16376,-2200,-54,-30,-5
5938.214,308,-228,16376,-2200,-54,-30,-5
5940.241999999999,308,-228,16376,-2200,-54,-30,-5
5943.152999999999,307,-228,16376,-2200,-54,-30,-5
5943.152999999999,309,-228,16376,-2200,-54,-30,-5
5951.380999999999,308,-204,16388,-2248,39,-53,-14
5951.380999999999,309,-204,16388,-2248,39,-53,-14
5956.3730000000005,309,-204,16388,-2248,39,-53,-14
5959.3910000000005,308,-204,16388,-2248,39,-53,-14
5959.3910000000005,307,-204,16388,-2248,39,-53,-14
5963.657,309,-204,16388,-2248,39,-53,-14
5967.733,310,-204,16388,-2248,39,-53,-14
5967.733,309,-232,16336,-2260,-75,-60,-4
5967.733,309,-232,16336,-2260,-75,-60,-4
5976.26,309,-232,16336,-2260,-75,-60,-4
5977.178999999999,309,-232,16336,-2260,-75,-60,-4
5980.027,308,-232,16336,-2260,-75,-60,-4
5983.886,308,-232,16336,-2260,-75,-60,-4
5988.24,309,-232,16336,-2260,-75,-60,-4
5989.599,309,-244,16364,-2208,-55,-24,5
5991.61,308,-244,16364,-2208,-55,-24,5
5996.403,309,-244,16364,-2208,-55,-24,5
5996.403,308,-244,16364,-2208,-55,-24,5
5999.9529999999995,308,-244,16364,-2208,-55,-24,5
6001.964,308,-244,16364,-2208,-55,-24,5
6006.966,308,-244,16364,-2208,-55,-24,5
6008.961,308,-244,16364,-2208,-55,-24,5
6012.808,308,-216,16352,-2236,24,-38,4
6012.808,308,-216,16352,-2236,24,-38,4
6016.62,307,-216,16352,-2236,24,-38,4
6020.635,309,-216,16352,-2236,24,-38,4
6020.635,308,-216,16352,-2236,24,-38,4
6024.8949999999995,308,-216,16352,-2236,24,-38,4
6024.8949999999995,308,-216,16352,-2236,24,-38,4
6024.8949999999995,307,-244,16348,-2252,-48,-17,-23
6032.892000000001,308,-244,16348,-2252,-48,-17,-23
6036.417,308,-244,16348,-2252,-48,-17,-23
6038.432000000001,308,-244,16348,-2252,-48,-17,-23
6040.472000000001,308,-244,16348,-2252,-48,-17,-23
6045.597,308,-244,16348,-2252,-48,-17,-23
6045.597,309,-244,16348,-2252,-48,-17,-23
6048.726000000001,309,-176,16324,-2280,-70,-34,-4
6052.972,309,-176,16324,-2280,-70,-34,-4
6057.076,308,-176,16324,-2280,-70,-34,-4
6060.2390000000005,308,-176,16324,-2280,-70,-34,-4
6060.2390000000005,308,-176,16324,-2280,-70,-34,-4
6064.977,308,-176,16324,-2280,-70,-34,-4
6064.977,309,-176,16324,-2280,-70,-34,-4
6064.977,309,-188,16324,-2272,1,-13,15
6074.6089999999995,309,-188,16324,-2272,1,-13,15
6074.6089999999995,308,-188,16324,-2272,1,-13,15
6077.214,307,-188,16324,-2272,1,-13,15
6081.115,308,-188,16324,-2272,1,-13,15
6081.115,307,-188,16324,-2272,1,-13,15
6081.115,307,-188,16324,-2272,1,-13,15
6089.312,307,-188,16324,-2272,1,-13,15
6089.312,308,-232,16364,-2248,-30,-32,2
6089.312,308,-232,16364,-2248,-30,-32,2
6097.579,308,-232,16364,-2248,-30,-32,2
6097.579,307,-232,16364,-2248,-30,-32,2
6100.251,307,-232,16364,-2248,-30,-32,2
6105.63,307,-232,16364,-2248,-30,-32,2
6105.63,307,-232,16364,-2248,-30,-32,2
6111.382,307,-212,16352,-2204,-101,-19,-9
6115.054,307,-212,16352,-2204,-101,-19,-9
6116.1,307,-212,16352,-2204,-101,-19,-9
6119.4259999999995,308,-212,16352,-2204,-101,-19,-9
6122.795,308,-212,16352,-2204,-101,-19,-9
6124.6179999999995,308,-212,16352,-2204,-101,-19,-9
6124.6179999999995,309,-212,16352,-2204,-101,-19,-9
6130.094,309,-256,16276,-2196,-17,-33,-18
6134.323,308,-256,16276,-2196,-17,-33,-18
6134.323,308,-256,16276,-2196,-17,-33,-18
6140.157999999999,308,-256,16276,-2196,-17,-33,-18
6140.157999999999,308,-256,16276,-2196,-17,-33,-18
6146.263,309,-256,16276,-2196,-17,-33,-18
6146.263,308,-256,16276,-2196,-17,-33,-18
6146.263,308,-216,16340,-2264,11,-35,-12
6154.416,309,-216,16340,-2264,11,-35,-12
6157.28,309,-216,16340,-2264,11,-35,-12
6157.28,308,-216,16340,-2264,11,-35,-12
6162.876,309,-216,16340,-2264,11,-35,-12
6162.876,309,-216,16340,-2264,11,-35,-12
6162.876,309,-216,16340,-2264,11,-35,-12
6170.94,309,-220,16356,-2248,-92,-50,-8
6173.4439999999995,308,-220,16356,-2248,-92,-50,-8
6173.4439999999995,307,-220,16356,-2248,-92,-50,-8
6180.731,308,-220,16356,-2248,-92,-50,-8
6180.731,308,-220,16356,-2248,-92,-50,-8
6180.731,308,-220,16356,-2248,-92,-50,-8
6188.831,308,-220,16356,-2248,-92,-50,-8
6190.849,308,-236,16348,-2196,-15,-51,-1
6190.849,308,-236,16348,-2196,-15,-51,-1
6197.09,308,-236,16348,-2196,-15,-51,-1
6197.09,308,-236,16348,-2196,-15,-51,-1
6197.09,307,-236,16348,-2196,-15,-51,-1
6205.56,308,-236,16348,-2196,-15,-51,-1
6207.018,308,-236,16348,-2196,-15,-51,-1
6207.018,308,-236,16388,-2244,-29,-31,-3
6213.607,308,-236,16388,-2244,-29,-31,-3
6217.585,307,-236,16388,-2244,-29,-31,-3
6221.8679999999995,307,-236,16388,-2244,-29,-31,-3
6224.0380000000005,308,-236,16388,-2244,-29,-31,-3
6224.0380000000005,308,-236,16388,-2244,-29,-31,-3
6229.919,308,-236,16388,-2244,-29,-31,-3
6231.281,308,-200,16288,-2240,-73,-26,-1
6234.572,308,-200,16288,-2240,-73,-26,-1
6238.116,308,-200,16288,-2240,-73,-26,-1
6239.917,307,-200,16288,-2240,-73,-26,-1
6241.782999999999,307,-200,16288,-2240,-73,-26,-1
6246.25,308,-200,16288,-2240,-73,-26,-1
6248.019,308,-200,16288,-2240,-73,-26,-1
6248.019,309,-276,16404,-2152,-16,-43,2
6254.517,309,-276,16404,-2152,-16,-43,2
6257.069,308,-276,16404,-2152,-16,-43,2
6259.076999999999,308,-276,16404,-2152,-16,-43,2
6262.832,308,-276,16404,-2152,-16,-43,2
6264.85,309,-276,16404,-2152,-16,-43,2
6266.857,308,-276,16404,-2152,-16,-43,2
6270.8769999999995,309,-232,16408,-2316,-14,-38,-5
6274.861,308,-232,16408,-2316,-14,-38,-5
6274.861,308,-232,16408,-2316,-14,-38,-5
6278.888,308,-232,16408,-2316,-14,-38,-5
6282.924,307,-232,16408,-2316,-14,-38,-5
6284.94,307,-232,16408,-2316,-14,-38,-5
6286.9580000000005,307,-232,16408,-2316,-14,-38,-5
6290.668000000001,307,-224,16328,-2288,-93,-45,1
6292.679,307,-224,16328,-2288,-93,-45,1
6294.691000000001,307,-224,16328,-2288,-93,-45,1
6298.712,307,-224,16328,-2288,-93,-45,1
6300.718,308,-224,16328,-2288,-93,-45,1
6302.733,307,-224,16328,-2288,-93,-45,1
6307.039,307,-224,16328,-2288,-93,-45,1
6309.049,308,-268,16324,-2200,-14,-38,0
6310.807,309,-268,16324,-2200,-14,-38,0
6314.828,308,-268,16324,-2200,-14,-38,0
6316.838,308,-268,16324,-2200,-14,-38,0
6318.843,308,-268,16324,-2200,-14,-38,0
6325.771,308,-268,16324,-2200,-14,-38,0
6327.283,309,-268,16324,-2200,-14,-38,0
6327.283,309,-268,16324,-2200,-14,-38,0
6331.317999999999,309,-208,16344,-2256,11,-43,1
6333.332,307,-208,16344,-2256,11,-43,1
6336.2699999999995,307,-208,16344,-2256,11,-43,1
6340.665000000001,307,-208,16344,-2256,11,-43,1
6340.665000000001,307,-208,16344,-2256,11,-43,1
6344.669,308,-208,16344,-2256,11,-43,1
6348.04,308,-208,16344,-2256,11,-43,1
6349.504,309,-240,16280,-2228,-93,-39,7
6353.025,309,-240,16280,-2228,-93,-39,7
6356.421,308,-240,16280,-2228,-93,-39,7
6356.421,307,-240,16280,-2228,-93,-39,7
6359.277999999999,307,-240,16280,-2228,-93,-39,7
6359.277999999999,309,-240,16280,-2228,-93,-39,7
6359.277999999999,308,-240,16280,-2228,-93,-39,7
6368.561,308,-196,16340,-2244,-27,-29,-1
6373.011,309,-196,16340,-2244,-27,-29,-1
6375.839,307,-196,16340,-2244,-27,-29,-1
6378.901,307,-196,16340,-2244,-27,-29,-1
6380.917,307,-196,16340,-2244,-27,-29,-1
6384.079,308,-196,16340,-2244,-27,-29,-1
6384.079,308,-196,16340,-2244,-27,-29,-1
6389.79,308,-196,16340,-2244,-27,-29,-1
6392.183,308,-196,16316,-2220,-17,-27,-8
6392.183,307,-196,16316,-2220,-17,-27,-8
6392.183,308,-196,16316,-2220,-17,-27,-8
6400.609,307,-196,16316,-2220,-17,-27,-8
6400.609,308,-196,16316,-2220,-17,-27,-8
6406.634,308,-196,16316,-2220,-17,-27,-8
6408.923,308,-196,16316,-2220,-17,-27,-8
6410.934,309,-220,16336,-2256,-48,-24,-6
6410.934,308,-220,16336,-2256,-48,-24,-6
6417.108,307,-220,16336,-2256,-48,-24,-6
6417.108,307,-220,16336,-2256,-48,-24,-6
6417.108,307,-220,16336,-2256,-48,-24,-6
6425.500999999999,307,-220,16336,-2256,-48,-24,-6
6425.500999999999,309,-220,16336,-2256,-48,-24,-6
6425.500999999999,308,-172,16324,-2276,-43,-34,-24
6434.921,307,-172,16324,-2276,-43,-34,-24
6434.921,308,-172,16324,-2276,-43,-34,-24
6442.13,306,-172,16324,-2276,-43,-34,-24
6442.13,307,-172,16324,-2276,-43,-34,-24
6442.13,308,-172,16324,-2276,-43,-34,-24
6450.329,309,-172,16324,-2276,-43,-34,-24
6452.548,308,-212,16380,-2240,-24,-25,-11
6452.548,308,-212,16380,-2240,-24,-25,-11
6458.484,307,-212,16380,-2240,-24,-25,-11
6458.484,307,-212,16380,-2240,-24,-25,-11
6458.484,308,-212,16380,-2240,-24,-25,-11
6466.769,308,-212,16380,-2240,-24,-25,-11
6466.769,308,-212,16320,-2240,-32,-42,-4
6466.769,309,-212,16320,-2240,-32,-42,-4
6474.86,308,-212,16320,-2240,-32,-42,-4
6474.86,308,-212,16320,-2240,-32,-42,-4
6474.86,308,-212,16320,-2240,-32,-42,-4
6483.3460000000005,308,-212,16320,-2240,-32,-42,-4
6483.3460000000005,308,-212,16320,-2240,-32,-42,-4
6491.728,309,-232,16272,-2244,-52,-23,-17
6493.749,307,-232,16272,-2244,-52,-23,-17
6493.749,308,-232,16272,-2244,-52,-23,-17
6500.179,308,-232,16272,-2244,-52,-23,-17
6500.179,307,-232,16272,-2244,-52,-23,-17
6504.345,308,-232,16272,-2244,-52,-23,-17
6508.3820000000005,309,-232,16272,-2244,-52,-23,-17
6512.386,308,-220,16380,-2232,-15,-36,-14
6512.386,309,-220,16380,-2232,-15,-36,-14
6516.541,308,-220,16380,-2232,-15,-36,-14
6520.673000000001,308,-220,16380,-2232,-15,-36,-14
6523.492,308,-220,16380,-2232,-15,-36,-14
6524.973,308,-220,16380,-2232,-15,-36,-14
6524.973,309,-220,16380,-2232,-15,-36,-14
6532.787,308,-248,16356,-2264,-35,-42,-5
6534.959,307,-248,16356,-2264,-35,-42,-5
6534.959,308,-248,16356,-2264,-35,-42,-5
6541.309,308,-248,16356,-2264,-35,-42,-5
6541.309,308,-248,16356,-2264,-35,-42,-5
6541.309,307,-248,16356,-2264,-35,-42,-5
6549.402,307,-248,16356,-2264,-35,-42,-5
6551.093,307,-228,16312,-2284,-42,-48,-10
6551.093,308,-228,16312,-2284,-42,-48,-10
6557.8279999999995,307,-228,16312,-2284,-42,-48,-10
6557.8279999999995,308,-228,16312,-2284,-42,-48,-10
6557.8279999999995,307,-228,16312,-2284,-42,-48,-10
6565.1669999999995,308,-228,16312,-2284,-42,-48,-10
6569.860000000001,308,-228,16312,-2284,-42,-48,-10
6569.860000000001,308,-196,16364,-2260,-6,-21,4
6575.4039999999995,309,-196,16364,-2260,-6,-21,4
6577.909,307,-196,16364,-2260,-6,-21,4
6577.909,307,-196,16364,-2260,-6,-21,4
6582.213000000001,308,-196,16364,-2260,-6,-21,4
6583.179999999999,308,-196,16364,-2260,-6,-21,4
6583.179999999999,307,-196,16364,-2260,-6,-21,4
6590.673,308,-180,16332,-2292,-51,-24,-9
6592.6900000000005,307,-180,16332,-2292,-51,-24,-9
6596.04,307,-180,16332,-2292,-51,-24,-9
6597.8009999999995,307,-180,16332,-2292,-51,-24,-9
6599.817,306,-180,16332,-2292,-51,-24,-9
6599.817,307,-180,16332,-2292,-51,-24,-9
6606.232999999999,308,-180,16332,-2292,-51,-24,-9
6608.249,308,-180,16332,-2292,-51,-24,-9
6614.754,308,-240,16364,-2216,-28,-55,3
6614.754,308,-240,16364,-2216,-28,-55,3
6614.754,308,-240,16364,-2216,-28,-55,3
6622.831,307,-240,16364,-2216,-28,-55,3
6622.831,307,-240,16364,-2216,-28,-55,3
6627.153,308,-240,16364,-2216,-28,-55,3
6631.043,308,-240,16364,-2216,-28,-55,3
6633.067999999999,308,-220,16336,-2256,-17,-32,-7
6635.078,308,-220,16336,-2256,-17,-32,-7
6639.11,307,-220,16336,-2256,-17,-32,-7
6641.403,308,-220,16336,-2256,-17,-32,-7
6641.403,307,-220,16336,-2256,-17,-32,-7
6647.715,308,-220,16336,-2256,-17,-32,-7
6647.715,308,-220,16336,-2256,-17,-32,-7
6650.705,309,-200,16328,-2204,-39,-9,-20
6655.946,307,-200,16328,-2204,-39,-9,-20
6657.12,307,-200,16328,-2204,-39,-9,-20
6657.12,307,-200,16328,-2204,-39,-9,-20
6664.075000000001,307,-200,16328,-2204,-39,-9,-20
6664.075000000001,308,-200,16328,-2204,-39,-9,-20
6664.075000000001,308,-200,16328,-2204,-39,-9,-20
6672.548,308,-152,16316,-2216,-57,-39,-1
6674.527,308,-152,16316,-2216,-57,-39,-1
6674.527,308,-152,16316,-2216,-57,-39,-1
6680.606,307,-152,16316,-2216,-57,-39,-1
6684.557,307,-152,16316,-2216,-57,-39,-1
6684.557,308,-152,16316,-2216,-57,-39,-1
6689.637000000001,308,-152,16316,-2216,-57,-39,-1
6689.637000000001,308,-200,16348,-2228,-34,-42,-10
6697.075,308,-200,16348,-2228,-34,-42,-10
6697.075,308,-200,16348,-2228,-34,-42,-10
6697.075,308,-200,16348,-2228,-34,-42,-10
6705.209,308,-200,16348,-2228,-34,-42,-10
6708.246,308,-200,16348,-2228,-34,-42,-10
6708.246,309,-200,16348,-2228,-34,-42,-10
6713.36,309,-164,16316,-2236,-37,-23,-11
6715.824,309,-164,16316,-2236,-37,-23,-11
6715.824,307,-164,16316,-2236,-37,-23,-11
6721.701999999999,308,-164,16316,-2236,-37,-23,-11
6724.089,307,-164,16316,-2236,-37,-23,-11
6726.889,309,-164,16316,-2236,-37,-23,-11
6729.583,309,-164,16316,-2236,-37,-23,-11
6733.671,309,-216,16288,-2252,-34,-33,-11
6737.819,308,-216,16288,-2252,-34,-33,-11
6737.819,308,-216,16288,-2252,-34,-33,-11
6741.366,308,-216,16288,-2252,-34,-33,-11
6746.5960000000005,308,-216,16288,-2252,-34,-33,-11
6748.302,307,-216,16288,-2252,-34,-33,-11
6750.698,308,-216,16288,-2252,-34,-33,-11
6754.037,308,-208,16328,-2232,-35,-26,2
6755.719,307,-208,16328,-2232,-35,-26,2
6759.0560000000005,307,-208,16328,-2232,-35,-26,2
6762.371,308,-208,16328,-2232,-35,-26,2
6762.371,307,-208,16328,-2232,-35,-26,2
6762.371,308,-208,16328,-2232,-35,-26,2
6770.834,308,-208,16328,-2232,-35,-26,2
6772.849,308,-228,16356,-2192,-72,-33,-17
6774.860000000001,308,-228,16356,-2192,-72,-33,-17
6779.1449999999995,308,-228,16356,-2192,-72,-33,-17
6779.1449999999995,308,-228,16356,-2192,-72,-33,-17
6779.1449999999995,308,-228,16356,-2192,-72,-33,-17
6787.217,308,-228,16356,-2192,-72,-33,-17
6790.171,308,-228,16356,-2192,-72,-33,-17
6795.406,308,-216,16276,-2220,-32,-32,-9
6795.406,307,-216,16276,-2220,-32,-32,-9
6795.406,308,-216,16276,-2220,-32,-32,-9
6795.406,308,-216,16276,-2220,-32,-32,-9
6803.547,307,-216,16276,-2220,-32,-32,-9
6803.547,308,-216,16276,-2220,-32,-32,-9
6811.484,308,-216,16276,-2220,-32,-32,-9
6811.484,308,-184,16360,-2240,-21,-31,-13
6811.484,308,-184,16360,-2240,-21,-31,-13
6819.804,307,-184,16360,-2240,-21,-31,-13
6823.982,307,-184,16360,-2240,-21,-31,-13
6826.455,308,-184,16360,-2240,-21,-31,-13
6828.342000000001,308,-184,16360,-2240,-21,-31,-13
6832.0,309,-184,16360,-2240,-21,-31,-13
6833.7789999999995,308,-248,16324,-2200,-56,-30,-10
6835.304,308,-248,16324,-2200,-56,-30,-10
6840.542,308,-248,16324,-2200,-56,-30,-10
6842.558,308,-248,16324,-2200,-56,-30,-10
6844.983,309,-248,16324,-2200,-56,-30,-10
6847.734,309,-248,16324,-2200,-56,-30,-10
6847.734,309,-220,16276,-2256,-30,-29,6
6853.1630000000005,308,-220,16276,-2256,-30,-29,6
6856.495,308,-220,16276,-2256,-30,-29,6
6860.2080000000005,308,-220,16276,-2256,-30,-29,6
6861.223,308,-220,16276,-2256,-30,-29,6
6861.223,308,-220,16276,-2256,-30,-29,6
6861.223,308,-220,16276,-2256,-30,-29,6
6869.724,309,-220,16276,-2256,-30,-29,6
6873.89,307,-160,16380,-2236,-8,-35,-20
6875.898,308,-160,16380,-2236,-8,-35,-20
6877.912,307,-160,16380,-2236,-8,-35,-20
6881.163,307,-160,16380,-2236,-8,-35,-20
6881.163,307,-160,16380,-2236,-8,-35,-20
6886.009999999999,306,-160,16380,-2236,-8,-35,-20
6890.929,307,-160,16380,-2236,-8,-35,-20
6893.421,307,-200,16340,-2248,-54,-42,-16
6897.5,308,-200,16340,-2248,-54,-42,-16
6897.5,308,-200,16340,-2248,-54,-42,-16
6897.5,307,-200,16340,-2248,-54,-42,-16
6906.584,307,-200,16340,-2248,-54,-42,-16
6908.210999999999,308,-200,16340,-2248,-54,-42,-16
6910.186000000001,308,-200,16340,-2248,-54,-42,-16
6911.193,308,-232,16344,-2260,-51,-26,-24
6911.193,308,-232,16344,-2260,-51,-26,-24
6911.193,307,-232,16344,-2260,-51,-26,-24
6922.49,307,-232,16344,-2260,-51,-26,-24
6926.756,308,-232,16344,-2260,-51,-26,-24
6928.277999999999,308,-232,16344,-2260,-51,-26,-24
6928.277999999999,309,-232,16344,-2260,-51,-26,-24
6928.277999999999,308,-220,16368,-2248,-4,-48,-7
6937.121999999999,307,-220,16368,-2248,-4,-48,-7
6939.393,307,-220,16368,-2248,-4,-48,-7
6939.393,307,-220,16368,-2248,-4,-48,-7
6946.665999999999,307,-220,16368,-2248,-4,-48,-7
6946.665999999999,308,-220,16368,-2248,-4,-48,-7
6946.665999999999,308,-220,16368,-2248,-4,-48,-7
6955.022,308,-208,16364,-2236,-31,-25,-16
6956.03,308,-208,16364,-2236,-31,-25,-16
6958.039000000001,307,-208,16364,-2236,-31,-25,-16
6963.052000000001,308,-208,16364,-2236,-31,-25,-16
6964.813,308,-208,16364,-2236,-31,-25,-16
6967.152999999999,308,-208,16364,-2236,-31,-25,-16
6971.346,308,-208,16364,-2236,-31,-25,-16
6973.842000000001,307,-240,16320,-2248,-69,-41,-20
6976.62,307,-240,16320,-2248,-69,-41,-20
6979.459000000001,307,-240,16320,-2248,-69,-41,-20
6979.459000000001,307,-240,16320,-2248,-69,-41,-20
6979.459000000001,308,-240,16320,-2248,-69,-41,-20
6986.98,307,-240,16320,-2248,-69,-41,-20
6990.666,308,-216,16348,-2208,-31,-26,-24
6995.599999999999,308,-216,16348,-2208,-31,-26,-24
6995.599999999999,308,-216,16348,-2208,-31,-26,-24
6995.599999999999,307,-216,16348,-2208,-31,-26,-24
7004.079,308,-216,16348,-2208,-31,-26,-24
7006.092,308,-216,16348,-2208,-31,-26,-24
7007.197999999999,309,-216,16348,-2208,-31,-26,-24
7007.197999999999,309,-176,16324,-2248,-42,-25,11
7016.313,308,-176,16324,-2248,-42,-25,11
7016.313,309,-176,16324,-2248,-42,-25,11
7020.612,308,-176,16324,-2248,-42,-25,11
7020.612,307,-176,16324,-2248,-42,-25,11
7026.194,308,-176,16324,-2248,-42,-25,11
7028.597000000001,308,-176,16324,-2248,-42,-25,11
7028.597000000001,308,-172,16308,-2216,-44,-27,6
7028.597000000001,308,-172,16308,-2216,-44,-27,6
7036.735000000001,308,-172,16308,-2216,-44,-27,6
7040.7570000000005,308,-172,16308,-2216,-44,-27,6
7042.7660000000005,308,-172,16308,-2216,-44,-27,6
7044.945000000001,308,-172,16308,-2216,-44,-27,6
7044.945000000001,308,-172,16308,-2216,-44,-27,6
7044.945000000001,307,-172,16308,-2216,-44,-27,6
7053.177,309,-196,16320,-2264,-44,-49,8
7057.293,308,-196,16320,-2264,-44,-49,8
7059.999000000001,308,-196,16320,-2264,-44,-49,8
7061.508,308,-196,16320,-2264,-44,-49,8
7065.482,308,-196,16320,-2264,-44,-49,8
7069.625,308,-196,16320,-2264,-44,-49,8
7069.625,309,-196,16320,-2264,-44,-49,8
7074.345,308,-244,16300,-2208,-29,-34,-12
7077.75,308,-244,16300,-2208,-29,-34,-12
7077.75,308,-244,16300,-2208,-29,-34,-12
7081.87,307,-244,16300,-2208,-29,-34,-12
7086.113,307,-244,16300,-2208,-29,-34,-12
7086.113,308,-244,16300,-2208,-29,-34,-12
7089.967,308,-244,16300,-2208,-29,-34,-12
7094.147999999999,308,-220,16368,-2244,-48,-48,-21
7094.147999999999,307,-220,16368,-2244,-48,-48,-21
7094.147999999999,307,-220,16368,-2244,-48,-48,-21
7102.343,307,-220,16368,-2244,-48,-48,-21
7106.6900000000005,308,-220,16368,-2244,-48,-48,-21
7107.659,309,-220,16368,-2244,-48,-48,-21
7110.808,308,-220,16368,-2244,-48,-48,-21
7114.616,308,-188,16308,-2240,-56,-50,-4
7114.616,308,-188,16308,-2240,-56,-50,-4
7120.272,308,-188,16308,-2240,-56,-50,-4
7123.1,307,-188,16308,-2240,-56,-50,-4
7125.437,307,-188,16308,-2240,-56,-50,-4
7127.447,308,-188,16308,-2240,-56,-50,-4
7131.003,308,-188,16308,-2240,-56,-50,-4
7131.003,309,-232,16360,-2244,-19,-35,-16
7136.802000000001,307,-232,16360,-2244,-19,-35,-16
7139.969,307,-232,16360,-2244,-19,-35,-16
7141.325,307,-232,16360,-2244,-19,-35,-16
7147.342,307,-232,16360,-2244,-19,-35,-16
7147.342,308,-232,16360,-2244,-19,-35,-16
7147.342,308,-232,16360,-2244,-19,-35,-16
7156.602000000001,308,-232,16308,-2264,-52,-30,-12
7157.511,307,-232,16308,-2264,-52,-30,-12
7157.511,307,-232,16308,-2264,-52,-30,-12
7163.743,307,-232,16308,-2264,-52,-30,-12
7163.743,308,-232,16308,-2264,-52,-30,-12
7168.616,308,-232,16308,-2264,-52,-30,-12
7171.928,308,-208,16360,-2220,-58,-39,1
7174.838000000001,307,-208,16360,-2220,-58,-39,1
7176.852,308,-208,16360,-2220,-58,-39,1
7180.089,307,-208,16360,-2220,-58,-39,1
7180.089,308,-208,16360,-2220,-58,-39,1
7185.146,307,-208,16360,-2220,-58,-39,1
7189.4400000000005,308,-208,16360,-2220,-58,-39,1
7192.203,308,-208,16360,-2220,-58,-39,1
7193.8279999999995,308,-224,16320,-2256,-26,-39,-16
7196.499,308,-224,16320,-2256,-26,-39,-16
7199.114,308,-224,16320,-2256,-26,-39,-16
7204.728,307,-224,16320,-2256,-26,-39,-16
7207.500999999999,307,-224,16320,-2256,-26,-39,-16
7209.512,308,-224,16320,-2256,-26,-39,-16
7209.512,308,-224,16320,-2256,-26,-39,-16
7209.512,308,-220,16332,-2216,6,-46,-7
7209.512,307,-220,16332,-2216,6,-46,-7
7218.643,308,-220,16332,-2216,6,-46,-7
7218.643,307,-220,16332,-2216,6,-46,-7
7222.759,307,-220,16332,-2216,6,-46,-7
7229.014,307,-220,16332,-2216,6,-46,-7
7229.014,307,-220,16332,-2216,6,-46,-7
7231.027,308,-192,16388,-2208,-67,-24,3
7235.683,307,-192,16388,-2208,-67,-24,3
7235.683,307,-192,16388,-2208,-67,-24,3
7239.645,306,-192,16388,-2208,-67,-24,3
7243.134999999999,307,-192,16388,-2208,-67,-24,3
7243.134999999999,308,-192,16388,-2208,-67,-24,3
7249.727,308,-192,16388,-2208,-67,-24,3
7251.873,309,-168,16324,-2240,-74,-41,3
7254.540999999999,307,-168,16324,-2240,-74,-41,3
7256.951,308,-168,16324,-2240,-74,-41,3
7261.544,308,-168,16324,-2240,-74,-41,3
7261.544,307,-168,16324,-2240,-74,-41,3
7265.612,307,-168,16324,-2240,-74,-41,3
7269.368,308,-168,16324,-2240,-74,-41,3
7269.368,308,-168,16324,-2240,-74,-41,3
7273.499,307,-168,16316,-2224,-21,-30,-17
7278.158,307,-168,16316,-2224,-21,-30,-17
7278.158,306,-168,16316,-2224,-21,-30,-17
7281.4839999999995,306,-168,16316,-2224,-21,-30,-17
7286.651,307,-168,16316,-2224,-21,-30,-17
7290.18,306,-168,16316,-2224,-21,-30,-17
7291.931,307,-152,16320,-2240,-29,-34,-3
7295.021000000001,307,-152,16320,-2240,-29,-34,-3
7297.863,307,-152,16320,-2240,-29,-34,-3
7299.868,306,-152,16320,-2240,-29,-34,-3
7302.552000000001,308,-152,16320,-2240,-29,-34,-3
7306.769,307,-152,16320,-2240,-29,-34,-3
7308.285,307,-152,16320,-2240,-29,-34,-3
7310.295,307,-152,16320,-2240,-29,-34,-3
7314.507,307,-204,16296,-2236,-66,-52,-16
7319.110000000001,307,-204,16296,-2236,-66,-52,-16
7319.110000000001,307,-204,16296,-2236,-66,-52,-16
7324.067,307,-204,16296,-2236,-66,-52,-16
7325.707,308,-204,16296,-2236,-66,-52,-16
7325.707,308,-204,16296,-2236,-66,-52,-16
7330.599999999999,308,-260,16416,-2204,-21,-52,-17
7335.8189999999995,307,-260,16416,-2204,-21,-52,-17
7335.8189999999995,307,-260,16416,-2204,-21,-52,-17
7340.587,307,-260,16416,-2204,-21,-52,-17
7344.052,308,-260,16416,-2204,-21,-52,-17
7347.164000000001,306,-260,16416,-2204,-21,-52,-17
7348.911,308,-260,16416,-2204,-21,-52,-17
7352.3279999999995,307,-240,16316,-2284,-15,-48,-25
7355.963,307,-240,16316,-2284,-15,-48,-25
7357.592000000001,308,-240,16316,-2284,-15,-48,-25
7357.592000000001,308,-240,16316,-2284,-15,-48,-25
7357.592000000001,307,-240,16316,-2284,-15,-48,-25
7368.566000000001,308,-240,16316,-2284,-15,-48,-25
7368.566000000001,308,-240,16316,-2284,-15,-48,-25
7368.566000000001,308,-204,16284,-2268,-82,-30,-24
7373.945,307,-204,16284,-2268,-82,-30,-24
7373.945,307,-204,16284,-2268,-82,-30,-24
7382.0560000000005,306,-204,16284,-2268,-82,-30,-24
7382.0560000000005,307,-204,16284,-2268,-82,-30,-24
7382.0560000000005,307,-204,16284,-2268,-82,-30,-24
7390.451,307,-204,16284,-2268,-82,-30,-24
7393.701,307,-248,16372,-2208,19,-27,7
7393.701,307,-248,16372,-2208,19,-27,7
7398.709,307,-248,16372,-2208,19,-27,7
7398.709,307,-248,16372,-2208,19,-27,7
7398.709,306,-248,16372,-2208,19,-27,7
7408.439,307,-248,16372,-2208,19,-27,7
7408.439,307,-248,16372,-2208,19,-27,7
7408.439,306,-244,16336,-2280,-9,-33,-36
7415.3460000000005,308,-244,16336,-2280,-9,-33,-36
7415.3460000000005,307,-244,16336,-2280,-9,-33,-36
7415.3460000000005,308,-244,16336,-2280,-9,-33,-36
7423.83,307,-244,16336,-2280,-9,-33,-36
7423.83,308,-244,16336,-2280,-9,-33,-36
7423.83,308,-244,16336,-2280,-9,-33,-36
7431.711,308,-200,16304,-2236,-90,-33,-12
7435.867,307,-200,16304,-2236,-90,-33,-12
7435.867,307,-200,16304,-2236,-90,-33,-12
7441.013,307,-200,16304,-2236,-90,-33,-12
7441.013,307,-200,16304,-2236,-90,-33,-12
7441.013,308,-200,16304,-2236,-90,-33,-12
7450.589,308,-200,16304,-2236,-90,-33,-12
7451.378,309,-224,16320,-2216,0,-33,0
7456.522,308,-224,16320,-2216,0,-33,0
7456.522,308,-224,16320,-2216,0,-33,0
7456.522,308,-224,16320,-2216,0,-33,0
7456.522,307,-224,16320,-2216,0,-33,0
7466.738,307,-224,16320,-2216,0,-33,0
7466.738,307,-224,16320,-2216,0,-33,0
7466.738,308,-224,16320,-2216,0,-33,0
7474.633,308,-188,16372,-2244,1,-43,-5
7476.775,307,-188,16372,-2244,1,-43,-5
7478.511,308,-188,16372,-2244,1,-43,-5
7481.114,308,-188,16372,-2244,1,-43,-5
7481.114,307,-188,16372,-2244,1,-43,-5
7481.114,307,-188,16372,-2244,1,-43,-5
7491.34,308,-188,16372,-2244,1,-43,-5
7493.357,308,-188,16372,-2244,1,-43,-5
7495.369000000001,308,-256,16348,-2220,-109,-36,-18
7497.38,309,-256,16348,-2220,-109,-36,-18
7497.38,308,-256,16348,-2220,-109,-36,-18
7497.38,308,-256,16348,-2220,-109,-36,-18
7507.084,308,-256,16348,-2220,-109,-36,-18
7507.084,308,-256,16348,-2220,-109,-36,-18
7513.689,308,-244,16280,-2196,-23,-27,-21
7513.689,308,-244,16280,-2196,-23,-27,-21
7513.689,307,-244,16280,-2196,-23,-27,-21
7523.707,308,-244,16280,-2196,-23,-27,-21
7523.707,307,-244,16280,-2196,-23,-27,-21
7523.707,308,-244,16280,-2196,-23,-27,-21
7529.978,308,-244,16280,-2196,-23,-27,-21
7529.978,308,-208,16292,-2224,13,-25,-9
7536.147,308,-208,16292,-2224,13,-25,-9
7539.959,308,-208,16292,-2224,13,-25,-9
7539.959,307,-208,16292,-2224,13,-25,-9
7539.959,308,-208,16292,-2224,13,-25,-9
7548.738,308,-208,16292,-2224,13,-25,-9
7548.738,308,-208,16292,-2224,13,-25,-9
7548.738,309,-220,16344,-2228,-55,-30,13
7558.053,308,-220,16344,-2228,-55,-30,13
7560.206,308,-220,16344,-2228,-55,-30,13
7562.2210000000005,308,-220,16344,-2228,-55,-30,13
7562.2210000000005,308,-220,16344,-2228,-55,-30,13
7562.2210000000005,308,-220,16344,-2228,-55,-30,13
7562.2210000000005,308,-220,16344,-2228,-55,-30,13
7573.309,308,-220,16344,-2228,-55,-30,13
7576.7210000000005,308,-248,16360,-2204,-88,-58,1
7578.746,308,-248,16360,-2204,-88,-58,1
7580.7609999999995,308,-248,16360,-2204,-88,-58,1
7585.586,308,-248,16360,-2204,-88,-58,1
7587.114,308,-248,16360,-2204,-88,-58,1
7587.114,308,-248,16360,-2204,-88,-58,1
7591.2519999999995,308,-248,16360,-2204,-88,-58,1
7595.507,309,-188,16376,-2248,19,-45,1
7595.507,308,-188,16376,-2248,19,-45,1
7595.507,308,-188,16376,-2248,19,-45,1
7600.722,309,-188,16376,-2248,19,-45,1
7603.6630000000005,308,-188,16376,-2248,19,-45,1
7608.876,308,-188,16376,-2248,19,-45,1
7609.997,309,-188,16376,-2248,19,-45,1
7614.286,308,-156,16348,-2288,-8,-21,-15
7614.286,307,-156,16348,-2288,-8,-21,-15
7614.286,307,-156,16348,-2288,-8,-21,-15
7620.682000000001,308,-156,16348,-2288,-8,-21,-15
7624.945000000001,307,-156,16348,-2288,-8,-21,-15
7624.945000000001,307,-156,16348,-2288,-8,-21,-15
7628.686,307,-156,16348,-2288,-8,-21,-15
7633.152,308,-260,16348,-2236,-109,-39,2
7636.6810000000005,307,-260,16348,-2236,-109,-39,2
7639.415,308,-260,16348,-2236,-109,-39,2
7639.415,307,-260,16348,-2236,-109,-39,2
7639.415,307,-260,16348,-2236,-109,-39,2
7647.067,308,-260,16348,-2236,-109,-39,2
7647.067,308,-260,16348,-2236,-109,-39,2
7653.053,308,-208,16348,-2192,-38,-32,-9
7656.6320000000005,307,-208,16348,-2192,-38,-32,-9
7659.357,307,-208,16348,-2192,-38,-32,-9
7663.456,307,-208,16348,-2192,-38,-32,-9
7663.456,307,-208,16348,-2192,-38,-32,-9
7663.456,308,-208,16348,-2192,-38,-32,-9
7671.619,308,-208,16348,-2192,-38,-32,-9
7674.419,308,-204,16312,-2236,36,-34,-9
7674.419,307,-204,16312,-2236,36,-34,-9
7680.0470000000005,308,-204,16312,-2236,36,-34,-9
7680.0470000000005,307,-204,16312,-2236,36,-34,-9
7680.0470000000005,307,-204,16312,-2236,36,-34,-9
7686.182,307,-204,16312,-2236,36,-34,-9
7689.989,307,-204,16312,-2236,36,-34,-9
7689.989,308,-204,16312,-2236,36,-34,-9
7694.467000000001,308,-240,16332,-2264,-82,-27,-9
7694.467000000001,308,-240,16332,-2264,-82,-27,-9
7694.467000000001,308,-240,16332,-2264,-82,-27,-9
7702.611,308,-240,16332,-2264,-82,-27,-9
7702.611,307,-240,16332,-2264,-82,-27,-9
7706.638,307,-240,16332,-2264,-82,-27,-9
7711.678,308,-240,16332,-2264,-82,-27,-9
7711.678,307,-172,16336,-2196,-35,-40,5
7711.678,308,-172,16336,-2196,-35,-40,5
7718.652,307,-172,16336,-2196,-35,-40,5
7723.043,308,-172,16336,-2196,-35,-40,5
7723.043,308,-172,16336,-2196,-35,-40,5
7726.746999999999,307,-172,16336,-2196,-35,-40,5
7726.746999999999,308,-172,16336,-2196,-35,-40,5
7734.9529999999995,308,-196,16420,-2216,25,-38,-5
7737.573,308,-196,16420,-2216,25,-38,-5
7739.725,308,-196,16420,-2216,25,-38,-5
7743.074,307,-196,16420,-2216,25,-38,-5
7745.367,307,-196,16420,-2216,25,-38,-5
7745.367,307,-196,16420,-2216,25,-38,-5
7751.26,307,-196,16420,-2216,25,-38,-5
7753.745999999999,307,-192,16288,-2264,-61,-22,3
7756.931,308,-192,16288,-2264,-61,-22,3
7758.947,308,-192,16288,-2264,-61,-22,3
7761.102,307,-192,16288,-2264,-61,-22,3
7761.102,307,-192,16288,-2264,-61,-22,3
7767.2970000000005,307,-192,16288,-2264,-61,-22,3
7767.2970000000005,308,-192,16288,-2264,-61,-22,3
7773.975,307,-192,16288,-2264,-61,-22,3
7775.712,307,-200,16308,-2228,-64,-29,-14
7775.712,307,-200,16308,-2228,-64,-29,-14
7775.712,306,-200,16308,-2228,-64,-29,-14
7786.3150000000005,307,-200,16308,-2228,-64,-29,-14
7786.798,308,-200,16308,-2228,-64,-29,-14
7790.578,307,-200,16308,-2228,-64,-29,-14
7793.446999999999,307,-200,16308,-2228,-64,-29,-14
7793.446999999999,306,-200,16368,-2276,31,-26,-18
7797.017999999999,306,-200,16368,-2276,31,-26,-18
7801.41,307,-200,16368,-2276,31,-26,-18
7801.41,308,-200,16368,-2276,31,-26,-18
7807.506,308,-200,16368,-2276,31,-26,-18
7808.531999999999,308,-200,16368,-2276,31,-26,-18
7808.531999999999,309,-200,16368,-2276,31,-26,-18
7808.531999999999,308,-244,16340,-2240,-65,-27,-10
7819.314,308,-244,16340,-2240,-65,-27,-10
7819.314,307,-244,16340,-2240,-65,-27,-10
7826.925,306,-244,16340,-2240,-65,-27,-10
7826.925,306,-244,16340,-2240,-65,-27,-10
7831.366,307,-244,16340,-2240,-65,-27,-10
7835.106,307,-228,16304,-2268,-82,-27,2
7835.106,308,-228,16304,-2268,-82,-27,2
7837.122,308,-228,16304,-2268,-82,-27,2
7842.59,308,-228,16304,-2268,-82,-27,2
7842.59,307,-228,16304,-2268,-82,-27,2
7847.754,307,-228,16304,-2268,-82,-27,2
7848.843,308,-228,16304,-2268,-82,-27,2
7848.843,308,-228,16304,-2268,-82,-27,2
7857.215,308,-264,16344,-2192,13,-36,-15
7859.231000000001,307,-264,16344,-2192,13,-36,-15
7859.231000000001,307,-264,16344,-2192,13,-36,-15
7861.906,307,-264,16344,-2192,13,-36,-15
7867.617,307,-264,16344,-2192,13,-36,-15
7869.627,307,-264,16344,-2192,13,-36,-15
7871.6359999999995,307,-264,16344,-2192,13,-36,-15
7875.673,308,-244,16384,-2288,-13,-23,-36
7877.683,307,-244,16384,-2288,-13,-23,-36
7879.699,308,-244,16384,-2288,-13,-23,-36
7883.722,307,-244,16384,-2288,-13,-23,-36
7891.794,307,-244,16384,-2288,-13,-23,-36
7895.831,307,-244,16384,-2288,-13,-23,-36
7895.831,307,-244,16384,-2288,-13,-23,-36
7897.845,307,-204,16332,-2248,-80,-17,-5
7899.857,307,-204,16332,-2248,-80,-17,-5
7901.872,307,-204,16332,-2248,-80,-17,-5
7905.717000000001,307,-204,16332,-2248,-80,-17,-5
7908.881,307,-204,16332,-2248,-80,-17,-5
7910.893,308,-204,16332,-2248,-80,-17,-5
7912.903,308,-204,16332,-2248,-80,-17,-5
7915.919,308,-188,16308,-2212,-5,-33,4
7917.9259999999995,307,-188,16308,-2212,-5,-33,4
7919.932,306,-188,16308,-2212,-5,-33,4
7925.245999999999,306,-188,16308,-2212,-5,-33,4
7927.27,307,-188,16308,-2212,-5,-33,4
7930.304999999999,307,-188,16308,-2212,-5,-33,4
7932.329000000001,307,-188,16308,-2212,-5,-33,4
7934.345,307,-212,16320,-2264,7,-43,-7
7938.3949999999995,307,-212,16320,-2264,7,-43,-7
7939.872,307,-212,16320,-2264,7,-43,-7
7942.542,307,-212,16320,-2264,7,-43,-7
7946.575,307,-212,16320,-2264,7,-43,-7
7948.597000000001,307,-212,16320,-2264,7,-43,-7
7950.610000000001,307,-212,16320,-2264,7,-43,-7
7954.646000000001,307,-212,16320,-2264,7,-43,-7
7957.059,308,-208,16396,-2224,-92,-48,-21
7958.197,307,-208,16396,-2224,-92,-48,-21
7962.228999999999,307,-208,16396,-2224,-92,-48,-21
7966.262000000001,307,-208,16396,-2224,-92,-48,-21
7968.28,308,-208,16396,-2224,-92,-48,-21
7970.303000000001,308,-208,16396,-2224,-92,-48,-21
7975.189,308,-208,16396,-2224,-92,-48,-21
7976.521,308,-196,16324,-2192,-39,-32,-11
7978.535,307,-196,16324,-2192,-39,-32,-11
7982.456,308,-196,16324,-2192,-39,-32,-11
7986.3189999999995,307,-196,16324,-2192,-39,-32,-11
7988.039,308,-196,16324,-2192,-39,-32,-11
7992.192,308,-196,16324,-2192,-39,-32,-11
7994.209,307,-192,16308,-2272,27,-10,-31
7996.224,307,-192,16308,-2272,27,-10,-31
7999.551,308,-192,16308,-2272,27,-10,-31
8002.071000000001,307,-192,16308,-2272,27,-10,-31
8004.085999999999,307,-192,16308,-2272,27,-10,-31
8004.085999999999,306,-192,16308,-2272,27,-10,-31
8012.147000000001,308,-192,16308,-2272,27,-10,-31
8014.151999999999,307,-192,16308,-2272,27,-10,-31
8016.156000000001,308,-272,16292,-2296,-70,-37,-1
8020.165999999999,308,-272,16292,-2296,-70,-37,-1
8024.049,307,-272,16292,-2296,-70,-37,-1
8024.049,307,-272,16292,-2296,-70,-37,-1
8026.361,307,-272,16292,-2296,-70,-37,-1
8026.361,307,-272,16292,-2296,-70,-37,-1
8026.361,308,-272,16292,-2296,-70,-37,-1
8037.451000000001,308,-260,16348,-2232,-85,-37,-10
8040.291,308,-260,16348,-2232,-85,-37,-10
8043.175,308,-260,16348,-2232,-85,-37,-10
8045.928,308,-260,16348,-2232,-85,-37,-10
8048.092000000001,308,-260,16348,-2232,-85,-37,-10
8051.612999999999,308,-260,16348,-2232,-85,-37,-10
8051.612999999999,308,-248,16356,-2236,24,-43,-1
8055.621999999999,308,-248,16356,-2236,24,-43,-1
8059.715000000001,308,-248,16356,-2236,24,-43,-1
8059.715000000001,307,-248,16356,-2236,24,-43,-1
8059.715000000001,307,-248,16356,-2236,24,-43,-1
8068.118,306,-248,16356,-2236,24,-43,-1
8071.063,307,-248,16356,-2236,24,-43,-1
8071.063,308,-248,16356,-2236,24,-43,-1
8076.200999999999,308,-244,16292,-2252,-52,-24,-10
8076.200999999999,308,-244,16292,-2252,-52,-24,-10
8076.200999999999,307,-244,16292,-2252,-52,-24,-10
8084.429999999999,307,-244,16292,-2252,-52,-24,-10
8084.429999999999,307,-244,16292,-2252,-52,-24,-10
8090.375999999999,308,-244,16292,-2252,-52,-24,-10
8094.639000000001,307,-244,16292,-2252,-52,-24,-10
8094.639000000001,309,-240,16296,-2224,-109,-41,6
8094.639000000001,307,-240,16296,-2224,-109,-41,6
8101.647,308,-240,16296,-2224,-109,-41,6
8101.647,308,-240,16296,-2224,-109,-41,6
8109.413999999999,308,-240,16296,-2224,-109,-41,6
8109.413999999999,308,-240,16296,-2224,-109,-41,6
8109.413999999999,308,-240,16296,-2224,-109,-41,6
8117.781000000001,307,-220,16368,-2248,22,-25,-1
8117.781000000001,307,-220,16368,-2248,22,-25,-1
8117.781000000001,308,-220,16368,-2248,22,-25,-1
8125.880999999999,307,-220,16368,-2248,22,-25,-1
8125.880999999999,308,-220,16368,-2248,22,-25,-1
8125.880999999999,307,-220,16368,-2248,22,-25,-1
8134.3189999999995,307,-220,16368,-2248,22,-25,-1
8134.3189999999995,306,-236,16344,-2268,-9,-52,-10
8137.669000000001,307,-236,16344,-2268,-9,-52,-10
8142.683,307,-236,16344,-2268,-9,-52,-10
8142.683,307,-236,16344,-2268,-9,-52,-10
8142.683,307,-236,16344,-2268,-9,-52,-10
8151.153000000001,308,-236,16344,-2268,-9,-52,-10
8151.153000000001,308,-236,16344,-2268,-9,-52,-10
8151.153000000001,307,-236,16292,-2272,-120,-22,-1
8159.293,307,-236,16292,-2272,-120,-22,-1
8159.293,307,-236,16292,-2272,-120,-22,-1
8159.293,307,-236,16292,-2272,-120,-22,-1
8167.725,307,-236,16292,-2272,-120,-22,-1
8167.725,307,-236,16292,-2272,-120,-22,-1
8173.356,307,-236,16292,-2272,-120,-22,-1
8175.822999999999,308,-204,16312,-2220,-1,-23,-4
8175.822999999999,307,-204,16312,-2220,-1,-23,-4
8175.822999999999,306,-204,16312,-2220,-1,-23,-4
8184.416,307,-204,16312,-2220,-1,-23,-4
8184.416,306,-204,16312,-2220,-1,-23,-4
8191.041,307,-204,16312,-2220,-1,-23,-4
8192.871000000001,308,-204,16312,-2220,-1,-23,-4
8192.871000000001,307,-224,16340,-2292,10,-27,-29
8192.871000000001,307,-224,16340,-2292,10,-27,-29
8201.398,307,-224,16340,-2292,10,-27,-29
8204.179999999998,307,-224,16340,-2292,10,-27,-29
8207.342,308,-224,16340,-2292,10,-27,-29
8209.642,307,-224,16340,-2292,10,-27,-29
8209.642,308,-224,16340,-2292,10,-27,-29
8209.642,308,-196,16356,-2256,-120,-26,-11
8217.7,307,-196,16356,-2256,-120,-26,-11
8223.641000000001,307,-196,16356,-2256,-120,-26,-11
8226.029,307,-196,16356,-2256,-120,-26,-11
8226.029,307,-196,16356,-2256,-120,-26,-11
8226.029,307,-196,16356,-2256,-120,-26,-11
8234.103,308,-196,16356,-2256,-120,-26,-11
8237.859999999999,307,-232,16288,-2212,-14,-38,-32
8240.368,307,-232,16288,-2212,-14,-38,-32
8242.506000000001,307,-232,16288,-2212,-14,-38,-32
8242.506000000001,307,-232,16288,-2212,-14,-38,-32
8242.506000000001,308,-232,16288,-2212,-14,-38,-32
8250.912,308,-232,16288,-2212,-14,-38,-32
8250.912,307,-232,16288,-2212,-14,-38,-32
8257.853000000001,307,-208,16312,-2268,27,-29,16
8259.378,307,-208,16312,-2268,27,-29,16
8259.378,308,-208,16312,-2268,27,-29,16
8259.378,307,-208,16312,-2268,27,-29,16
8269.824,307,-208,16312,-2268,27,-29,16
8269.824,308,-208,16312,-2268,27,-29,16
8269.824,308,-208,16312,-2268,27,-29,16
8275.843,308,-240,16336,-2272,-92,-51,-12
8275.843,307,-240,16336,-2272,-92,-51,-12
8275.843,308,-240,16336,-2272,-92,-51,-12
8284.132,307,-240,16336,-2272,-92,-51,-12
8284.132,308,-240,16336,-2272,-92,-51,-12
8290.459,307,-240,16336,-2272,-92,-51,-12
8295.162,308,-240,16336,-2272,-92,-51,-12
8295.162,307,-228,16324,-2224,-47,-36,4
8295.162,307,-228,16324,-2224,-47,-36,4
8302.401,307,-228,16324,-2224,-47,-36,4
8302.401,307,-228,16324,-2224,-47,-36,4
8309.802,307,-228,16324,-2224,-47,-36,4
8309.802,308,-228,16324,-2224,-47,-36,4
8315.007,309,-228,16324,-2224,-47,-36,4
8317.023000000001,308,-228,16348,-2248,18,-11,-1
8317.023000000001,308,-228,16348,-2248,18,-11,-1
8321.77,307,-228,16348,-2248,18,-11,-1
8325.099,307,-228,16348,-2248,18,-11,-1
8327.121,307,-228,16348,-2248,18,-11,-1
8331.078,307,-228,16348,-2248,18,-11,-1
8333.472,307,-228,16348,-2248,18,-11,-1
8333.472,308,-224,16304,-2292,-63,-33,-8
8339.482,307,-224,16304,-2292,-63,-33,-8
8341.499,307,-224,16304,-2292,-63,-33,-8
8341.499,307,-224,16304,-2292,-63,-33,-8
8341.499,307,-224,16304,-2292,-63,-33,-8
8349.829,307,-224,16304,-2292,-63,-33,-8
8349.829,307,-224,16304,-2292,-63,-33,-8
8349.829,308,-188,16328,-2188,-61,-31,0
8359.038,308,-188,16328,-2188,-61,-31,0
8361.488,308,-188,16328,-2188,-61,-31,0
8363.844000000001,307,-188,16328,-2188,-61,-31,0
8366.071,308,-188,16328,-2188,-61,-31,0
8368.089,307,-188,16328,-2188,-61,-31,0
8368.089,307,-188,16328,-2188,-61,-31,0
8374.627,308,-188,16328,-2188,-61,-31,0
8374.627,307,-232,16352,-2208,2,-36,-15
8374.627,307,-232,16352,-2208,2,-36,-15
8382.911999999998,307,-232,16352,-2208,2,-36,-15
8386.697,307,-232,16352,-2208,2,-36,-15
8386.697,308,-232,16352,-2208,2,-36,-15
8390.564,307,-232,16352,-2208,2,-36,-15
8390.564,307,-232,16352,-2208,2,-36,-15
8390.564,307,-176,16332,-2244,-13,-40,-13
8400.712,307,-176,16332,-2244,-13,-40,-13
8400.712,307,-176,16332,-2244,-13,-40,-13
8400.712,307,-176,16332,-2244,-13,-40,-13
8406.807,307,-176,16332,-2244,-13,-40,-13
8410.557999999999,308,-176,16332,-2244,-13,-40,-13
8410.557999999999,307,-176,16332,-2244,-13,-40,-13
8417.973999999998,307,-264,16364,-2248,-63,-47,0
8419.052000000001,308,-264,16364,-2248,-63,-47,0
8423.064999999999,307,-264,16364,-2248,-63,-47,0
8425.105,307,-264,16364,-2248,-63,-47,0
8429.559,307,-264,16364,-2248,-63,-47,0
8431.324999999999,307,-264,16364,-2248,-63,-47,0
8431.324999999999,308,-264,16364,-2248,-63,-47,0
8431.324999999999,308,-224,16368,-2232,-15,-50,10
8439.509,307,-224,16368,-2232,-15,-50,10
8440.364000000001,307,-224,16368,-2232,-15,-50,10
8440.364000000001,307,-224,16368,-2232,-15,-50,10
8447.883,308,-224,16368,-2232,-15,-50,10
8447.883,308,-224,16368,-2232,-15,-50,10
8447.883,307,-224,16368,-2232,-15,-50,10
8457.024000000001,307,-212,16328,-2236,-20,-23,-13
8457.024000000001,307,-212,16328,-2236,-20,-23,-13
8457.024000000001,307,-212,16328,-2236,-20,-23,-13
8464.907000000001,307,-212,16328,-2236,-20,-23,-13
8464.907000000001,308,-212,16328,-2236,-20,-23,-13
8464.907000000001,307,-212,16328,-2236,-20,-23,-13
8473.435,307,-212,16328,-2236,-20,-23,-13
8478.467999999999,308,-192,16320,-2264,-69,-25,-4
8478.467999999999,307,-192,16320,-2264,-69,-25,-4
8481.503999999999,308,-192,16320,-2264,-69,-25,-4
8484.645,309,-192,16320,-2264,-69,-25,-4
8484.645,308,-192,16320,-2264,-69,-25,-4
8492.451000000001,308,-192,16320,-2264,-69,-25,-4
8495.065,309,-192,16320,-2264,-69,-25,-4
8497.465,308,-200,16328,-2248,-30,-24,-7
8499.479,308,-200,16328,-2248,-30,-24,-7
8499.479,308,-200,16328,-2248,-30,-24,-7
8505.489000000001,307,-200,16328,-2248,-30,-24,-7
8507.51,308,-200,16328,-2248,-30,-24,-7
8507.51,308,-200,16328,-2248,-30,-24,-7
8513.61,308,-200,16328,-2248,-30,-24,-7
8513.61,308,-204,16364,-2268,-1,-33,-10
8513.61,308,-204,16364,-2268,-1,-33,-10
8521.734999999999,308,-204,16364,-2268,-1,-33,-10
8524.078,309,-204,16364,-2268,-1,-33,-10
8528.323999999999,309,-204,16364,-2268,-1,-33,-10
8530.064,308,-204,16364,-2268,-1,-33,-10
8530.064,308,-204,16364,-2268,-1,-33,-10
8530.064,308,-216,16372,-2244,-64,-38,-10
8540.633,307,-216,16372,-2244,-64,-38,-10
8542.65,307,-216,16372,-2244,-64,-38,-10
8545.469000000001,307,-216,16372,-2244,-64,-38,-10
8546.983,308,-216,16372,-2244,-64,-38,-10
8551.449,309,-216,16372,-2244,-64,-38,-10
8551.449,308,-216,16372,-2244,-64,-38,-10
8556.539,308,-192,16312,-2236,-35,-30,-4
8558.564,308,-192,16312,-2236,-35,-30,-4
8563.653,308,-192,16312,-2236,-35,-30,-4
8565.664,308,-192,16312,-2236,-35,-30,-4
8565.664,308,-192,16312,-2236,-35,-30,-4
8572.005000000001,309,-192,16312,-2236,-35,-30,-4
8573.235,309,-192,16312,-2236,-35,-30,-4
8576.288,308,-184,16344,-2232,1,-22,7
8580.238,308,-184,16344,-2232,1,-22,7
8580.238,307,-184,16344,-2232,1,-22,7
8580.238,308,-184,16344,-2232,1,-22,7
8580.238,308,-184,16344,-2232,1,-22,7
8588.381,308,-184,16344,-2232,1,-22,7
8593.368,309,-184,16344,-2232,1,-22,7
8595.380000000001,308,-184,16344,-2232,1,-22,7
8596.895999999999,308,-204,16336,-2236,-47,-34,-33
8598.725999999999,308,-204,16336,-2236,-47,-34,-33
8598.725999999999,308,-204,16336,-2236,-47,-34,-33
8607.091,308,-204,16336,-2236,-47,-34,-33
8609.109999999999,308,-204,16336,-2236,-47,-34,-33
8613.101999999999,308,-204,16336,-2236,-47,-34,-33
8615.122,309,-204,16336,-2236,-47,-34,-33
8618.520999999999,309,-216,16424,-2252,-16,-17,-11
8621.708,307,-216,16424,-2252,-16,-17,-11
8621.708,308,-216,16424,-2252,-16,-17,-11
8626.664999999999,308,-216,16424,-2252,-16,-17,-11
8629.886,308,-216,16424,-2252,-16,-17,-11
8629.886,308,-216,16424,-2252,-16,-17,-11
8629.886,308,-260,16352,-2244,-15,-48,-6
8639.114,307,-260,16352,-2244,-15,-48,-6
8641.133,308,-260,16352,-2244,-15,-48,-6
8643.183,307,-260,16352,-2244,-15,-48,-6
8646.384,307,-260,16352,-2244,-15,-48,-6
8649.741,308,-260,16352,-2244,-15,-48,-6
8649.741,308,-260,16352,-2244,-15,-48,-6
8654.658,308,-260,16352,-2244,-15,-48,-6
8654.658,308,-200,16276,-2240,-90,-36,-16
8662.538,309,-200,16276,-2240,-90,-36,-16
8662.538,308,-200,16276,-2240,-90,-36,-16
8662.538,308,-200,16276,-2240,-90,-36,-16
8670.697,308,-200,16276,-2240,-90,-36,-16
8672.614,308,-200,16276,-2240,-90,-36,-16
8676.838,309,-184,16436,-2228,2,-35,-13
8678.855,308,-184,16436,-2228,2,-35,-13
8678.855,308,-184,16436,-2228,2,-35,-13
8678.855,307,-184,16436,-2228,2,-35,-13
8687.082999999999,308,-184,16436,-2228,2,-35,-13
8689.456,307,-184,16436,-2228,2,-35,-13
8692.362,308,-184,16436,-2228,2,-35,-13
8695.452,308,-184,16436,-2228,2,-35,-13
8695.452,308,-240,16380,-2264,-9,-43,-9
8695.452,307,-240,16380,-2264,-9,-43,-9
8703.652,308,-240,16380,-2264,-9,-43,-9
8706.367999999999,308,-240,16380,-2264,-9,-43,-9
8710.119999999999,308,-240,16380,-2264,-9,-43,-9
8711.863,308,-240,16380,-2264,-9,-43,-9
8711.863,308,-240,16380,-2264,-9,-43,-9
8711.863,308,-224,16332,-2244,-116,-37,-3
8720.216,307,-224,16332,-2244,-116,-37,-3
8723.257,307,-224,16332,-2244,-116,-37,-3
8723.257,307,-224,16332,-2244,-116,-37,-3
8728.455,308,-224,16332,-2244,-116,-37,-3
8728.455,308,-224,16332,-2244,-116,-37,-3
8736.676,308,-224,16332,-2244,-116,-37,-3
8736.676,308,-200,16304,-2252,13,-33,-22
8739.728,307,-200,16304,-2252,13,-33,-22
8745.113,307,-200,16304,-2252,13,-33,-22
8745.113,308,-200,16304,-2252,13,-33,-22
8745.113,307,-200,16304,-2252,13,-33,-22
8753.205,308,-200,16304,-2252,13,-33,-22
8755.801,308,-200,16304,-2252,13,-33,-22
8757.258,307,-192,16364,-2252,29,-51,-8
8761.241,308,-192,16364,-2252,29,-51,-8
8763.255,307,-192,16364,-2252,29,-51,-8
8763.255,308,-192,16364,-2252,29,-51,-8
8768.759,307,-192,16364,-2252,29,-51,-8
8770.773000000001,308,-192,16364,-2252,29,-51,-8
8772.792000000001,307,-192,16364,-2252,29,-51,-8
8776.825,308,-208,16352,-2276,-137,-43,-14
8780.928,307,-208,16352,-2276,-137,-43,-14
8782.942000000001,308,-208,16352,-2276,-137,-43,-14
8784.957999999999,307,-208,16352,-2276,-137,-43,-14
8784.957999999999,307,-208,16352,-2276,-137,-43,-14
8792.477,308,-208,16352,-2276,-137,-43,-14
8794.314999999999,307,-208,16352,-2276,-137,-43,-14
8794.314999999999,307,-220,16292,-2220,-39,-48,-15
8800.824999999999,307,-220,16292,-2220,-39,-48,-15
8802.84,307,-220,16292,-2220,-39,-48,-15
8807.137,307,-220,16292,-2220,-39,-48,-15
8808.872,307,-220,16292,-2220,-39,-48,-15
8808.872,307,-220,16292,-2220,-39,-48,-15
8808.872,308,-220,16292,-2220,-39,-48,-15
8817.06,308,-176,16396,-2288,58,-29,-8
8821.823,307,-176,16396,-2288,58,-29,-8
8823.672999999999,307,-176,16396,-2288,58,-29,-8
8827.016,307,-176,16396,-2288,58,-29,-8
8830.223,308,-176,16396,-2288,58,-29,-8
8832.239,307,-176,16396,-2288,58,-29,-8
8834.227,308,-176,16396,-2288,58,-29,-8
8839.114,308,-232,16412,-2224,-88,-49,-5
8840.375999999998,308,-232,16412,-2224,-88,-49,-5
8842.132,307,-232,16412,-2224,-88,-49,-5
8843.522,307,-232,16412,-2224,-88,-49,-5
8843.522,308,-232,16412,-2224,-88,-49,-5
8850.289,308,-232,16412,-2224,-88,-49,-5
8850.289,307,-232,16412,-2224,-88,-49,-5
8857.055,307,-156,16352,-2220,-99,-24,0
8858.572,307,-156,16352,-2220,-99,-24,0
8863.871,307,-156,16352,-2220,-99,-24,0
8866.908000000001,306,-156,16352,-2220,-99,-24,0
8866.908000000001,307,-156,16352,-2220,-99,-24,0
8866.908000000001,308,-156,16352,-2220,-99,-24,0
8875.157,308,-156,16352,-2220,-99,-24,0
8875.157,307,-260,16348,-2220,59,-43,-8
8875.157,306,-260,16348,-2220,59,-43,-8
8883.25,307,-260,16348,-2220,59,-43,-8
8883.25,307,-260,16348,-2220,59,-43,-8
8883.25,308,-260,16348,-2220,59,-43,-8
8891.285999999998,307,-260,16348,-2220,59,-43,-8
8893.307,307,-260,16348,-2220,59,-43,-8
8895.322,308,-260,16348,-2220,59,-43,-8
8899.492,307,-200,16292,-2308,-54,-41,-20
8899.492,307,-200,16292,-2308,-54,-41,-20
8899.492,307,-200,16292,-2308,-54,-41,-20
8907.829,308,-200,16292,-2308,-54,-41,-20
8911.293000000001,308,-200,16292,-2308,-54,-41,-20
8911.293000000001,308,-200,16292,-2308,-54,-41,-20
8915.943000000001,309,-216,16308,-2176,-119,-36,-3
8915.943000000001,308,-216,16308,-2176,-119,-36,-3
8923.769,307,-216,16308,-2176,-119,-36,-3
8924.452000000001,307,-216,16308,-2176,-119,-36,-3
8924.452000000001,307,-216,16308,-2176,-119,-36,-3
8924.452000000001,307,-216,16308,-2176,-119,-36,-3
8931.916,308,-216,16308,-2176,-119,-36,-3
8931.916,307,-212,16384,-2244,41,-42,-9
8940.795,308,-212,16384,-2244,41,-42,-9
8942.807999999999,307,-212,16384,-2244,41,-42,-9
8942.807999999999,307,-212,16384,-2244,41,-42,-9
8948.207999999999,307,-212,16384,-2244,41,-42,-9
8948.207999999999,307,-212,16384,-2244,41,-42,-9
8948.207999999999,307,-212,16384,-2244,41,-42,-9
8957.159000000001,307,-212,16384,-2244,41,-42,-9
8959.177,307,-228,16340,-2312,-22,-6,-10
8959.177,307,-228,16340,-2312,-22,-6,-10
8964.434000000001,307,-228,16340,-2312,-22,-6,-10
8966.443,307,-228,16340,-2312,-22,-6,-10
8970.461,308,-228,16340,-2312,-22,-6,-10
8972.47,307,-228,16340,-2312,-22,-6,-10
8972.47,308,-228,16340,-2312,-22,-6,-10
8972.47,307,-176,16344,-2240,-147,-40,1
8980.9,308,-176,16344,-2240,-147,-40,1
8980.9,307,-176,16344,-2240,-147,-40,1
8980.9,307,-176,16344,-2240,-147,-40,1
8990.612000000001,307,-176,16344,-2240,-147,-40,1
8990.612000000001,307,-176,16344,-2240,-147,-40,1
8990.612000000001,307,-176,16344,-2240,-147,-40,1
8996.791,307,-204,16332,-2184,-5,-29,-14
8996.791,307,-204,16332,-2184,-5,-29,-14
9003.996000000001,307,-204,16332,-2184,-5,-29,-14
9007.36,307,-204,16332,-2184,-5,-29,-14
9009.368,308,-204,16332,-2184,-5,-29,-14
9011.961,308,-204,16332,-2184,-5,-29,-14
9014.186,308,-204,16332,-2184,-5,-29,-14
9019.021999999999,307,-208,16384,-2260,37,-49,-4
9021.614,307,-208,16384,-2260,37,-49,-4
9023.088,307,-208,16384,-2260,37,-49,-4
9025.929,307,-208,16384,-2260,37,-49,-4
9029.06,307,-208,16384,-2260,37,-49,-4
9029.06,307,-208,16384,-2260,37,-49,-4
9029.06,308,-208,16384,-2260,37,-49,-4
9039.165,307,-204,16356,-2272,-135,-55,-15
9039.165,307,-204,16356,-2272,-135,-55,-15
9044.982,307,-204,16356,-2272,-135,-55,-15
9044.982,307,-204,16356,-2272,-135,-55,-15
9044.982,307,-204,16356,-2272,-135,-55,-15
9053.073,307,-204,16356,-2272,-135,-55,-15
9056.988000000001,307,-204,16356,-2272,-135,-55,-15
9056.988000000001,307,-168,16284,-2236,-25,-29,-15
9061.287999999999,306,-168,16284,-2236,-25,-29,-15
9061.287999999999,306,-168,16284,-2236,-25,-29,-15
9061.287999999999,307,-168,16284,-2236,-25,-29,-15
9069.455,307,-168,16284,-2236,-25,-29,-15
9074.259,307,-168,16284,-2236,-25,-29,-15
9074.259,307,-168,16284,-2236,-25,-29,-15
9077.885999999999,308,-180,16420,-2260,76,-25,-16
9077.885999999999,307,-180,16420,-2260,76,-25,-16
9085.94,307,-180,16420,-2260,76,-25,-16
9085.94,306,-180,16420,-2260,76,-25,-16
9085.94,307,-180,16420,-2260,76,-25,-16
9094.162,308,-180,16420,-2260,76,-25,-16
9094.162,307,-180,16420,-2260,76,-25,-16
9094.162,307,-256,16412,-2248,-119,-47,10
9102.561,306,-256,16412,-2248,-119,-47,10
9105.411,307,-256,16412,-2248,-119,-47,10
9107.435000000001,308,-256,16412,-2248,-119,-47,10
9110.809,307,-256,16412,-2248,-119,-47,10
9110.809,308,-256,16412,-2248,-119,-47,10
9110.809,307,-212,16320,-2228,-95,-41,-20
9121.34,307,-212,16320,-2228,-95,-41,-20
9121.34,307,-212,16320,-2228,-95,-41,-20
9121.34,307,-212,16320,-2228,-95,-41,-20
9127.435,307,-212,16320,-2228,-95,-41,-20
9127.435,307,-212,16320,-2228,-95,-41,-20
9127.435,308,-212,16320,-2228,-95,-41,-20
9135.679,308,-180,16376,-2236,68,-17,-10
9139.112000000001,307,-180,16376,-2236,68,-17,-10
9143.964,306,-180,16376,-2236,68,-17,-10
9145.979000000001,306,-180,16376,-2236,68,-17,-10
9145.979000000001,307,-180,16376,-2236,68,-17,-10
9152.457,307,-180,16376,-2236,68,-17,-10
9152.457,307,-180,16376,-2236,68,-17,-10
9157.315,307,-212,16368,-2320,-51,-43,-7
9160.859999999999,307,-212,16368,-2320,-51,-43,-7
9162.873,306,-212,16368,-2320,-51,-43,-7
9166.897,306,-212,16368,-2320,-51,-43,-7
9168.908,307,-212,16368,-2320,-51,-43,-7
9170.919,308,-212,16368,-2320,-51,-43,-7
9172.935000000001,307,-212,16368,-2320,-51,-43,-7
9176.955,307,-216,16352,-2224,-123,-33,-4
9176.955,307,-216,16352,-2224,-123,-33,-4
9176.955,307,-216,16352,-2224,-123,-33,-4
9185.126,307,-216,16352,-2224,-123,-33,-4
9185.126,307,-216,16352,-2224,-123,-33,-4
9191.449999999999,308,-216,16352,-2224,-123,-33,-4
9193.185,308,-216,16352,-2224,-123,-33,-4
9193.185,307,-236,16380,-2264,54,-40,5
9193.185,307,-236,16380,-2264,54,-40,5
9201.258,306,-236,16380,-2264,54,-40,5
9201.258,307,-236,16380,-2264,54,-40,5
9207.875,307,-236,16380,-2264,54,-40,5
9212.037,307,-236,16380,-2264,54,-40,5
9214.053,308,-236,16380,-2264,54,-40,5
9216.063999999998,307,-236,16380,-2264,54,-40,5
9219.832999999999,306,-228,16344,-2292,-25,-39,-8
9219.832999999999,306,-228,16344,-2292,-25,-39,-8
9224.61,306,-228,16344,-2292,-25,-39,-8
9228.141000000001,307,-228,16344,-2292,-25,-39,-8
9230.158,307,-228,16344,-2292,-25,-39,-8
9234.327000000001,307,-228,16344,-2292,-25,-39,-8
9234.327000000001,307,-228,16344,-2292,-25,-39,-8
9240.469,307,-212,16400,-2252,-97,-31,-7
9242.552,307,-212,16400,-2252,-97,-31,-7
9242.552,307,-212,16400,-2252,-97,-31,-7
9242.552,307,-212,16400,-2252,-97,-31,-7
9250.67,307,-212,16400,-2252,-97,-31,-7
9250.67,307,-212,16400,-2252,-97,-31,-7
9250.67,307,-212,16400,-2252,-97,-31,-7
9259.014000000001,307,-224,16372,-2220,-13,-25,-3
9259.014000000001,307,-224,16372,-2220,-13,-25,-3
9259.014000000001,307,-224,16372,-2220,-13,-25,-3
9267.175,307,-224,16372,-2220,-13,-25,-3
9267.175,307,-224,16372,-2220,-13,-25,-3
9273.803,308,-224,16372,-2220,-13,-25,-3
9275.642,308,-224,16372,-2220,-13,-25,-3
9275.642,307,-196,16380,-2252,0,-44,-13
9275.642,307,-196,16380,-2252,0,-44,-13
9284.055,307,-196,16380,-2252,0,-44,-13
9284.055,307,-196,16380,-2252,0,-44,-13
9290.271999999999,307,-196,16380,-2252,0,-44,-13
9293.231,307,-196,16380,-2252,0,-44,-13
9293.231,307,-196,16380,-2252,0,-44,-13
9293.231,307,-232,16360,-2208,-65,-36,6
9300.84,307,-232,16360,-2208,-65,-36,6
9304.126,306,-232,16360,-2208,-65,-36,6
9306.984999999999,307,-232,16360,-2208,-65,-36,6
9310.363000000001,307,-232,16360,-2208,-65,-36,6
9310.363000000001,308,-232,16360,-2208,-65,-36,6
9310.363000000001,307,-232,16360,-2208,-65,-36,6
9317.512,307,-232,16360,-2208,-65,-36,6
9317.512,307,-176,16344,-2204,-56,-52,7
9322.367,306,-176,16344,-2204,-56,-52,7
9325.855000000001,306,-176,16344,-2204,-56,-52,7
9325.855000000001,307,-176,16344,-2204,-56,-52,7
9325.855000000001,308,-176,16344,-2204,-56,-52,7
9334.094000000001,307,-176,16344,-2204,-56,-52,7
9334.094000000001,307,-176,16344,-2204,-56,-52,7
9340.639,307,-204,16356,-2200,-15,-35,-1
9343.041,306,-204,16356,-2200,-15,-35,-1
9344.86,306,-204,16356,-2200,-15,-35,-1
9347.349,307,-204,16356,-2200,-15,-35,-1
9350.889000000001,307,-204,16356,-2200,-15,-35,-1
9354.926000000001,308,-204,16356,-2200,-15,-35,-1
9357.237,308,-204,16356,-2200,-15,-35,-1
9359.816,307,-260,16292,-2244,-34,-18,-11
9359.816,306,-260,16292,-2244,-34,-18,-11
9359.816,307,-260,16292,-2244,-34,-18,-11
9367.893,307,-260,16292,-2244,-34,-18,-11
9367.893,308,-260,16292,-2244,-34,-18,-11
9374.169,307,-260,16292,-2244,-34,-18,-11
9375.932999999999,307,-260,16292,-2244,-34,-18,-11
9375.932999999999,306,-196,16352,-2248,-21,-36,-6
9383.62,307,-196,16352,-2248,-21,-36,-6
9385.634,307,-196,16352,-2248,-21,-36,-6
