Time (ms),EMG,AccX,AccY,AccZ,GyroX,GyroY,GyroZ
1545.089,0,0,0,0,0,0,0
1560.916,307,0,0,0,0,0,0
1560.916,307,0,0,0,0,0,0
1560.916,307,0,0,0,0,0,0
1560.916,307,0,0,0,0,0,0
1560.916,307,0,0,0,0,0,0
1560.916,307,0,0,0,0,0,0
1560.916,308,0,0,0,0,0,0
1572.7230000000002,308,0,0,0,0,0,0
1572.7230000000002,307,0,0,0,0,0,0
1572.7230000000002,308,0,0,0,0,0,0
1572.7230000000002,308,0,0,0,0,0,0
1577.187,307,0,0,0,0,0,0
1578.0259999999998,307,0,0,0,0,0,0
1578.0259999999998,308,0,0,0,0,0,0
1578.0259999999998,307,0,0,0,0,0,0
1582.441,308,0,0,0,0,0,0
1582.441,307,0,0,0,0,0,0
1587.926,308,12,16296,-2396,-91,-37,-14
1587.926,308,12,16296,-2396,-91,-37,-14
1591.045,307,12,16296,-2396,-91,-37,-14
1594.681,307,12,16296,-2396,-91,-37,-14
1597.721,307,12,16296,-2396,-91,-37,-14
1598.557,308,12,16296,-2396,-91,-37,-14
1604.9940000000001,307,12,16296,-2396,-91,-37,-14
1605.5330000000001,307,12,16296,-2396,-91,-37,-14
1605.5330000000001,308,64,16324,-2400,-22,-56,9
1611.291,308,64,16324,-2400,-22,-56,9
1611.291,308,64,16324,-2400,-22,-56,9
1614.164,307,64,16324,-2400,-22,-56,9
1621.0359999999998,307,64,16324,-2400,-22,-56,9
1621.6280000000002,307,64,16324,-2400,-22,-56,9
1621.6280000000002,307,64,16324,-2400,-22,-56,9
1621.6280000000002,307,0,16412,-2412,-26,-17,6
1628.026,307,0,16412,-2412,-26,-17,6
1628.026,308,0,16412,-2412,-26,-17,6
1628.026,307,0,16412,-2412,-26,-17,6
1638.247,308,0,16412,-2412,-26,-17,6
1638.568,308,0,16412,-2412,-26,-17,6
1638.568,308,0,16412,-2412,-26,-17,6
1643.703,307,0,16412,-2412,-26,-17,6
1643.703,308,-28,16300,-2376,-49,-18,-12
1647.029,308,-28,16300,-2376,-49,-18,-12
1652.1840000000002,308,-28,16300,-2376,-49,-18,-12
1654.8639999999998,307,-28,16300,-2376,-49,-18,-12
1654.8639999999998,307,-28,16300,-2376,-49,-18,-12
1660.6490000000001,308,-28,16300,-2376,-49,-18,-12
1663.5549999999998,308,-28,16300,-2376,-49,-18,-12
1663.5549999999998,309,20,16348,-2364,-17,-49,-15
1670.914,308,20,16348,-2364,-17,-49,-15
1671.909,308,20,16348,-2364,-17,-49,-15
1671.909,307,20,16348,-2364,-17,-49,-15
1677.498,308,20,16348,-2364,-17,-49,-15
1677.498,308,20,16348,-2364,-17,-49,-15
1677.498,308,20,16348,-2364,-17,-49,-15
1685.564,308,20,16348,-2364,-17,-49,-15
1688.809,307,-4,16280,-2396,-99,-49,-5
1692.056,308,-4,16280,-2396,-99,-49,-5
1693.916,308,-4,16280,-2396,-99,-49,-5
1693.916,308,-4,16280,-2396,-99,-49,-5
1699.789,308,-4,16280,-2396,-99,-49,-5
1702.337,307,-4,16280,-2396,-99,-49,-5
1706.4470000000001,307,-4,16280,-2396,-99,-49,-5
1706.4470000000001,307,16,16264,-2372,13,-68,-6
1710.471,308,16,16264,-2372,13,-68,-6
1710.471,308,16,16264,-2372,13,-68,-6
1715.658,307,16,16264,-2372,13,-68,-6
1718.981,308,16,16264,-2372,13,-68,-6
1720.991,307,16,16264,-2372,13,-68,-6
1721.929,308,16,16264,-2372,13,-68,-6
1727.24,307,16,16264,-2372,13,-68,-6
1728.322,308,-12,16388,-2420,-45,-33,-17
1731.462,307,-12,16388,-2420,-45,-33,-17
1735.48,307,-12,16388,-2420,-45,-33,-17
1735.48,308,-12,16388,-2420,-45,-33,-17
1738.754,308,-12,16388,-2420,-45,-33,-17
1743.654,308,-12,16388,-2420,-45,-33,-17
1743.654,307,-12,16388,-2420,-45,-33,-17
1746.9920000000002,307,4,16348,-2328,-48,-12,-10
1752.453,308,4,16348,-2328,-48,-12,-10
1753.369,308,4,16348,-2328,-48,-12,-10
1756.2150000000001,308,4,16348,-2328,-48,-12,-10
1756.2150000000001,308,4,16348,-2328,-48,-12,-10
1761.3790000000001,308,4,16348,-2328,-48,-12,-10
1762.2199999999998,308,4,16348,-2328,-48,-12,-10
1762.2199999999998,308,48,16380,-2416,-24,-31,-21
1770.008,308,48,16380,-2416,-24,-31,-21
1772.7250000000001,308,48,16380,-2416,-24,-31,-21
1772.7250000000001,308,48,16380,-2416,-24,-31,-21
1777.759,308,48,16380,-2416,-24,-31,-21
1781.135,308,48,16380,-2416,-24,-31,-21
1784.759,307,48,16380,-2416,-24,-31,-21
1785.862,307,48,16380,-2416,-24,-31,-21
1789.419,308,16,16280,-2304,-82,-55,-10
1789.419,308,16,16280,-2304,-82,-55,-10
1794.153,308,16,16280,-2304,-82,-55,-10
1795.199,308,16,16280,-2304,-82,-55,-10
1795.199,309,16,16280,-2304,-82,-55,-10
1802.427,308,16,16280,-2304,-82,-55,-10
1805.7510000000002,308,16,16280,-2304,-82,-55,-10
1805.7510000000002,309,36,16368,-2404,56,-53,-13
1810.53,309,36,16368,-2404,56,-53,-13
1811.153,309,36,16368,-2404,56,-53,-13
1816.06,308,36,16368,-2404,56,-53,-13
1818.071,308,36,16368,-2404,56,-53,-13
1820.849,308,36,16368,-2404,56,-53,-13
1826.221,308,36,16368,-2404,56,-53,-13
1826.221,309,36,16368,-2404,56,-53,-13
1829.3999999999999,308,-28,16328,-2388,-104,-42,-10
1834.28,308,-28,16328,-2388,-104,-42,-10
1834.819,308,-28,16328,-2388,-104,-42,-10
1838.125,308,-28,16328,-2388,-104,-42,-10
1839.746,308,-28,16328,-2388,-104,-42,-10
1844.718,308,-28,16328,-2388,-104,-42,-10
1846.724,308,12,16328,-2324,-29,-45,-21
1848.635,308,12,16328,-2324,-29,-45,-21
1852.91,308,12,16328,-2324,-29,-45,-21
1855.3690000000001,308,12,16328,-2324,-29,-45,-21
1856.2849999999999,308,12,16328,-2324,-29,-45,-21
1856.2849999999999,307,12,16328,-2324,-29,-45,-21
1863.643,307,12,16328,-2324,-29,-45,-21
1864.6009999999999,308,12,16328,-2324,-29,-45,-21
1870.691,307,4,16388,-2300,-83,-44,-4
1871.789,307,4,16388,-2300,-83,-44,-4
1874.432,308,4,16388,-2300,-83,-44,-4
1874.432,308,4,16388,-2300,-83,-44,-4
1878.162,307,4,16388,-2300,-83,-44,-4
1880.3410000000001,308,4,16388,-2300,-83,-44,-4
1880.3410000000001,308,4,16388,-2300,-83,-44,-4
1886.193,308,-24,16364,-2348,-5,-39,-23
1889.662,308,-24,16364,-2348,-5,-39,-23
1889.662,308,-24,16364,-2348,-5,-39,-23
1889.662,308,-24,16364,-2348,-5,-39,-23
1897.413,308,-24,16364,-2348,-5,-39,-23
1897.413,307,-24,16364,-2348,-5,-39,-23
1897.413,307,-24,16364,-2348,-5,-39,-23
1907.7869999999998,309,-24,16364,-2348,-5,-39,-23
1908.793,308,0,16280,-2380,-45,-18,-9
1911.1560000000002,307,0,16280,-2380,-45,-18,-9
1913.916,308,0,16280,-2380,-45,-18,-9
1913.916,307,0,16280,-2380,-45,-18,-9
1920.858,307,0,16280,-2380,-45,-18,-9
1922.636,307,0,16280,-2380,-45,-18,-9
1924.643,307,0,16280,-2380,-45,-18,-9
1924.643,307,0,16316,-2360,-28,-31,6
1924.643,308,0,16316,-2360,-28,-31,6
1930.844,308,0,16316,-2360,-28,-31,6
1934.8300000000002,307,0,16316,-2360,-28,-31,6
1936.84,308,0,16316,-2360,-28,-31,6
1940.29,307,0,16316,-2360,-28,-31,6
1940.29,307,0,16316,-2360,-28,-31,6
1943.7089999999998,307,0,16316,-2360,-28,-31,6
1947.085,307,-8,16372,-2388,-38,-54,-10
1947.085,307,-8,16372,-2388,-38,-54,-10
1947.085,308,-8,16372,-2388,-38,-54,-10
1956.551,308,-8,16372,-2388,-38,-54,-10
1956.551,307,-8,16372,-2388,-38,-54,-10
1956.551,307,-8,16372,-2388,-38,-54,-10
1963.5849999999998,307,-8,16372,-2388,-38,-54,-10
1963.5849999999998,308,-8,16372,-2388,-38,-54,-10
1963.5849999999998,308,4,16320,-2356,-51,-31,-7
1972.966,308,4,16320,-2356,-51,-31,-7
1972.966,308,4,16320,-2356,-51,-31,-7
1972.966,307,4,16320,-2356,-51,-31,-7
1979.8100000000002,307,4,16320,-2356,-51,-31,-7
1979.8100000000002,307,4,16320,-2356,-51,-31,-7
1983.0710000000001,307,4,16320,-2356,-51,-31,-7
1983.0710000000001,308,0,16304,-2392,18,-44,16
1989.5439999999999,308,0,16304,-2392,18,-44,16
1992.167,308,0,16304,-2392,18,-44,16
1994.913,307,0,16304,-2392,18,-44,16
1995.779,308,0,16304,-2392,18,-44,16
1995.779,307,0,16304,-2392,18,-44,16
1999.674,307,0,16304,-2392,18,-44,16
2005.4029999999998,307,0,16304,-2392,18,-44,16
2006.782,307,-72,16320,-2408,-74,-54,-7
2006.782,307,-72,16320,-2408,-74,-54,-7
2012.4339999999997,308,-72,16320,-2408,-74,-54,-7
2012.4339999999997,307,-72,16320,-2408,-74,-54,-7
2015.5599999999997,307,-72,16320,-2408,-74,-54,-7
2022.5399999999997,307,-72,16320,-2408,-74,-54,-7
2023.24,307,-72,16320,-2408,-74,-54,-7
2024.4119999999998,307,-72,16320,-2408,-74,-54,-7
2030.577,308,-8,16356,-2380,-6,-46,-21
2030.577,308,-8,16356,-2380,-6,-46,-21
2030.577,308,-8,16356,-2380,-6,-46,-21
2037.6940000000002,308,-8,16356,-2380,-6,-46,-21
2040.066,307,-8,16356,-2380,-6,-46,-21
2040.066,307,-8,16356,-2380,-6,-46,-21
2045.8210000000001,307,-8,16356,-2380,-6,-46,-21
2045.8210000000001,307,-20,16296,-2392,-72,-23,-23
2048.314,308,-20,16296,-2392,-72,-23,-23
2053.937,307,-20,16296,-2392,-72,-23,-23
2056.0870000000004,307,-20,16296,-2392,-72,-23,-23
2056.0870000000004,308,-20,16296,-2392,-72,-23,-23
2061.84,308,-20,16296,-2392,-72,-23,-23
2061.84,308,-20,16296,-2392,-72,-23,-23
2061.84,307,8,16292,-2336,10,-41,-3
2070.022,307,8,16292,-2336,10,-41,-3
2072.692,308,8,16292,-2336,10,-41,-3
2072.692,307,8,16292,-2336,10,-41,-3
2078.1139999999996,308,8,16292,-2336,10,-41,-3
2078.1139999999996,307,8,16292,-2336,10,-41,-3
2078.1139999999996,307,8,16292,-2336,10,-41,-3
2085.075,307,8,16292,-2336,10,-41,-3
2086.493,308,36,16320,-2348,-34,-59,0
2090.002,307,36,16320,-2348,-34,-59,0
2090.002,307,36,16320,-2348,-34,-59,0
2094.33,308,36,16320,-2348,-34,-59,0
2094.33,307,36,16320,-2348,-34,-59,0
2094.33,308,36,16320,-2348,-34,-59,0
2101.992,307,36,16320,-2348,-34,-59,0
2105.714,307,36,16320,-2348,-34,-59,0
2107.4359999999997,307,-20,16352,-2352,-27,-43,-9
2110.549,308,-20,16352,-2352,-27,-43,-9
2110.549,308,-20,16352,-2352,-27,-43,-9
2110.549,307,-20,16352,-2352,-27,-43,-9
2118.5930000000003,307,-20,16352,-2352,-27,-43,-9
2122.109,307,-20,16352,-2352,-27,-43,-9
2125.218,307,-20,16352,-2352,-27,-43,-9
2129.232,307,28,16292,-2380,-55,-56,-23
2129.232,307,28,16292,-2380,-55,-56,-23
2133.2490000000003,308,28,16292,-2380,-55,-56,-23
2137.661,308,28,16292,-2380,-55,-56,-23
2137.661,307,28,16292,-2380,-55,-56,-23
2141.212,307,28,16292,-2380,-55,-56,-23
2145.2290000000003,307,28,16292,-2380,-55,-56,-23
2149.243,307,28,16292,-2380,-55,-56,-23
2158.628,307,28,16304,-2396,-13,-52,-3
2158.628,307,28,16304,-2396,-13,-52,-3
2158.628,308,28,16304,-2396,-13,-52,-3
2158.628,308,28,16304,-2396,-13,-52,-3
2158.628,307,28,16304,-2396,-13,-52,-3
2158.628,307,28,16304,-2396,-13,-52,-3
2166.0460000000003,307,28,16304,-2396,-13,-52,-3
2168.999,307,12,16272,-2376,-27,-25,-8
2171.004,308,12,16272,-2376,-27,-25,-8
2173.993,307,12,16272,-2376,-27,-25,-8
2175.751,307,12,16272,-2376,-27,-25,-8
2175.751,307,12,16272,-2376,-27,-25,-8
2175.751,308,12,16272,-2376,-27,-25,-8
2184.5370000000003,307,12,16272,-2376,-27,-25,-8
2184.5370000000003,307,12,16272,-2376,-27,-25,-8
2188.7349999999997,308,24,16320,-2392,-5,-34,1
2191.596,307,24,16320,-2392,-5,-34,1
2192.4199999999996,307,24,16320,-2392,-5,-34,1
2192.4199999999996,307,24,16320,-2392,-5,-34,1
2199.576,308,24,16320,-2392,-5,-34,1
2199.9230000000002,307,24,16320,-2392,-5,-34,1
2204.9500000000003,308,24,16320,-2392,-5,-34,1
2204.9500000000003,308,24,16320,-2392,-5,-34,1
2209.9739999999997,308,-32,16376,-2364,-57,-41,-14
2209.9739999999997,308,-32,16376,-2364,-57,-41,-14
2216.46,307,-32,16376,-2364,-57,-41,-14
2216.978,307,-32,16376,-2364,-57,-41,-14
2222.233,307,-32,16376,-2364,-57,-41,-14
2225.0200000000004,307,-32,16376,-2364,-57,-41,-14
2225.0200000000004,307,-32,16376,-2364,-57,-41,-14
2225.0200000000004,307,24,16304,-2388,6,-37,-8
2232.609,307,24,16304,-2388,6,-37,-8
2233.523,308,24,16304,-2388,6,-37,-8
2233.523,307,24,16304,-2388,6,-37,-8
2233.523,307,24,16304,-2388,6,-37,-8
2241.1330000000003,308,24,16304,-2388,6,-37,-8
2244.901,307,24,16304,-2388,6,-37,-8
2248.3089999999997,308,24,16304,-2388,6,-37,-8
2251.395,308,4,16296,-2376,-49,-19,-16
2251.395,307,4,16296,-2376,-49,-19,-16
2254.824,307,4,16296,-2376,-49,-19,-16
2257.625,307,4,16296,-2376,-49,-19,-16
2258.421,307,4,16296,-2376,-49,-19,-16
2258.421,307,4,16296,-2376,-49,-19,-16
2266.5350000000003,307,4,16296,-2376,-49,-19,-16
2266.5350000000003,307,-8,16296,-2364,31,-37,-6
2266.5350000000003,307,-8,16296,-2364,31,-37,-6
2273.516,308,-8,16296,-2364,31,-37,-6
2273.516,307,-8,16296,-2364,31,-37,-6
2279.842,308,-8,16296,-2364,31,-37,-6
2281.8559999999998,307,-8,16296,-2364,31,-37,-6
2281.8559999999998,308,-8,16296,-2364,31,-37,-6
2281.8559999999998,308,-8,16296,-2364,31,-37,-6
2287.853,308,32,16328,-2392,-76,-48,-7
2293.0570000000002,308,32,16328,-2392,-76,-48,-7
2294.871,307,32,16328,-2392,-76,-48,-7
2297.764,307,32,16328,-2392,-76,-48,-7
2300.989,307,32,16328,-2392,-76,-48,-7
2303.747,308,32,16328,-2392,-76,-48,-7
2305.826,307,32,16328,-2392,-76,-48,-7
2308.0319999999997,308,32,16328,-2392,-76,-48,-7
2308.0319999999997,308,64,16264,-2388,-25,-46,6
2314.265,308,64,16264,-2388,-25,-46,6
2315.983,307,64,16264,-2388,-25,-46,6
2321.857,307,64,16264,-2388,-25,-46,6
2321.857,307,64,16264,-2388,-25,-46,6
2321.857,307,64,16264,-2388,-25,-46,6
2327.917,307,64,16264,-2388,-25,-46,6
2329.931,307,40,16356,-2368,-17,-38,2
2329.931,308,40,16356,-2368,-17,-38,2
2335.8219999999997,307,40,16356,-2368,-17,-38,2
2338.0139999999997,309,40,16356,-2368,-17,-38,2
2340.0319999999997,308,40,16356,-2368,-17,-38,2
2340.0319999999997,307,40,16356,-2368,-17,-38,2
2340.0319999999997,308,40,16356,-2368,-17,-38,2
2346.381,308,40,16356,-2368,-17,-38,2
2351.261,308,-20,16268,-2380,-78,-34,-8
2353.981,308,-20,16268,-2380,-78,-34,-8
2355.994,307,-20,16268,-2380,-78,-34,-8
2355.994,308,-20,16268,-2380,-78,-34,-8
2362.282,308,-20,16268,-2380,-78,-34,-8
2362.282,307,-20,16268,-2380,-78,-34,-8
2362.282,307,-20,16268,-2380,-78,-34,-8
2362.282,308,20,16384,-2400,20,-39,8
2372.082,307,20,16384,-2400,20,-39,8
2373.244,308,20,16384,-2400,20,-39,8
2376.5589999999997,307,20,16384,-2400,20,-39,8
2378.893,307,20,16384,-2400,20,-39,8
2378.893,307,20,16384,-2400,20,-39,8
2383.878,308,20,16384,-2400,20,-39,8
2387.196,308,20,16384,-2400,20,-39,8
2389.6389999999997,308,52,16348,-2408,-101,-40,-7
2391.84,308,52,16348,-2408,-101,-40,-7
2395.212,308,52,16348,-2408,-101,-40,-7
2395.212,308,52,16348,-2408,-101,-40,-7
2395.212,307,52,16348,-2408,-101,-40,-7
2403.9120000000003,308,52,16348,-2408,-101,-40,-7
2405.609,307,52,16348,-2408,-101,-40,-7
2407.421,308,52,16348,-2408,-101,-40,-7
2411.399,308,0,16320,-2324,18,-27,-21
2411.399,307,0,16320,-2324,18,-27,-21
2414.247,308,0,16320,-2324,18,-27,-21
2420.049,308,0,16320,-2324,18,-27,-21
2421.453,307,0,16320,-2324,18,-27,-21
2422.698,308,0,16320,-2324,18,-27,-21
2427.913,307,0,16320,-2324,18,-27,-21
2427.913,309,-8,16284,-2396,-61,-62,-18
2432.737,308,-8,16284,-2396,-61,-62,-18
2436.455,308,-8,16284,-2396,-61,-62,-18
2438.0899999999997,308,-8,16284,-2396,-61,-62,-18
2440.636,307,-8,16284,-2396,-61,-62,-18
2444.246,308,-8,16284,-2396,-61,-62,-18
2444.246,308,-8,16284,-2396,-61,-62,-18
2448.911,308,-8,16284,-2396,-61,-62,-18
2452.817,308,-12,16336,-2352,-11,-50,-8
2455.797,308,-12,16336,-2352,-11,-50,-8
2455.797,308,-12,16336,-2352,-11,-50,-8
2460.7070000000003,308,-12,16336,-2352,-11,-50,-8
2461.8199999999997,308,-12,16336,-2352,-11,-50,-8
2464.5,308,-12,16336,-2352,-11,-50,-8
2468.996,307,-12,16336,-2352,-11,-50,-8
2468.996,308,24,16296,-2436,-85,-43,-14
2473.019,308,24,16296,-2436,-85,-43,-14
2477.044,308,24,16296,-2436,-85,-43,-14
2479.003,307,24,16296,-2436,-85,-43,-14
2481.7490000000003,308,24,16296,-2436,-85,-43,-14
2484.7999999999997,308,24,16296,-2436,-85,-43,-14
2487.872,307,24,16296,-2436,-85,-43,-14
2489.8349999999996,308,0,16428,-2364,13,-30,-24
2493.009,307,0,16428,-2364,13,-30,-24
2493.009,307,0,16428,-2364,13,-30,-24
2497.157,307,0,16428,-2364,13,-30,-24
2497.157,307,0,16428,-2364,13,-30,-24
2505.656,308,0,16428,-2364,13,-30,-24
2506.252,308,0,16428,-2364,13,-30,-24
2507.799,307,0,16428,-2364,13,-30,-24
2509.962,307,8,16276,-2360,-92,-42,-10
2513.677,308,8,16276,-2360,-92,-42,-10
2514.9900000000002,308,8,16276,-2360,-92,-42,-10
2518.283,307,8,16276,-2360,-92,-42,-10
2521.952,307,8,16276,-2360,-92,-42,-10
2523.962,307,8,16276,-2360,-92,-42,-10
2524.971,308,8,16276,-2360,-92,-42,-10
2529.4590000000003,307,8,16276,-2360,-92,-42,-10
2531.4649999999997,308,40,16340,-2396,39,-21,3
2533.339,307,40,16340,-2396,39,-21,3
2537.6189999999997,308,40,16340,-2396,39,-21,3
2539.628,308,40,16340,-2396,39,-21,3
2541.38,307,40,16340,-2396,39,-21,3
2541.38,308,40,16340,-2396,39,-21,3
2546.2180000000003,307,40,16340,-2396,39,-21,3
2549.835,307,8,16352,-2392,-144,-49,-24
2551.094,307,8,16352,-2392,-144,-49,-24
2554.093,308,8,16352,-2392,-144,-49,-24
2558.282,308,8,16352,-2392,-144,-49,-24
2559.955,308,8,16352,-2392,-144,-49,-24
2561.645,307,8,16352,-2392,-144,-49,-24
2565.8509999999997,308,8,16352,-2392,-144,-49,-24
2567.86,308,8,16352,-2392,-144,-49,-24
2570.7909999999997,308,-8,16388,-2360,65,-28,-18
2574.339,307,-8,16388,-2360,65,-28,-18
2574.339,308,-8,16388,-2360,65,-28,-18
2574.339,308,-8,16388,-2360,65,-28,-18
2574.339,307,-8,16388,-2360,65,-28,-18
2582.756,308,-8,16388,-2360,65,-28,-18
2587.7729999999997,307,-8,16388,-2360,65,-28,-18
2588.7760000000003,308,-12,16376,-2424,-166,-42,-23
2590.811,308,-12,16376,-2424,-166,-42,-23
2592.8230000000003,308,-12,16376,-2424,-166,-42,-23
2599.0679999999998,307,-12,16376,-2424,-166,-42,-23
2599.0679999999998,308,-12,16376,-2424,-166,-42,-23
2604.027,308,-12,16376,-2424,-166,-42,-23
2607.0679999999998,308,-12,16376,-2424,-166,-42,-23
2607.0679999999998,308,24,16288,-2324,-1,-51,-16
2607.0679999999998,309,24,16288,-2324,-1,-51,-16
2615.4359999999997,308,24,16288,-2324,-1,-51,-16
2615.4359999999997,307,24,16288,-2324,-1,-51,-16
2620.616,308,24,16288,-2324,-1,-51,-16
2623.786,308,24,16288,-2324,-1,-51,-16
2623.786,308,24,16288,-2324,-1,-51,-16
2623.786,308,24,16288,-2324,-1,-51,-16
2632.301,308,8,16356,-2388,-76,-32,-31
2633.302,308,8,16356,-2388,-76,-32,-31
2633.302,308,8,16356,-2388,-76,-32,-31
2640.587,308,8,16356,-2388,-76,-32,-31
2640.587,308,8,16356,-2388,-76,-32,-31
2640.587,308,8,16356,-2388,-76,-32,-31
2648.719,308,8,16356,-2388,-76,-32,-31
2648.719,309,8,16328,-2340,-42,-46,-21
2652.379,308,8,16328,-2340,-42,-46,-21
2656.803,308,8,16328,-2340,-42,-46,-21
2658.8669999999997,308,8,16328,-2340,-42,-46,-21
2661.142,308,8,16328,-2340,-42,-46,-21
2662.607,308,8,16328,-2340,-42,-46,-21
2665.1169999999997,308,8,16328,-2340,-42,-46,-21
2670.068,308,8,16328,-2340,-42,-46,-21
2670.9610000000002,308,4,16372,-2436,-25,-45,-24
2674.309,308,4,16372,-2436,-25,-45,-24
2676.326,308,4,16372,-2436,-25,-45,-24
2678.341,308,4,16372,-2436,-25,-45,-24
2681.015,308,4,16372,-2436,-25,-45,-24
2683.0319999999997,308,4,16372,-2436,-25,-45,-24
2687.41,308,4,16372,-2436,-25,-45,-24
2689.142,308,-40,16312,-2364,-91,-39,-17
2689.142,308,-40,16312,-2364,-91,-39,-17
2689.142,308,-40,16312,-2364,-91,-39,-17
2697.454,308,-40,16312,-2364,-91,-39,-17
2701.4700000000003,308,-40,16312,-2364,-91,-39,-17
2703.478,308,-40,16312,-2364,-91,-39,-17
2705.488,309,-40,16312,-2364,-91,-39,-17
2705.488,308,-24,16340,-2408,-7,-45,-18
2713.766,309,-24,16340,-2408,-7,-45,-18
2713.766,308,-24,16340,-2408,-7,-45,-18
2719.816,308,-24,16340,-2408,-7,-45,-18
2722.521,308,-24,16340,-2408,-7,-45,-18
2722.521,308,-24,16340,-2408,-7,-45,-18
2722.521,308,-24,16340,-2408,-7,-45,-18
2730.884,308,-24,16340,-2408,-7,-45,-18
2730.884,309,12,16240,-2392,-71,-50,-32
2730.884,309,12,16240,-2392,-71,-50,-32
2739.297,308,12,16240,-2392,-71,-50,-32
2739.297,308,12,16240,-2392,-71,-50,-32
2739.297,308,12,16240,-2392,-71,-50,-32
2747.396,308,12,16240,-2392,-71,-50,-32
2748.208,309,12,16240,-2392,-71,-50,-32
2748.208,309,36,16316,-2388,-31,-27,-12
2755.833,308,36,16316,-2388,-31,-27,-12
2756.405,309,36,16316,-2388,-31,-27,-12
2759.819,309,36,16316,-2388,-31,-27,-12
2763.8410000000003,308,36,16316,-2388,-31,-27,-12
2763.8410000000003,308,36,16316,-2388,-31,-27,-12
2767.8650000000002,309,36,16316,-2388,-31,-27,-12
2771.368,309,32,16328,-2392,-65,-39,-38
2773.58,308,32,16328,-2392,-65,-39,-38
2775.592,308,32,16328,-2392,-65,-39,-38
2779.532,308,32,16328,-2392,-65,-39,-38
2779.532,308,32,16328,-2392,-65,-39,-38
2779.532,308,32,16328,-2392,-65,-39,-38
2788.7940000000003,308,32,16328,-2392,-65,-39,-38
2790.069,308,-4,16316,-2460,-104,-27,-26
2790.069,309,-4,16316,-2460,-104,-27,-26
2795.505,309,-4,16316,-2460,-104,-27,-26
2795.505,308,-4,16316,-2460,-104,-27,-26
2795.505,308,-4,16316,-2460,-104,-27,-26
2803.107,308,-4,16316,-2460,-104,-27,-26
2806.34,308,-4,16316,-2460,-104,-27,-26
2806.34,308,44,16248,-2216,-28,-33,-3
2812.375,308,44,16248,-2216,-28,-33,-3
2812.375,308,44,16248,-2216,-28,-33,-3
2816.1960000000004,308,44,16248,-2216,-28,-33,-3
2821.6820000000002,309,44,16248,-2216,-28,-33,-3
2822.705,308,44,16248,-2216,-28,-33,-3
2825.594,308,44,16248,-2216,-28,-33,-3
2829.708,308,44,16248,-2216,-28,-33,-3
2830.2459999999996,308,12,16492,-2496,63,-26,-6
2830.2459999999996,309,12,16492,-2496,63,-26,-6
2837.1620000000003,308,12,16492,-2496,63,-26,-6
2839.368,308,12,16492,-2496,63,-26,-6
2839.368,307,12,16492,-2496,63,-26,-6
2843.5899999999997,308,12,16492,-2496,63,-26,-6
2843.5899999999997,307,12,16492,-2496,63,-26,-6
2843.5899999999997,307,12,16492,-2496,63,-26,-6
2852.783,309,-24,16372,-2252,-201,-47,-8
2855.4469999999997,308,-24,16372,-2252,-201,-47,-8
2855.4469999999997,307,-24,16372,-2252,-201,-47,-8
2862.357,308,-24,16372,-2252,-201,-47,-8
2862.357,308,-24,16372,-2252,-201,-47,-8
2862.357,308,-24,16372,-2252,-201,-47,-8
2871.344,307,-24,16372,-2252,-201,-47,-8
2872.623,308,-12,16256,-2404,93,-27,-6
2872.623,308,-12,16256,-2404,93,-27,-6
2876.312,308,-12,16256,-2404,93,-27,-6
2876.312,307,-12,16256,-2404,93,-27,-6
2882.149,307,-12,16256,-2404,93,-27,-6
2886.922,306,-12,16256,-2404,93,-27,-6
2886.922,307,-12,16256,-2404,93,-27,-6
2886.922,308,32,16260,-2244,-147,-39,-16
2895.07,307,32,16260,-2244,-147,-39,-16
2895.07,308,32,16260,-2244,-147,-39,-16
2895.07,306,32,16260,-2244,-147,-39,-16
2900.534,307,32,16260,-2244,-147,-39,-16
2906.029,307,32,16260,-2244,-147,-39,-16
2908.0499999999997,307,32,16260,-2244,-147,-39,-16
2908.0499999999997,307,-8,16420,-2376,187,-40,-13
2908.0499999999997,307,-8,16420,-2376,187,-40,-13
2916.138,306,-8,16420,-2376,187,-40,-13
2916.138,306,-8,16420,-2376,187,-40,-13
2916.138,307,-8,16420,-2376,187,-40,-13
2924.545,306,-8,16420,-2376,187,-40,-13
2924.545,306,-8,16420,-2376,187,-40,-13
2924.545,307,-8,16420,-2376,187,-40,-13
2932.681,307,32,16372,-2364,-193,-50,-11
2932.681,306,32,16372,-2364,-193,-50,-11
2939.217,306,32,16372,-2364,-193,-50,-11
2940.953,306,32,16372,-2364,-193,-50,-11
2940.953,306,32,16372,-2364,-193,-50,-11
2940.953,306,32,16372,-2364,-193,-50,-11
2949.017,306,32,16372,-2364,-193,-50,-11
2950.224,306,-4,16256,-2380,36,-40,-8
2950.224,306,-4,16256,-2380,36,-40,-8
2957.459,305,-4,16256,-2380,36,-40,-8
2957.459,306,-4,16256,-2380,36,-40,-8
2957.459,305,-4,16256,-2380,36,-40,-8
2957.459,306,-4,16256,-2380,36,-40,-8
2965.71,306,-4,16256,-2380,36,-40,-8
2965.71,305,24,16440,-2384,-77,-31,6
2965.71,306,24,16440,-2384,-77,-31,6
2973.8630000000003,306,24,16440,-2384,-77,-31,6
2973.8630000000003,305,24,16440,-2384,-77,-31,6
2973.8630000000003,305,24,16440,-2384,-77,-31,6
2982.136,305,24,16440,-2384,-77,-31,6
2982.136,305,24,16440,-2384,-77,-31,6
2987.826,306,24,16440,-2384,-77,-31,6
2990.1710000000003,306,20,16412,-2356,72,-58,-9
2990.1710000000003,305,20,16412,-2356,72,-58,-9
2990.1710000000003,305,20,16412,-2356,72,-58,-9
2998.681,305,20,16412,-2356,72,-58,-9
2998.681,305,20,16412,-2356,72,-58,-9
3004.245,304,20,16412,-2356,72,-58,-9
3006.881,304,20,16412,-2356,72,-58,-9
3009.908,305,20,16412,-2356,72,-58,-9
3009.908,305,24,16260,-2368,-131,-52,-11
3009.908,305,24,16260,-2368,-131,-52,-11
3018.078,305,24,16260,-2368,-131,-52,-11
3019.918,305,24,16260,-2368,-131,-52,-11
3022.917,305,24,16260,-2368,-131,-52,-11
3022.917,304,24,16260,-2368,-131,-52,-11
3022.917,305,24,16260,-2368,-131,-52,-11
3031.337,305,0,16244,-2284,68,-47,4
3031.337,306,0,16244,-2284,68,-47,4
3037.176,306,0,16244,-2284,68,-47,4
3037.176,305,0,16244,-2284,68,-47,4
3041.5260000000003,305,0,16244,-2284,68,-47,4
3043.536,305,0,16244,-2284,68,-47,4
3046.902,305,0,16244,-2284,68,-47,4
3047.909,305,0,16244,-2284,68,-47,4
3050.856,305,4,16360,-2360,-48,-33,9
3054.658,305,4,16360,-2360,-48,-33,9
3054.658,305,4,16360,-2360,-48,-33,9
3058.408,304,4,16360,-2360,-48,-33,9
3058.408,305,4,16360,-2360,-48,-33,9
3062.44,305,4,16360,-2360,-48,-33,9
3066.449,305,4,16360,-2360,-48,-33,9
3066.449,304,4,16360,-2360,-48,-33,9
3069.644,305,0,16360,-2364,-28,-52,-3
3069.644,305,0,16360,-2364,-28,-52,-3
3075.4570000000003,305,0,16360,-2364,-28,-52,-3
3075.4570000000003,304,0,16360,-2364,-28,-52,-3
3080.801,304,0,16360,-2364,-28,-52,-3
3083.637,304,0,16360,-2364,-28,-52,-3
3087.3520000000003,304,0,16360,-2364,-28,-52,-3
3089.1099999999997,304,0,16360,-2364,-28,-52,-3
3089.1099999999997,305,20,16312,-2384,-44,-34,3
3089.1099999999997,304,20,16312,-2384,-44,-34,3
3089.1099999999997,304,20,16312,-2384,-44,-34,3
3097.326,305,20,16312,-2384,-44,-34,3
3101.039,305,20,16312,-2384,-44,-34,3
3102.84,305,20,16312,-2384,-44,-34,3
3105.859,305,20,16312,-2384,-44,-34,3
3105.859,305,20,16312,-2384,-44,-34,3
3105.859,306,-28,16264,-2372,-18,-20,-23
3113.9190000000003,306,-28,16264,-2372,-18,-20,-23
3113.9190000000003,306,-28,16264,-2372,-18,-20,-23
3120.4230000000002,305,-28,16264,-2372,-18,-20,-23
3123.224,305,-28,16264,-2372,-18,-20,-23
3123.224,305,-28,16264,-2372,-18,-20,-23
3123.224,305,-28,16264,-2372,-18,-20,-23
3130.606,306,28,16332,-2448,-12,-45,-15
3130.606,305,28,16332,-2448,-12,-45,-15
3138.309,305,28,16332,-2448,-12,-45,-15
3138.309,306,28,16332,-2448,-12,-45,-15
3138.309,306,28,16332,-2448,-12,-45,-15
3138.309,305,28,16332,-2448,-12,-45,-15
3146.591,305,28,16332,-2448,-12,-45,-15
3152.942,306,-32,16292,-2396,-61,-30,-33
3154.717,306,-32,16292,-2396,-61,-30,-33
3154.717,306,-32,16292,-2396,-61,-30,-33
3154.717,305,-32,16292,-2396,-61,-30,-33
3162.779,306,-32,16292,-2396,-61,-30,-33
3162.779,305,-32,16292,-2396,-61,-30,-33
3169.922,306,-32,16292,-2396,-61,-30,-33
3170.9339999999997,306,-16,16280,-2380,-51,-40,-7
3172.8,306,-16,16280,-2380,-51,-40,-7
3177.6490000000003,306,-16,16280,-2380,-51,-40,-7
3179.6380000000004,306,-16,16280,-2380,-51,-40,-7
3179.6380000000004,306,-16,16280,-2380,-51,-40,-7
3179.6380000000004,306,-16,16280,-2380,-51,-40,-7
3187.16,306,-16,16280,-2380,-51,-40,-7
3187.16,306,-16,16280,-2380,-51,-40,-7
3187.16,306,4,16292,-2392,-10,-31,-13
3195.5339999999997,306,4,16292,-2392,-10,-31,-13
3195.5339999999997,306,4,16292,-2392,-10,-31,-13
3195.5339999999997,306,4,16292,-2392,-10,-31,-13
3204.917,306,4,16292,-2392,-10,-31,-13
3204.917,306,4,16292,-2392,-10,-31,-13
3208.86,306,4,16292,-2392,-10,-31,-13
3211.716,307,-36,16324,-2344,-52,-35,1
3211.716,306,-36,16324,-2344,-52,-35,1
3211.716,306,-36,16324,-2344,-52,-35,1
3220.161,307,-36,16324,-2344,-52,-35,1
3223.3830000000003,306,-36,16324,-2344,-52,-35,1
3223.3830000000003,307,-36,16324,-2344,-52,-35,1
3227.8349999999996,307,-36,16324,-2344,-52,-35,1
3229.848,306,-36,16324,-2344,-52,-35,1
3233.879,307,-8,16332,-2340,-21,-41,-13
3238.264,307,-8,16332,-2340,-21,-41,-13
3238.264,307,-8,16332,-2340,-21,-41,-13
3241.466,307,-8,16332,-2340,-21,-41,-13
3244.371,307,-8,16332,-2340,-21,-41,-13
3248.167,307,-8,16332,-2340,-21,-41,-13
3248.167,307,-8,16332,-2340,-21,-41,-13
3253.825,307,12,16308,-2416,-38,-46,-7
3255.84,307,12,16308,-2416,-38,-46,-7
3258.395,308,12,16308,-2416,-38,-46,-7
3260.4069999999997,307,12,16308,-2416,-38,-46,-7
3261.404,307,12,16308,-2416,-38,-46,-7
3264.5719999999997,307,12,16308,-2416,-38,-46,-7
3268.557,307,12,16308,-2416,-38,-46,-7
3271.04,308,-24,16320,-2400,-39,-25,-1
3273.142,308,-24,16320,-2400,-39,-25,-1
3276.636,308,-24,16320,-2400,-39,-25,-1
3276.636,308,-24,16320,-2400,-39,-25,-1
3282.426,308,-24,16320,-2400,-39,-25,-1
3284.8869999999997,308,-24,16320,-2400,-39,-25,-1
3286.711,308,-24,16320,-2400,-39,-25,-1
3286.711,307,-24,16320,-2400,-39,-25,-1
3293.324,308,-24,16280,-2384,-30,-23,6
3294.944,308,-24,16280,-2384,-30,-23,6
3294.944,308,-24,16280,-2384,-30,-23,6
3301.557,308,-24,16280,-2384,-30,-23,6
3304.381,308,-24,16280,-2384,-30,-23,6
3305.4610000000002,307,-24,16280,-2384,-30,-23,6
3307.477,308,-24,16280,-2384,-30,-23,6
3309.628,308,-24,16304,-2340,-27,-43,-7
3309.628,308,-24,16304,-2340,-27,-43,-7
3309.628,308,-24,16304,-2340,-27,-43,-7
3320.139,308,-24,16304,-2340,-27,-43,-7
3323.561,308,-24,16304,-2340,-27,-43,-7
3323.561,308,-24,16304,-2340,-27,-43,-7
3327.74,308,-24,16304,-2340,-27,-43,-7
3330.736,308,-12,16340,-2416,-41,-31,10
3334.037,308,-12,16340,-2416,-41,-31,10
3336.679,309,-12,16340,-2416,-41,-31,10
3339.397,308,-12,16340,-2416,-41,-31,10
3339.397,308,-12,16340,-2416,-41,-31,10
3342.299,308,-12,16340,-2416,-41,-31,10
3348.768,308,-12,16340,-2416,-41,-31,10
3350.505,308,-12,16340,-2416,-41,-31,10
3353.676,308,-76,16292,-2412,-43,-20,-15
3353.676,308,-76,16292,-2412,-43,-20,-15
3358.617,308,-76,16292,-2412,-43,-20,-15
3358.617,308,-76,16292,-2412,-43,-20,-15
3358.617,308,-76,16292,-2412,-43,-20,-15
3366.976,308,-76,16292,-2412,-43,-20,-15
3369.809,308,-76,16292,-2412,-43,-20,-15
3374.154,309,8,16344,-2408,-29,-35,3
3375.1600000000003,308,8,16344,-2408,-29,-35,3
3377.173,309,8,16344,-2408,-29,-35,3
3379.18,309,8,16344,-2408,-29,-35,3
3383.219,308,8,16344,-2408,-29,-35,3
3385.9590000000003,309,8,16344,-2408,-29,-35,3
3388.6240000000003,309,8,16344,-2408,-29,-35,3
3390.568,308,8,16344,-2408,-29,-35,3
3391.627,309,-4,16352,-2376,-12,-28,-18
3391.627,309,-4,16352,-2376,-12,-28,-18
3391.627,308,-4,16352,-2376,-12,-28,-18
3400.149,308,-4,16352,-2376,-12,-28,-18
3404.055,309,-4,16352,-2376,-12,-28,-18
3404.055,309,-4,16352,-2376,-12,-28,-18
3411.01,308,-4,16352,-2376,-12,-28,-18
3413.026,308,16,16312,-2340,-40,-35,-4
3415.04,309,16,16312,-2340,-40,-35,-4
3416.56,308,16,16312,-2340,-40,-35,-4
3420.268,308,16,16312,-2340,-40,-35,-4
3423.736,308,16,16312,-2340,-40,-35,-4
3424.757,310,16,16312,-2340,-40,-35,-4
3424.757,309,16,16312,-2340,-40,-35,-4
3424.757,309,16,16312,-2340,-40,-35,-4
3432.957,309,-20,16276,-2372,-49,-39,-15
3432.957,308,-20,16276,-2372,-49,-39,-15
3440.0840000000003,308,-20,16276,-2372,-49,-39,-15
3441.0989999999997,309,-20,16276,-2372,-49,-39,-15
3441.0989999999997,309,-20,16276,-2372,-49,-39,-15
3441.0989999999997,308,-20,16276,-2372,-49,-39,-15
3449.473,308,-20,16276,-2372,-49,-39,-15
3453.633,309,-36,16356,-2352,-27,-34,-10
3455.647,309,-36,16356,-2352,-27,-34,-10
3457.661,309,-36,16356,-2352,-27,-34,-10
3457.661,308,-36,16356,-2352,-27,-34,-10
3457.661,309,-36,16356,-2352,-27,-34,-10
3465.788,308,-36,16356,-2352,-27,-34,-10
3470.98,308,-36,16356,-2352,-27,-34,-10
3474.125,308,-24,16300,-2332,-53,-25,-12
3476.676,308,-24,16300,-2332,-53,-25,-12
3480.705,308,-24,16300,-2332,-53,-25,-12
3482.46,308,-24,16300,-2332,-53,-25,-12
3482.46,308,-24,16300,-2332,-53,-25,-12
3489.009,308,-24,16300,-2332,-53,-25,-12
3490.754,308,-24,16300,-2332,-53,-25,-12
3490.754,309,16,16328,-2396,-34,-47,-10
3490.754,308,16,16328,-2396,-34,-47,-10
3498.846,309,16,16328,-2396,-34,-47,-10
3498.846,308,16,16328,-2396,-34,-47,-10
3503.641,307,16,16328,-2396,-34,-47,-10
3506.917,309,16,16328,-2396,-34,-47,-10
3506.917,309,16,16328,-2396,-34,-47,-10
3506.917,308,0,16348,-2388,-20,-40,-2
3514.9849999999997,308,0,16348,-2388,-20,-40,-2
3514.9849999999997,309,0,16348,-2388,-20,-40,-2
3520.19,308,0,16348,-2388,-20,-40,-2
3523.661,308,0,16348,-2388,-20,-40,-2
3523.661,308,0,16348,-2388,-20,-40,-2
3523.661,308,0,16348,-2388,-20,-40,-2
3531.621,308,0,16348,-2388,-20,-40,-2
3534.0,309,20,16328,-2360,-11,-27,-3
3534.0,308,20,16328,-2360,-11,-27,-3
3538.851,308,20,16328,-2360,-11,-27,-3
3540.009,308,20,16328,-2360,-11,-27,-3
3540.009,309,20,16328,-2360,-11,-27,-3
3540.009,308,20,16328,-2360,-11,-27,-3
3548.603,309,20,16328,-2360,-11,-27,-3
3548.603,308,12,16312,-2388,-28,-34,-14
3554.8860000000004,309,12,16312,-2388,-28,-34,-14
3556.526,309,12,16312,-2388,-28,-34,-14
3556.526,309,12,16312,-2388,-28,-34,-14
3556.526,309,12,16312,-2388,-28,-34,-14
3565.6949999999997,308,12,16312,-2388,-28,-34,-14
3565.6949999999997,308,12,16312,-2388,-28,-34,-14
3570.6639999999998,308,12,16312,-2388,-28,-34,-14
3574.234,309,-24,16360,-2344,-37,-34,-17
3576.214,308,-24,16360,-2344,-37,-34,-17
3579.132,308,-24,16360,-2344,-37,-34,-17
3581.5769999999998,308,-24,16360,-2344,-37,-34,-17
3587.446,308,-24,16360,-2344,-37,-34,-17
3589.379,308,-24,16360,-2344,-37,-34,-17
3589.379,309,-24,16360,-2344,-37,-34,-17
3589.379,309,-4,16324,-2384,-56,-37,-15
3589.379,309,-4,16324,-2384,-56,-37,-15
3598.683,308,-4,16324,-2384,-56,-37,-15
3600.696,309,-4,16324,-2384,-56,-37,-15
3605.696,309,-4,16324,-2384,-56,-37,-15
3605.696,309,-4,16324,-2384,-56,-37,-15
3605.696,309,-4,16324,-2384,-56,-37,-15
3605.696,309,20,16336,-2376,-19,-35,-26
3615.163,309,20,16336,-2376,-19,-35,-26
3615.163,308,20,16336,-2376,-19,-35,-26
3620.932,308,20,16336,-2376,-19,-35,-26
3624.1150000000002,308,20,16336,-2376,-19,-35,-26
3624.1150000000002,309,20,16336,-2376,-19,-35,-26
3624.1150000000002,309,20,16336,-2376,-19,-35,-26
3630.716,308,-24,16368,-2396,-43,-39,-4
3638.481,309,-24,16368,-2396,-43,-39,-4
3648.535,308,-24,16368,-2396,-43,-39,-4
3656.8329999999996,308,-24,16368,-2396,-43,-39,-4
3669.355,309,-24,16368,-2396,-43,-39,-4
3671.3450000000003,308,-24,16368,-2396,-43,-39,-4
3673.355,309,-24,16368,-2396,-43,-39,-4
3673.355,309,-24,16368,-2396,-43,-39,-4
3673.355,309,-20,16304,-2352,-41,-29,0
3673.355,308,-20,16304,-2352,-41,-29,0
3673.355,309,-20,16304,-2352,-41,-29,0
3673.355,308,-20,16304,-2352,-41,-29,0
3673.355,308,-20,16304,-2352,-41,-29,0
3673.355,308,-20,16304,-2352,-41,-29,0
3673.355,309,-20,16304,-2352,-41,-29,0
3679.361,309,56,16292,-2356,-28,-42,-11
3679.361,309,56,16292,-2356,-28,-42,-11
3681.371,309,56,16292,-2356,-28,-42,-11
3683.377,308,56,16292,-2356,-28,-42,-11
3683.377,309,56,16292,-2356,-28,-42,-11
3686.198,309,56,16292,-2356,-28,-42,-11
3688.853,310,56,16292,-2356,-28,-42,-11
3688.853,309,8,16304,-2332,0,-39,-16
3688.853,309,8,16304,-2332,0,-39,-16
3696.3140000000003,309,8,16304,-2332,0,-39,-16
3696.3140000000003,309,8,16304,-2332,0,-39,-16
3696.3140000000003,309,8,16304,-2332,0,-39,-16
3704.743,308,8,16304,-2332,0,-39,-16
3707.2059999999997,308,8,16304,-2332,0,-39,-16
3707.2059999999997,309,8,16304,-2332,0,-39,-16
3713.327,308,-4,16304,-2376,-28,-26,-19
3713.327,309,-4,16304,-2376,-28,-26,-19
3713.327,309,-4,16304,-2376,-28,-26,-19
3721.805,309,-4,16304,-2376,-28,-26,-19
3721.805,308,-4,16304,-2376,-28,-26,-19
3724.3149999999996,308,-4,16304,-2376,-28,-26,-19
3730.032,308,-4,16304,-2376,-28,-26,-19
3730.032,308,-4,16304,-2376,-28,-26,-19
3730.032,309,-16,16312,-2332,-27,-52,11
3738.646,309,-16,16312,-2332,-27,-52,11
3738.646,308,-16,16312,-2332,-27,-52,11
3738.646,308,-16,16312,-2332,-27,-52,11
3746.734,308,-16,16312,-2332,-27,-52,11
3746.734,309,-16,16312,-2332,-27,-52,11
3746.734,308,-16,16312,-2332,-27,-52,11
3754.987,308,28,16304,-2376,-27,-34,-20
3754.987,309,28,16304,-2376,-27,-34,-20
3754.987,309,28,16304,-2376,-27,-34,-20
3763.188,308,28,16304,-2376,-27,-34,-20
3764.5400000000004,308,28,16304,-2376,-27,-34,-20
3764.5400000000004,309,28,16304,-2376,-27,-34,-20
3771.48,309,28,16304,-2376,-27,-34,-20
3771.48,308,-8,16292,-2372,-20,-34,0
3774.368,308,-8,16292,-2372,-20,-34,0
3774.368,308,-8,16292,-2372,-20,-34,0
3779.933,308,-8,16292,-2372,-20,-34,0
3779.933,308,-8,16292,-2372,-20,-34,0
3779.933,308,-8,16292,-2372,-20,-34,0
3788.48,308,-8,16292,-2372,-20,-34,0
3788.48,308,-8,16292,-2372,-20,-34,0
3788.48,309,8,16372,-2372,-43,-47,-4
3796.74,309,8,16372,-2372,-43,-47,-4
3797.923,309,8,16372,-2372,-43,-47,-4
3802.2079999999996,308,8,16372,-2372,-43,-47,-4
3803.575,308,8,16372,-2372,-43,-47,-4
3805.279,308,8,16372,-2372,-43,-47,-4
3807.295,308,8,16372,-2372,-43,-47,-4
3807.295,308,8,16372,-2372,-43,-47,-4
3813.745,308,-12,16308,-2336,-52,-46,-7
3813.745,308,-12,16308,-2336,-52,-46,-7
3820.274,308,-12,16308,-2336,-52,-46,-7
3823.524,307,-12,16308,-2336,-52,-46,-7
3824.537,307,-12,16308,-2336,-52,-46,-7
3824.537,307,-12,16308,-2336,-52,-46,-7
3830.349,308,-12,16308,-2336,-52,-46,-7
3830.349,309,-24,16264,-2388,-19,-16,-19
3836.881,307,-24,16264,-2388,-19,-16,-19
3840.822,308,-24,16264,-2388,-19,-16,-19
3840.822,308,-24,16264,-2388,-19,-16,-19
3840.822,308,-24,16264,-2388,-19,-16,-19
3846.446,307,-24,16264,-2388,-19,-16,-19
3851.1000000000004,308,-24,16264,-2388,-19,-16,-19
3853.5029999999997,308,-28,16300,-2356,-49,-53,-26
3855.417,308,-28,16300,-2356,-49,-53,-26
3858.175,308,-28,16300,-2356,-49,-53,-26
3862.573,307,-28,16300,-2356,-49,-53,-26
3862.573,307,-28,16300,-2356,-49,-53,-26
3862.573,307,-28,16300,-2356,-49,-53,-26
3871.505,307,-28,16300,-2356,-49,-53,-26
3871.505,308,4,16312,-2380,-28,-14,-11
3871.505,307,4,16312,-2380,-28,-14,-11
3871.505,308,4,16312,-2380,-28,-14,-11
3879.31,307,4,16312,-2380,-28,-14,-11
3879.31,307,4,16312,-2380,-28,-14,-11
3887.023,307,4,16312,-2380,-28,-14,-11
3887.023,307,4,16312,-2380,-28,-14,-11
3887.023,307,4,16312,-2380,-28,-14,-11
3895.1259999999997,307,0,16260,-2324,-48,-50,3
3895.1259999999997,308,0,16260,-2324,-48,-50,3
3895.1259999999997,307,0,16260,-2324,-48,-50,3
3895.1259999999997,308,0,16260,-2324,-48,-50,3
3903.668,308,0,16260,-2324,-48,-50,3
3903.668,307,0,16260,-2324,-48,-50,3
3903.668,308,0,16260,-2324,-48,-50,3
3911.871,308,0,16260,-2324,-48,-50,3
3911.871,308,0,16300,-2416,-33,-56,-13
3911.871,308,0,16300,-2416,-33,-56,-13
3920.5640000000003,307,0,16300,-2416,-33,-56,-13
3920.5640000000003,307,0,16300,-2416,-33,-56,-13
3924.612,307,0,16300,-2416,-33,-56,-13
3928.367,307,0,16300,-2416,-33,-56,-13
3930.339,307,0,16300,-2416,-33,-56,-13
3932.353,308,-4,16292,-2360,-17,-42,-3
3936.411,308,-4,16292,-2360,-17,-42,-3
3938.43,307,-4,16292,-2360,-17,-42,-3
3940.959,308,-4,16292,-2360,-17,-42,-3
3944.6240000000003,307,-4,16292,-2360,-17,-42,-3
3945.492,307,-4,16292,-2360,-17,-42,-3
3948.814,307,-4,16292,-2360,-17,-42,-3
3952.667,307,-4,16292,-2360,-17,-42,-3
3952.667,307,-28,16352,-2368,-28,-37,-15
3952.667,307,-28,16352,-2368,-28,-37,-15
3960.8120000000004,307,-28,16352,-2368,-28,-37,-15
3963.9359999999997,306,-28,16352,-2368,-28,-37,-15
3965.95,307,-28,16352,-2368,-28,-37,-15
3969.018,307,-28,16352,-2368,-28,-37,-15
3970.578,306,-28,16352,-2368,-28,-37,-15
3974.614,307,-44,16308,-2348,-53,-58,-12
3977.272,307,-44,16308,-2348,-53,-58,-12
3977.272,307,-44,16308,-2348,-53,-58,-12
3977.272,306,-44,16308,-2348,-53,-58,-12
3987.356,307,-44,16308,-2348,-53,-58,-12
3988.068,307,-44,16308,-2348,-53,-58,-12
3988.068,307,-44,16308,-2348,-53,-58,-12
3993.5499999999997,307,-4,16336,-2376,-21,-41,-3
3995.743,307,-4,16336,-2376,-21,-41,-3
3995.743,306,-4,16336,-2376,-21,-41,-3
4001.6230000000005,307,-4,16336,-2376,-21,-41,-3
4003.6420000000003,307,-4,16336,-2376,-21,-41,-3
4003.6420000000003,307,-4,16336,-2376,-21,-41,-3
4009.999,307,-4,16336,-2376,-21,-41,-3
4009.999,307,16,16292,-2420,-41,-45,1
4009.999,307,16,16292,-2420,-41,-45,1
4018.4889999999996,308,16,16292,-2420,-41,-45,1
4019.4590000000003,307,16,16292,-2420,-41,-45,1
4019.4590000000003,307,16,16292,-2420,-41,-45,1
4024.7900000000004,306,16,16292,-2420,-41,-45,1
4026.553,307,16,16292,-2420,-41,-45,1
4026.553,307,16,16292,-2420,-41,-45,1
4034.323,307,-20,16364,-2360,-18,-38,-18
4037.8869999999997,307,-20,16364,-2360,-18,-38,-18
4037.8869999999997,306,-20,16364,-2360,-18,-38,-18
4042.361,306,-20,16364,-2360,-18,-38,-18
4042.361,306,-20,16364,-2360,-18,-38,-18
4042.361,307,-20,16364,-2360,-18,-38,-18
4051.3389999999995,307,-20,16364,-2360,-18,-38,-18
4053.2500000000005,307,16,16312,-2376,-67,-39,-10
4058.459,307,16,16312,-2376,-67,-39,-10
4058.911,307,16,16312,-2376,-67,-39,-10
4062.4089999999997,307,16,16312,-2376,-67,-39,-10
4066.7540000000004,306,16,16312,-2376,-67,-39,-10
4066.7540000000004,306,16,16312,-2376,-67,-39,-10
4066.7540000000004,307,16,16312,-2376,-67,-39,-10
4074.918,307,-28,16344,-2372,-10,-55,-6
4074.918,307,-28,16344,-2372,-10,-55,-6
4076.605,307,-28,16344,-2372,-10,-55,-6
4076.605,307,-28,16344,-2372,-10,-55,-6
4083.375,306,-28,16344,-2372,-10,-55,-6
4086.647,307,-28,16344,-2372,-10,-55,-6
4086.647,307,-28,16344,-2372,-10,-55,-6
4091.5600000000004,307,-28,16344,-2372,-10,-55,-6
4095.5769999999998,307,-28,16296,-2356,-27,-39,8
4098.232,307,-28,16296,-2356,-27,-39,8
4099.808,307,-28,16296,-2356,-27,-39,8
4099.808,307,-28,16296,-2356,-27,-39,8
4099.808,307,-28,16296,-2356,-27,-39,8
4108.179,307,-28,16296,-2356,-27,-39,8
4111.544999999999,307,-28,16296,-2356,-27,-39,8
4111.544999999999,307,-56,16368,-2388,-21,-29,-24
4116.283,307,-56,16368,-2388,-21,-29,-24
4116.283,307,-56,16368,-2388,-21,-29,-24
4123.835,306,-56,16368,-2388,-21,-29,-24
4124.852,307,-56,16368,-2388,-21,-29,-24
4124.852,307,-56,16368,-2388,-21,-29,-24
4132.067,307,-56,16368,-2388,-21,-29,-24
4132.067,307,-12,16360,-2368,-63,-64,-23
4137.365,307,-12,16360,-2368,-63,-64,-23
4140.34,307,-12,16360,-2368,-63,-64,-23
4140.34,307,-12,16360,-2368,-63,-64,-23
4140.34,307,-12,16360,-2368,-63,-64,-23
4148.755999999999,307,-12,16360,-2368,-63,-64,-23
4149.408,307,-12,16360,-2368,-63,-64,-23
4154.253,308,-40,16344,-2384,-19,-45,-2
4156.266,307,-40,16344,-2384,-19,-45,-2
4160.56,307,-40,16344,-2384,-19,-45,-2
4160.56,307,-40,16344,-2384,-19,-45,-2
4164.686,307,-40,16344,-2384,-19,-45,-2
4164.686,307,-40,16344,-2384,-19,-45,-2
4170.311,307,-40,16344,-2384,-19,-45,-2
4172.332,307,-40,16344,-2384,-19,-45,-2
4173.61,307,-20,16316,-2340,-51,-46,-13
4173.61,307,-20,16316,-2340,-51,-46,-13
4180.746,307,-20,16316,-2340,-51,-46,-13
4186.277999999999,307,-20,16316,-2340,-51,-46,-13
4188.2970000000005,307,-20,16316,-2340,-51,-46,-13
4188.2970000000005,307,-20,16316,-2340,-51,-46,-13
4188.2970000000005,307,-20,16316,-2340,-51,-46,-13
4188.2970000000005,307,24,16308,-2392,-38,-42,-16
4197.486,307,24,16308,-2392,-38,-42,-16
4197.486,306,24,16308,-2392,-38,-42,-16
4204.925,307,24,16308,-2392,-38,-42,-16
4207.413,306,24,16308,-2392,-38,-42,-16
4209.844,307,24,16308,-2392,-38,-42,-16
4213.127,307,24,16308,-2392,-38,-42,-16
4213.127,307,-40,16332,-2292,-53,-35,-14
4216.461,307,-40,16332,-2292,-53,-35,-14
4221.277,307,-40,16332,-2292,-53,-35,-14
4221.277,306,-40,16332,-2292,-53,-35,-14
4226.2029999999995,307,-40,16332,-2292,-53,-35,-14
4230.317999999999,307,-40,16332,-2292,-53,-35,-14
4231.387,307,-40,16332,-2292,-53,-35,-14
4231.387,308,48,16352,-2420,-7,-49,-12
4238.776,307,48,16352,-2420,-7,-49,-12
4238.776,307,48,16352,-2420,-7,-49,-12
4242.645,307,48,16352,-2420,-7,-49,-12
4246.891,306,48,16352,-2420,-7,-49,-12
4246.891,308,48,16352,-2420,-7,-49,-12
4246.891,307,48,16352,-2420,-7,-49,-12
4254.275,307,-56,16336,-2352,-59,-52,-5
4255.534,308,-56,16336,-2352,-59,-52,-5
4258.982,307,-56,16336,-2352,-59,-52,-5
4258.982,307,-56,16336,-2352,-59,-52,-5
4263.909,307,-56,16336,-2352,-59,-52,-5
4267.1630000000005,306,-56,16336,-2352,-59,-52,-5
4271.426,307,-56,16336,-2352,-59,-52,-5
4271.426,307,-56,16336,-2352,-59,-52,-5
4275.151,307,-72,16292,-2388,-18,-59,-1
4277.158,308,-72,16292,-2388,-18,-59,-1
4279.849999999999,308,-72,16292,-2388,-18,-59,-1
4283.558,307,-72,16292,-2388,-18,-59,-1
4288.129,307,-72,16292,-2388,-18,-59,-1
4288.129,307,-72,16292,-2388,-18,-59,-1
4291.785,308,-72,16292,-2388,-18,-59,-1
4291.785,307,40,16316,-2400,-48,-39,-16
4296.433999999999,308,40,16316,-2400,-48,-39,-16
4299.956,307,40,16316,-2400,-48,-39,-16
4304.08,308,40,16316,-2400,-48,-39,-16
4304.08,307,40,16316,-2400,-48,-39,-16
4308.156999999999,307,40,16316,-2400,-48,-39,-16
4312.506,307,40,16316,-2400,-48,-39,-16
4312.506,308,-24,16332,-2364,-41,-36,-5
4316.3330000000005,307,-24,16332,-2364,-41,-36,-5
4320.455,307,-24,16332,-2364,-41,-36,-5
4322.616,308,-24,16332,-2364,-41,-36,-5
4324.49,307,-24,16332,-2364,-41,-36,-5
4328.671,307,-24,16332,-2364,-41,-36,-5
4328.671,308,-24,16332,-2364,-41,-36,-5
4330.68,308,-24,16332,-2364,-41,-36,-5
4336.425,308,-72,16284,-2360,-28,-35,-3
4338.437,307,-72,16284,-2360,-28,-35,-3
4338.437,307,-72,16284,-2360,-28,-35,-3
4344.814,308,-72,16284,-2360,-28,-35,-3
4344.814,307,-72,16284,-2360,-28,-35,-3
4344.814,307,-72,16284,-2360,-28,-35,-3
4353.023999999999,308,-72,16284,-2360,-28,-35,-3
4355.667,307,-36,16320,-2404,-21,-41,10
4357.674,307,-36,16320,-2404,-21,-41,10
4361.136,308,-36,16320,-2404,-21,-41,10
4365.396,308,-36,16320,-2404,-21,-41,10
4366.035,308,-36,16320,-2404,-21,-41,10
4370.025,307,-36,16320,-2404,-21,-41,10
4370.979,308,-36,16320,-2404,-21,-41,10
4370.979,307,-12,16352,-2408,-50,-27,-1
4377.745,307,-12,16352,-2408,-50,-27,-1
4381.879,308,-12,16352,-2408,-50,-27,-1
4381.879,308,-12,16352,-2408,-50,-27,-1
4385.806,307,-12,16352,-2408,-50,-27,-1
4390.1539999999995,307,-12,16352,-2408,-50,-27,-1
4390.1539999999995,308,-12,16352,-2408,-50,-27,-1
4394.147,307,20,16296,-2372,-31,-60,-20
4398.227000000001,308,20,16296,-2372,-31,-60,-20
4398.227000000001,308,20,16296,-2372,-31,-60,-20
4402.311,307,20,16296,-2372,-31,-60,-20
4404.478,307,20,16296,-2372,-31,-60,-20
4404.478,307,20,16296,-2372,-31,-60,-20
4410.753,308,20,16296,-2372,-31,-60,-20
4413.953,307,20,16296,-2372,-31,-60,-20
4413.953,308,28,16268,-2384,-35,-37,4
4419.063,308,28,16268,-2384,-35,-37,4
4419.063,307,28,16268,-2384,-35,-37,4
4419.063,307,28,16268,-2384,-35,-37,4
4426.887,307,28,16268,-2384,-35,-37,4
4426.887,307,28,16268,-2384,-35,-37,4
4426.887,307,28,16268,-2384,-35,-37,4
4435.3150000000005,308,8,16368,-2388,-10,-43,-6
4437.2699999999995,308,8,16368,-2388,-10,-43,-6
4437.2699999999995,308,8,16368,-2388,-10,-43,-6
4443.546,307,8,16368,-2388,-10,-43,-6
4443.546,307,8,16368,-2388,-10,-43,-6
4443.546,307,8,16368,-2388,-10,-43,-6
4443.546,307,8,16368,-2388,-10,-43,-6
4451.575,307,8,16368,-2388,-10,-43,-6
4451.575,308,4,16336,-2380,-38,-38,-4
4451.575,307,4,16336,-2380,-38,-38,-4
4459.798,308,4,16336,-2380,-38,-38,-4
4459.798,307,4,16336,-2380,-38,-38,-4
4459.798,307,4,16336,-2380,-38,-38,-4
4467.96,307,4,16336,-2380,-38,-38,-4
4467.96,308,4,16336,-2380,-38,-38,-4
4467.96,308,4,16336,-2380,-38,-38,-4
4476.091,307,-20,16332,-2372,-24,-28,-16
4476.091,307,-20,16332,-2372,-24,-28,-16
4476.091,307,-20,16332,-2372,-24,-28,-16
4484.436,307,-20,16332,-2372,-24,-28,-16
4486.951999999999,307,-20,16332,-2372,-24,-28,-16
4486.951999999999,308,-20,16332,-2372,-24,-28,-16
4492.667,307,-20,16332,-2372,-24,-28,-16
4496.743,307,12,16288,-2340,-42,-25,6
4496.743,307,12,16288,-2340,-42,-25,6
4500.8150000000005,308,12,16288,-2340,-42,-25,6
4500.8150000000005,307,12,16288,-2340,-42,-25,6
4503.822,307,12,16288,-2340,-42,-25,6
4509.081,307,12,16288,-2340,-42,-25,6
4509.081,307,12,16288,-2340,-42,-25,6
4509.081,307,12,16288,-2340,-42,-25,6
4517.488,307,-8,16376,-2356,-31,-50,-21
4517.488,307,-8,16376,-2356,-31,-50,-21
4517.488,308,-8,16376,-2356,-31,-50,-21
4517.488,307,-8,16376,-2356,-31,-50,-21
4526.902,307,-8,16376,-2356,-31,-50,-21
4528.974,308,-8,16376,-2356,-31,-50,-21
4531.167,307,-8,16376,-2356,-31,-50,-21
4534.28,308,-20,16328,-2348,-54,-29,-7
4535.847000000001,307,-20,16328,-2348,-54,-29,-7
4539.219,308,-20,16328,-2348,-54,-29,-7
4542.733,307,-20,16328,-2348,-54,-29,-7
4545.531999999999,307,-20,16328,-2348,-54,-29,-7
4545.531999999999,307,-20,16328,-2348,-54,-29,-7
4550.97,307,-20,16328,-2348,-54,-29,-7
4553.077,307,44,16340,-2372,-47,-32,-11
4557.969,307,44,16340,-2372,-47,-32,-11
4559.079,307,44,16340,-2372,-47,-32,-11
4562.048,307,44,16340,-2372,-47,-32,-11
4562.048,307,44,16340,-2372,-47,-32,-11
4567.535999999999,307,44,16340,-2372,-47,-32,-11
4569.907999999999,306,44,16340,-2372,-47,-32,-11
4571.964999999999,308,44,16340,-2372,-47,-32,-11
4575.5689999999995,307,-12,16272,-2360,-38,-38,-2
4577.075,308,-12,16272,-2360,-38,-38,-2
4577.075,307,-12,16272,-2360,-38,-38,-2
4583.5869999999995,308,-12,16272,-2360,-38,-38,-2
4583.5869999999995,306,-12,16272,-2360,-38,-38,-2
4583.5869999999995,307,-12,16272,-2360,-38,-38,-2
4592.049,307,-12,16272,-2360,-38,-38,-2
4592.049,307,12,16380,-2392,-12,-40,-16
4592.049,307,12,16380,-2392,-12,-40,-16
4600.301,307,12,16380,-2392,-12,-40,-16
4604.062,307,12,16380,-2392,-12,-40,-16
4604.062,307,12,16380,-2392,-12,-40,-16
4608.348999999999,307,12,16380,-2392,-12,-40,-16
4608.348999999999,307,12,16380,-2392,-12,-40,-16
4608.348999999999,307,0,16328,-2364,-54,-28,7
4617.403,307,0,16328,-2364,-54,-28,7
4619.604,308,0,16328,-2364,-54,-28,7
4621.615000000001,307,0,16328,-2364,-54,-28,7
4625.167,307,0,16328,-2364,-54,-28,7
4626.772,307,0,16328,-2364,-54,-28,7
4626.772,307,0,16328,-2364,-54,-28,7
4626.772,307,0,16328,-2364,-54,-28,7
4633.636,308,4,16304,-2388,-31,-49,1
4637.929,307,4,16304,-2388,-31,-49,1
4639.977,307,4,16304,-2388,-31,-49,1
4641.860000000001,307,4,16304,-2388,-31,-49,1
4641.860000000001,306,4,16304,-2388,-31,-49,1
4641.860000000001,307,4,16304,-2388,-31,-49,1
4641.860000000001,307,4,16304,-2388,-31,-49,1
4649.924,308,4,16304,-2388,-31,-49,1
4649.924,308,0,16332,-2364,-40,-44,5
4649.924,308,0,16332,-2364,-40,-44,5
4658.076,307,0,16332,-2364,-40,-44,5
4658.076,307,0,16332,-2364,-40,-44,5
4658.076,307,0,16332,-2364,-40,-44,5
4668.635,307,0,16332,-2364,-40,-44,5
4670.620000000001,308,0,16332,-2364,-40,-44,5
4670.620000000001,308,0,16332,-2364,-40,-44,5
4675.661,307,12,16364,-2372,-39,-32,-27
4675.661,307,12,16364,-2372,-39,-32,-27
4680.806,308,12,16364,-2372,-39,-32,-27
4682.925,307,12,16364,-2372,-39,-32,-27
4687.064,307,12,16364,-2372,-39,-32,-27
4687.638,307,12,16364,-2372,-39,-32,-27
4691.459,307,12,16364,-2372,-39,-32,-27
4691.459,308,12,16364,-2372,-39,-32,-27
4691.459,308,4,16340,-2388,-40,-39,-2
4691.459,307,4,16340,-2388,-40,-39,-2
4701.328,307,4,16340,-2388,-40,-39,-2
4703.282,307,4,16340,-2388,-40,-39,-2
4703.282,307,4,16340,-2388,-40,-39,-2
4707.643,307,4,16340,-2388,-40,-39,-2
4707.643,307,4,16340,-2388,-40,-39,-2
4707.643,307,12,16232,-2344,-23,-46,0
4717.728,307,12,16232,-2344,-23,-46,0
4720.083,308,12,16232,-2344,-23,-46,0
4720.083,308,12,16232,-2344,-23,-46,0
4723.751,307,12,16232,-2344,-23,-46,0
4726.997,307,12,16232,-2344,-23,-46,0
4726.997,307,12,16232,-2344,-23,-46,0
4734.094,308,12,16232,-2344,-23,-46,0
4734.094,307,32,16344,-2408,-33,-29,0
4737.456,307,32,16344,-2408,-33,-29,0
4742.289000000001,308,32,16344,-2408,-33,-29,0
4742.289000000001,307,32,16344,-2408,-33,-29,0
4746.942,307,32,16344,-2408,-33,-29,0
4746.942,307,32,16344,-2408,-33,-29,0
4750.701,307,32,16344,-2408,-33,-29,0
4750.701,307,32,16344,-2408,-33,-29,0
4750.701,307,-20,16320,-2372,-29,-33,-13
4758.8,307,-20,16320,-2372,-29,-33,-13
4758.8,307,-20,16320,-2372,-29,-33,-13
4758.8,307,-20,16320,-2372,-29,-33,-13
4766.914,307,-20,16320,-2372,-29,-33,-13
4769.725,308,-20,16320,-2372,-29,-33,-13
4775.054,307,-20,16320,-2372,-29,-33,-13
4775.054,308,-32,16380,-2372,-39,-40,-10
4775.054,307,-32,16380,-2372,-39,-40,-10
4783.299,308,-32,16380,-2372,-39,-40,-10
4783.299,308,-32,16380,-2372,-39,-40,-10
4783.299,307,-32,16380,-2372,-39,-40,-10
4791.778,307,-32,16380,-2372,-39,-40,-10
4791.778,308,-32,16380,-2372,-39,-40,-10
4791.778,308,-44,16336,-2420,-38,-52,-30
4799.8099999999995,307,-44,16336,-2420,-38,-52,-30
4800.584,307,-44,16336,-2420,-38,-52,-30
4805.418000000001,307,-44,16336,-2420,-38,-52,-30
4807.855,307,-44,16336,-2420,-38,-52,-30
4807.855,307,-44,16336,-2420,-38,-52,-30
4807.855,308,-44,16336,-2420,-38,-52,-30
4815.919,307,-12,16300,-2368,-7,-42,-11
4815.919,308,-12,16300,-2368,-7,-42,-11
4815.919,307,-12,16300,-2368,-7,-42,-11
4824.2,307,-12,16300,-2368,-7,-42,-11
4827.455,307,-12,16300,-2368,-7,-42,-11
4827.455,307,-12,16300,-2368,-7,-42,-11
4832.401,307,-12,16300,-2368,-7,-42,-11
4832.401,307,8,16360,-2384,-23,-41,-1
4837.243,307,8,16360,-2384,-23,-41,-1
4840.857,308,8,16360,-2384,-23,-41,-1
4840.857,307,8,16360,-2384,-23,-41,-1
4840.857,307,8,16360,-2384,-23,-41,-1
4849.033,307,8,16360,-2384,-23,-41,-1
4849.033,307,8,16360,-2384,-23,-41,-1
4849.033,307,8,16360,-2384,-23,-41,-1
4857.15,307,-32,16296,-2308,-32,-56,-6
4857.786,307,-32,16296,-2308,-32,-56,-6
4857.786,308,-32,16296,-2308,-32,-56,-6
4865.214,307,-32,16296,-2308,-32,-56,-6
4865.214,307,-32,16296,-2308,-32,-56,-6
4869.782,307,-32,16296,-2308,-32,-56,-6
4873.393,308,-32,16296,-2308,-32,-56,-6
4874.588,308,-12,16364,-2380,-29,-43,-15
4876.5960000000005,307,-12,16364,-2380,-29,-43,-15
4881.148999999999,307,-12,16364,-2380,-29,-43,-15
4884.884999999999,307,-12,16364,-2380,-29,-43,-15
4886.354,308,-12,16364,-2380,-29,-43,-15
4890.124,307,-12,16364,-2380,-29,-43,-15
4890.861,307,-12,16364,-2380,-29,-43,-15
4890.861,307,-16,16308,-2360,-33,-29,-16
4897.454,308,-16,16308,-2360,-33,-29,-16
4897.454,307,-16,16308,-2360,-33,-29,-16
4902.880999999999,307,-16,16308,-2360,-33,-29,-16
4906.115,307,-16,16308,-2360,-33,-29,-16
4906.115,307,-16,16308,-2360,-33,-29,-16
4906.115,307,-16,16308,-2360,-33,-29,-16
4914.352,308,-16,16308,-2360,-33,-29,-16
4914.352,307,-52,16336,-2352,-35,-29,-9
4920.353999999999,308,-52,16336,-2352,-35,-29,-9
4922.092000000001,307,-52,16336,-2352,-35,-29,-9
4922.092000000001,307,-52,16336,-2352,-35,-29,-9
4930.6900000000005,307,-52,16336,-2352,-35,-29,-9
4930.6900000000005,308,-52,16336,-2352,-35,-29,-9
4930.6900000000005,308,-52,16336,-2352,-35,-29,-9
4938.523,308,20,16356,-2368,-48,-36,-25
4938.523,308,20,16356,-2368,-48,-36,-25
4942.974999999999,307,20,16356,-2368,-48,-36,-25
4947.114,308,20,16356,-2368,-48,-36,-25
4947.114,307,20,16356,-2368,-48,-36,-25
4947.114,307,20,16356,-2368,-48,-36,-25
4955.274,307,20,16356,-2368,-48,-36,-25
4955.274,307,0,16280,-2368,-41,-58,-7
4955.274,307,0,16280,-2368,-41,-58,-7
4955.274,307,0,16280,-2368,-41,-58,-7
4963.502,307,0,16280,-2368,-41,-58,-7
4963.502,307,0,16280,-2368,-41,-58,-7
4968.463,307,0,16280,-2368,-41,-58,-7
4971.919,307,0,16280,-2368,-41,-58,-7
4971.919,307,0,16280,-2368,-41,-58,-7
4971.919,307,-8,16336,-2344,-14,-17,-4
4979.842,308,-8,16336,-2344,-14,-17,-4
4981.19,307,-8,16336,-2344,-14,-17,-4
4981.19,307,-8,16336,-2344,-14,-17,-4
4988.279,307,-8,16336,-2344,-14,-17,-4
4991.427,308,-8,16336,-2344,-14,-17,-4
4991.427,308,-8,16336,-2344,-14,-17,-4
4996.253000000001,308,16,16324,-2344,-28,-31,-6
4996.253000000001,307,16,16324,-2344,-28,-31,-6
4996.253000000001,307,16,16324,-2344,-28,-31,-6
5004.652,307,16,16324,-2344,-28,-31,-6
5004.652,307,16,16324,-2344,-28,-31,-6
5008.546,307,16,16324,-2344,-28,-31,-6
5012.4839999999995,307,16,16324,-2344,-28,-31,-6
5012.4839999999995,307,16,16324,-2344,-28,-31,-6
5012.4839999999995,308,-28,16340,-2368,-40,-51,-10
5020.907,307,-28,16340,-2368,-40,-51,-10
5022.235000000001,307,-28,16340,-2368,-40,-51,-10
5022.235000000001,307,-28,16340,-2368,-40,-51,-10
5028.404,307,-28,16340,-2368,-40,-51,-10
5033.12,307,-28,16340,-2368,-40,-51,-10
5033.12,307,-28,16340,-2368,-40,-51,-10
5038.173,307,-36,16292,-2348,-26,-52,9
5041.312,307,-36,16292,-2348,-26,-52,9
5041.312,307,-36,16292,-2348,-26,-52,9
5041.312,307,-36,16292,-2348,-26,-52,9
5046.09,307,-36,16292,-2348,-26,-52,9
5049.402,307,-36,16292,-2348,-26,-52,9
5054.12,307,-36,16292,-2348,-26,-52,9
5056.130999999999,308,-4,16348,-2376,-22,-40,-1
5057.693,308,-4,16348,-2376,-22,-40,-1
5061.273,307,-4,16348,-2376,-22,-40,-1
5062.295,306,-4,16348,-2376,-22,-40,-1
5062.295,306,-4,16348,-2376,-22,-40,-1
5070.706,307,-4,16348,-2376,-22,-40,-1
5071.1539999999995,307,-4,16348,-2376,-22,-40,-1
5071.1539999999995,307,-4,16348,-2376,-22,-40,-1
5071.1539999999995,307,24,16400,-2388,-19,-28,-9
5079.046,307,24,16400,-2388,-19,-28,-9
5082.254,306,24,16400,-2388,-19,-28,-9
5086.4310000000005,307,24,16400,-2388,-19,-28,-9
5088.0960000000005,307,24,16400,-2388,-19,-28,-9
5090.359,307,24,16400,-2388,-19,-28,-9
5090.359,307,24,16400,-2388,-19,-28,-9
5090.359,307,-8,16328,-2416,-48,-36,-11
5098.645,307,-8,16328,-2416,-48,-36,-11
5098.645,307,-8,16328,-2416,-48,-36,-11
5103.6669999999995,306,-8,16328,-2416,-48,-36,-11
5106.817,307,-8,16328,-2416,-48,-36,-11
5106.817,308,-8,16328,-2416,-48,-36,-11
5106.817,307,-8,16328,-2416,-48,-36,-11
5115.033,307,-8,16328,-2416,-48,-36,-11
5115.033,307,8,16312,-2356,-50,-41,-7
5120.608,307,8,16312,-2356,-50,-41,-7
5121.679,306,8,16312,-2356,-50,-41,-7
5123.692,307,8,16312,-2356,-50,-41,-7
5126.825,307,8,16312,-2356,-50,-41,-7
5131.442,307,8,16312,-2356,-50,-41,-7
5132.704000000001,307,8,16312,-2356,-50,-41,-7
5133.7210000000005,307,12,16352,-2356,-12,-42,-11
5139.585,307,12,16352,-2356,-12,-42,-11
5140.771,307,12,16352,-2356,-12,-42,-11
5143.694,306,12,16352,-2356,-12,-42,-11
5147.822,307,12,16352,-2356,-12,-42,-11
5147.822,307,12,16352,-2356,-12,-42,-11
5152.601,307,12,16352,-2356,-12,-42,-11
5156.121,308,12,16352,-2356,-12,-42,-11
5156.121,307,12,16400,-2340,-19,-40,-17
5160.092,307,12,16400,-2340,-19,-40,-17
5164.334,307,12,16400,-2340,-19,-40,-17
5164.334,307,12,16400,-2340,-19,-40,-17
5164.334,307,12,16400,-2340,-19,-40,-17
5172.434,307,12,16400,-2340,-19,-40,-17
5173.392,307,12,16400,-2340,-19,-40,-17
5173.392,308,-8,16360,-2368,-53,-35,-17
5180.486,307,-8,16360,-2368,-53,-35,-17
5180.486,307,-8,16360,-2368,-53,-35,-17
5180.486,307,-8,16360,-2368,-53,-35,-17
5188.605,307,-8,16360,-2368,-53,-35,-17
5190.101000000001,307,-8,16360,-2368,-53,-35,-17
5193.0019999999995,307,-8,16360,-2368,-53,-35,-17
5196.634999999999,308,-32,16292,-2380,-22,-28,-14
5196.634999999999,307,-32,16292,-2380,-22,-28,-14
5196.634999999999,307,-32,16292,-2380,-22,-28,-14
5205.023999999999,307,-32,16292,-2380,-22,-28,-14
5209.2429999999995,307,-32,16292,-2380,-22,-28,-14
5209.2429999999995,307,-32,16292,-2380,-22,-28,-14
5213.3330000000005,307,-32,16292,-2380,-22,-28,-14
5213.3330000000005,307,-40,16328,-2352,-35,-42,-11
5213.3330000000005,307,-40,16328,-2352,-35,-42,-11
5221.698,307,-40,16328,-2352,-35,-42,-11
5222.666,307,-40,16328,-2352,-35,-42,-11
5222.666,307,-40,16328,-2352,-35,-42,-11
5230.063,307,-40,16328,-2352,-35,-42,-11
5230.57,307,-40,16328,-2352,-35,-42,-11
5236.962,308,36,16340,-2340,-47,-30,-9
5238.473,308,36,16340,-2340,-47,-30,-9
5238.473,307,36,16340,-2340,-47,-30,-9
5238.473,307,36,16340,-2340,-47,-30,-9
5246.151,307,36,16340,-2340,-47,-30,-9
5250.17,307,36,16340,-2340,-47,-30,-9
5250.17,307,36,16340,-2340,-47,-30,-9
5254.413,308,36,16340,-2340,-47,-30,-9
5260.436000000001,307,-12,16368,-2372,-38,-47,-14
5264.447999999999,307,-12,16368,-2372,-38,-47,-14
5266.454000000001,307,-12,16368,-2372,-38,-47,-14
5266.454000000001,307,-12,16368,-2372,-38,-47,-14
5270.642,307,-12,16368,-2372,-38,-47,-14
5270.642,307,-12,16368,-2372,-38,-47,-14
5274.275000000001,307,-12,16368,-2372,-38,-47,-14
5278.289,308,-32,16260,-2364,-46,-56,-29
5278.289,308,-32,16260,-2364,-46,-56,-29
5282.303,307,-32,16260,-2364,-46,-56,-29
5286.317,308,-32,16260,-2364,-46,-56,-29
5288.325000000001,308,-32,16260,-2364,-46,-56,-29
5288.325000000001,307,-32,16260,-2364,-46,-56,-29
5294.932,307,-32,16260,-2364,-46,-56,-29
5294.932,307,16,16308,-2388,-16,-32,-15
5298.281,307,16,16308,-2388,-16,-32,-15
5303.116,307,16,16308,-2388,-16,-32,-15
5303.116,307,16,16308,-2388,-16,-32,-15
5303.116,307,16,16308,-2388,-16,-32,-15
5311.281,307,16,16308,-2388,-16,-32,-15
5311.281,308,16,16308,-2388,-16,-32,-15
5311.281,308,-12,16356,-2380,-44,-35,-13
5319.381,307,-12,16356,-2380,-44,-35,-13
5320.284,307,-12,16356,-2380,-44,-35,-13
5320.284,307,-12,16356,-2380,-44,-35,-13
5327.8730000000005,307,-12,16356,-2380,-44,-35,-13
5331.533,306,-12,16356,-2380,-44,-35,-13
5331.533,307,-12,16356,-2380,-44,-35,-13
5335.948,307,0,16312,-2320,-34,-46,-7
5339.1669999999995,307,0,16312,-2320,-34,-46,-7
5339.1669999999995,308,0,16312,-2320,-34,-46,-7
5344.374,307,0,16312,-2320,-34,-46,-7
5344.374,307,0,16312,-2320,-34,-46,-7
5344.374,307,0,16312,-2320,-34,-46,-7
5352.564,308,0,16312,-2320,-34,-46,-7
5352.564,307,0,16312,-2320,-34,-46,-7
5356.655,307,-8,16304,-2408,-50,-50,-17
5360.773,307,-8,16304,-2408,-50,-50,-17
5360.773,307,-8,16304,-2408,-50,-50,-17
5360.773,307,-8,16304,-2408,-50,-50,-17
5370.033,306,-8,16304,-2408,-50,-50,-17
5370.033,306,-8,16304,-2408,-50,-50,-17
5370.033,306,-8,16304,-2408,-50,-50,-17
5377.199,304,-24,16304,-2352,-37,-23,-14
5377.199,302,-24,16304,-2352,-37,-23,-14
5381.521000000001,300,-24,16304,-2352,-37,-23,-14
5385.493,298,-24,16304,-2352,-37,-23,-14
5389.1720000000005,298,-24,16304,-2352,-37,-23,-14
5389.1720000000005,299,-24,16304,-2352,-37,-23,-14
5393.192,297,-24,16304,-2352,-37,-23,-14
5397.688999999999,296,-20,16364,-2388,-28,-36,-10
5398.366,293,-20,16364,-2388,-28,-36,-10
5402.396000000001,294,-20,16364,-2388,-28,-36,-10
5404.416,295,-20,16364,-2388,-28,-36,-10
5407.174999999999,294,-20,16364,-2388,-28,-36,-10
5409.783,295,-20,16364,-2388,-28,-36,-10
5409.783,295,-20,16364,-2388,-28,-36,-10
5417.978,294,-20,16364,-2388,-28,-36,-10
5417.978,292,-20,16376,-2360,-37,-39,-8
5417.978,291,-20,16376,-2360,-37,-39,-8
5426.4349999999995,290,-20,16376,-2360,-37,-39,-8
5426.4349999999995,289,-20,16376,-2360,-37,-39,-8
5428.933,288,-20,16376,-2360,-37,-39,-8
5434.63,287,-20,16376,-2360,-37,-39,-8
5434.63,286,-20,16376,-2360,-37,-39,-8
5434.63,287,12,16320,-2356,-48,-57,-20
5442.8859999999995,285,12,16320,-2356,-48,-57,-20
5442.8859999999995,284,12,16320,-2356,-48,-57,-20
5442.8859999999995,283,12,16320,-2356,-48,-57,-20
5451.066,282,12,16320,-2356,-48,-57,-20
5451.066,281,12,16320,-2356,-48,-57,-20
5454.406,281,12,16320,-2356,-48,-57,-20
5459.42,281,-8,16276,-2384,-35,-40,-19
5459.42,281,-8,16276,-2384,-35,-40,-19
5459.42,280,-8,16276,-2384,-35,-40,-19
5467.531,277,-8,16276,-2384,-35,-40,-19
5467.531,273,-8,16276,-2384,-35,-40,-19
5467.531,273,-8,16276,-2384,-35,-40,-19
5475.685,276,-8,16276,-2384,-35,-40,-19
5475.685,276,44,16384,-2348,-40,-37,-2
5478.169,276,44,16384,-2348,-40,-37,-2
5483.9310000000005,276,44,16384,-2348,-40,-37,-2
5483.9310000000005,278,44,16384,-2348,-40,-37,-2
5483.9310000000005,280,44,16384,-2348,-40,-37,-2
5492.149,283,44,16384,-2348,-40,-37,-2
5492.149,285,44,16384,-2348,-40,-37,-2
5492.149,285,44,16384,-2348,-40,-37,-2
5492.149,286,4,16356,-2384,-39,-40,6
5500.206999999999,289,4,16356,-2384,-39,-40,6
5504.506,290,4,16356,-2384,-39,-40,6
5504.506,293,4,16356,-2384,-39,-40,6
5508.521,294,4,16356,-2384,-39,-40,6
5508.521,295,4,16356,-2384,-39,-40,6
5508.521,297,4,16356,-2384,-39,-40,6
5516.615,298,4,16356,-2384,-39,-40,6
5516.615,299,-4,16276,-2384,-45,-28,-15
5516.615,298,-4,16276,-2384,-45,-28,-15
5524.762,298,-4,16276,-2384,-45,-28,-15
5524.762,299,-4,16276,-2384,-45,-28,-15
5529.356,300,-4,16276,-2384,-45,-28,-15
5533.153,300,-4,16276,-2384,-45,-28,-15
5533.153,301,-4,16276,-2384,-45,-28,-15
5533.153,301,-4,16332,-2412,-14,-35,-5
5541.252,301,-4,16332,-2412,-14,-35,-5
5541.252,303,-4,16332,-2412,-14,-35,-5
5541.252,303,-4,16332,-2412,-14,-35,-5
5541.252,303,-4,16332,-2412,-14,-35,-5
5549.659000000001,303,-4,16332,-2412,-14,-35,-5
5554.53,303,-4,16332,-2412,-14,-35,-5
5554.53,305,-4,16332,-2412,-14,-35,-5
5558.238,304,0,16356,-2348,-26,-35,7
5558.238,305,0,16356,-2348,-26,-35,7
5558.238,305,0,16356,-2348,-26,-35,7
5566.5740000000005,304,0,16356,-2348,-26,-35,7
5566.5740000000005,305,0,16356,-2348,-26,-35,7
5571.174,305,0,16356,-2348,-26,-35,7
5571.174,306,0,16356,-2348,-26,-35,7
5574.9529999999995,307,0,16356,-2348,-26,-35,7
5574.9529999999995,307,40,16356,-2360,-33,-20,-10
5574.9529999999995,307,40,16356,-2360,-33,-20,-10
5583.308,307,40,16356,-2360,-33,-20,-10
5587.5289999999995,305,40,16356,-2360,-33,-20,-10
5587.5289999999995,304,40,16356,-2360,-33,-20,-10
5591.521000000001,303,40,16356,-2360,-33,-20,-10
5591.521000000001,303,40,16356,-2360,-33,-20,-10
5591.521000000001,303,-20,16296,-2380,-46,-34,-17
5599.915,303,-20,16296,-2380,-46,-34,-17
5599.915,304,-20,16296,-2380,-46,-34,-17
5608.246,304,-20,16296,-2380,-46,-34,-17
5610.5830000000005,305,-20,16296,-2380,-46,-34,-17
5612.353,305,-20,16296,-2380,-46,-34,-17
5612.353,304,-20,16296,-2380,-46,-34,-17
5617.884,304,-56,16312,-2376,-16,-31,16
5622.702,303,-56,16312,-2376,-16,-31,16
5622.702,304,-56,16312,-2376,-16,-31,16
5625.184,305,-56,16312,-2376,-16,-31,16
5625.184,306,-56,16312,-2376,-16,-31,16
5629.709,305,-56,16312,-2376,-16,-31,16
5633.37,306,-56,16312,-2376,-16,-31,16
5637.339,306,-20,16360,-2356,-8,-24,-28
5637.339,306,-20,16360,-2356,-8,-24,-28
5641.549999999999,306,-20,16360,-2356,-8,-24,-28
5641.549999999999,306,-20,16360,-2356,-8,-24,-28
5641.549999999999,306,-20,16360,-2356,-8,-24,-28
5650.173,306,-20,16360,-2356,-8,-24,-28
5654.563999999999,306,-20,16360,-2356,-8,-24,-28
5657.363,307,-20,16360,-2356,-8,-24,-28
5658.329,306,12,16312,-2372,-42,-55,-42
5658.329,305,12,16312,-2372,-42,-55,-42
5658.329,304,12,16312,-2372,-42,-55,-42
5666.782999999999,306,12,16312,-2372,-42,-55,-42
5670.384,307,12,16312,-2372,-42,-55,-42
5672.551,307,12,16312,-2372,-42,-55,-42
5676.158,306,12,16312,-2372,-42,-55,-42
5679.935,306,-8,16256,-2352,-35,-61,-20
5679.935,305,-8,16256,-2352,-35,-61,-20
5684.395,305,-8,16256,-2352,-35,-61,-20
5687.005,305,-8,16256,-2352,-35,-61,-20
5687.005,305,-8,16256,-2352,-35,-61,-20
5692.611,304,-8,16256,-2352,-35,-61,-20
5693.582,303,-8,16256,-2352,-35,-61,-20
5693.582,304,-28,16320,-2376,-21,-41,2
5700.759,303,-28,16320,-2376,-21,-41,2
5700.759,303,-28,16320,-2376,-21,-41,2
5706.233,303,-28,16320,-2376,-21,-41,2
5708.951,305,-28,16320,-2376,-21,-41,2
5708.951,306,-28,16320,-2376,-21,-41,2
5708.951,306,-28,16320,-2376,-21,-41,2
5717.151999999999,307,-28,16320,-2376,-21,-41,2
5717.151999999999,308,-24,16312,-2396,-1,-37,-23
5720.506,308,-24,16312,-2396,-1,-37,-23
5725.563,308,-24,16312,-2396,-1,-37,-23
5725.563,308,-24,16312,-2396,-1,-37,-23
5729.9439999999995,308,-24,16312,-2396,-1,-37,-23
5733.723,308,-24,16312,-2396,-1,-37,-23
5733.723,308,-24,16312,-2396,-1,-37,-23
5733.723,309,-32,16288,-2372,-41,-41,-4
5741.707,308,-32,16288,-2372,-41,-41,-4
5741.707,308,-32,16288,-2372,-41,-41,-4
5741.707,308,-32,16288,-2372,-41,-41,-4
5749.842000000001,309,-32,16288,-2372,-41,-41,-4
5753.6269999999995,310,-32,16288,-2372,-41,-41,-4
5754.525000000001,309,-32,16288,-2372,-41,-41,-4
5758.084,309,0,16296,-2388,-57,-43,-11
5758.084,309,0,16296,-2388,-57,-43,-11
5758.084,309,0,16296,-2388,-57,-43,-11
5766.326,310,0,16296,-2388,-57,-43,-11
5767.2080000000005,310,0,16296,-2388,-57,-43,-11
5770.619,309,0,16296,-2388,-57,-43,-11
5774.438,308,0,16296,-2388,-57,-43,-11
5774.438,309,0,16296,-2388,-57,-43,-11
5774.438,309,-20,16272,-2380,-45,-58,-28
5782.584,309,-20,16272,-2380,-45,-58,-28
5786.345,310,-20,16272,-2380,-45,-58,-28
5786.898,310,-20,16272,-2380,-45,-58,-28
5790.971,310,-20,16272,-2380,-45,-58,-28
5790.971,312,-20,16272,-2380,-45,-58,-28
5790.971,311,-20,16272,-2380,-45,-58,-28
5799.061,312,28,16320,-2408,-7,-59,-5
5799.061,312,28,16320,-2408,-7,-59,-5
5803.558,313,28,16320,-2408,-7,-59,-5
5807.382,312,28,16320,-2408,-7,-59,-5
5807.382,312,28,16320,-2408,-7,-59,-5
5807.382,313,28,16320,-2408,-7,-59,-5
5815.417,312,28,16320,-2408,-7,-59,-5
5816.427,314,28,16320,-2408,-7,-59,-5
5817.132,313,-40,16372,-2368,-32,-45,2
5823.74,312,-40,16372,-2368,-32,-45,2
5823.74,312,-40,16372,-2368,-32,-45,2
5823.74,312,-40,16372,-2368,-32,-45,2
5831.875,313,-40,16372,-2368,-32,-45,2
5831.875,312,-40,16372,-2368,-32,-45,2
5831.875,313,-40,16372,-2368,-32,-45,2
5839.9619999999995,313,20,16256,-2360,-41,-41,-9
5839.9619999999995,312,20,16256,-2360,-41,-41,-9
5839.9619999999995,311,20,16256,-2360,-41,-41,-9
5839.9619999999995,311,20,16256,-2360,-41,-41,-9
5848.313,311,20,16256,-2360,-41,-41,-9
5848.313,312,20,16256,-2360,-41,-41,-9
5853.781,312,20,16256,-2360,-41,-41,-9
5856.845,312,20,16256,-2360,-41,-41,-9
5856.845,312,-4,16316,-2404,-13,-45,-9
5856.845,311,-4,16316,-2404,-13,-45,-9
5856.845,311,-4,16316,-2404,-13,-45,-9
5865.258,312,-4,16316,-2404,-13,-45,-9
5872.071,312,-4,16316,-2404,-13,-45,-9
5873.692,312,-4,16316,-2404,-13,-45,-9
5873.692,311,-4,16316,-2404,-13,-45,-9
5873.692,311,12,16352,-2388,-19,-28,8
5873.692,310,12,16352,-2388,-19,-28,8
5881.925,311,12,16352,-2388,-19,-28,8
5881.925,311,12,16352,-2388,-19,-28,8
5889.271,311,12,16352,-2388,-19,-28,8
5889.271,311,12,16352,-2388,-19,-28,8
5890.28,312,12,16352,-2388,-19,-28,8
5890.28,312,12,16352,-2388,-19,-28,8
5890.28,311,-48,16336,-2352,-38,-24,-8
5901.687,311,-48,16336,-2352,-38,-24,-8
5903.389,310,-48,16336,-2352,-38,-24,-8
5903.389,311,-48,16336,-2352,-38,-24,-8
5909.512000000001,311,-48,16336,-2352,-38,-24,-8
5909.512000000001,311,-48,16336,-2352,-38,-24,-8
5914.79,311,-48,16336,-2352,-38,-24,-8
5917.851,311,-4,16312,-2376,-33,-49,-9
5917.851,311,-4,16312,-2376,-33,-49,-9
5922.252,311,-4,16312,-2376,-33,-49,-9
5926.027999999999,311,-4,16312,-2376,-33,-49,-9
5930.225,311,-4,16312,-2376,-33,-49,-9
5930.225,311,-4,16312,-2376,-33,-49,-9
5931.733,311,-4,16312,-2376,-33,-49,-9
5936.719,311,-4,16312,-2376,-33,-49,-9
5938.881,311,-12,16296,-2344,-23,-38,-5
5942.610000000001,312,-12,16296,-2344,-23,-38,-5
5942.610000000001,311,-12,16296,-2344,-23,-38,-5
5942.610000000001,312,-12,16296,-2344,-23,-38,-5
5948.237,312,-12,16296,-2344,-23,-38,-5
5955.402,312,-12,16296,-2344,-23,-38,-5
5956.588,312,-12,16296,-2344,-23,-38,-5
5958.812,312,-8,16296,-2368,-24,-24,-23
5958.812,312,-8,16296,-2368,-24,-24,-23
5958.812,313,-8,16296,-2368,-24,-24,-23
5966.99,312,-8,16296,-2368,-24,-24,-23
5971.424,312,-8,16296,-2368,-24,-24,-23
5973.023999999999,313,-8,16296,-2368,-24,-24,-23
5975.183,312,-8,16296,-2368,-24,-24,-23
5979.1359999999995,313,44,16344,-2332,-40,-41,-2
5979.1359999999995,312,44,16344,-2332,-40,-41,-2
5983.387,311,44,16344,-2332,-40,-41,-2
5988.094,311,44,16344,-2332,-40,-41,-2
5988.094,311,44,16344,-2332,-40,-41,-2
5991.522,311,44,16344,-2332,-40,-41,-2
5991.522,311,44,16344,-2332,-40,-41,-2
5991.522,312,44,16344,-2332,-40,-41,-2
5999.7429999999995,311,-24,16316,-2436,-26,-51,-6
6003.969,312,-24,16316,-2436,-26,-51,-6
6004.870999999999,312,-24,16316,-2436,-26,-51,-6
6007.9349999999995,311,-24,16316,-2436,-26,-51,-6
6007.9349999999995,311,-24,16316,-2436,-26,-51,-6
6007.9349999999995,311,-24,16316,-2436,-26,-51,-6
6016.134,311,-24,16316,-2436,-26,-51,-6
6021.268,311,-16,16336,-2320,-52,-28,-13
6021.268,312,-16,16336,-2320,-52,-28,-13
6024.313,311,-16,16336,-2320,-52,-28,-13
6027.894,311,-16,16336,-2320,-52,-28,-13
6027.894,312,-16,16336,-2320,-52,-28,-13
6032.548000000001,312,-16,16336,-2320,-52,-28,-13
6032.548000000001,312,-16,16336,-2320,-52,-28,-13
6037.726000000001,313,24,16316,-2372,-9,-41,-18
6040.874,312,24,16316,-2372,-9,-41,-18
6044.692,312,24,16316,-2372,-9,-41,-18
6044.692,311,24,16316,-2372,-9,-41,-18
6048.95,313,24,16316,-2372,-9,-41,-18
6048.95,312,24,16316,-2372,-9,-41,-18
6054.044,313,24,16316,-2372,-9,-41,-18
6057.057000000001,312,24,16316,-2372,-9,-41,-18
6057.057000000001,312,16,16380,-2376,-67,-42,-1
6057.057000000001,311,16,16380,-2376,-67,-42,-1
6065.364,312,16,16380,-2376,-67,-42,-1
6069.927,312,16,16380,-2376,-67,-42,-1
6069.927,312,16,16380,-2376,-67,-42,-1
6073.726,313,16,16380,-2376,-67,-42,-1
6076.943,313,16,16380,-2376,-67,-42,-1
6076.943,312,8,16300,-2384,-24,-27,4
6076.943,311,8,16300,-2384,-24,-27,4
6082.229,312,8,16300,-2384,-24,-27,4
6086.352,311,8,16300,-2384,-24,-27,4
6086.352,312,8,16300,-2384,-24,-27,4
6090.377,313,8,16300,-2384,-24,-27,4
6090.377,312,8,16300,-2384,-24,-27,4
6090.377,312,8,16300,-2384,-24,-27,4
6090.377,312,0,16292,-2340,-47,-49,-1
6101.773999999999,311,0,16292,-2340,-47,-49,-1
6101.773999999999,311,0,16292,-2340,-47,-49,-1
6105.972000000001,311,0,16292,-2340,-47,-49,-1
6109.006,311,0,16292,-2340,-47,-49,-1
6109.006,312,0,16292,-2340,-47,-49,-1
6109.006,313,0,16292,-2340,-47,-49,-1
6117.96,314,0,16292,-2340,-47,-49,-1
6117.96,313,-4,16340,-2360,-28,-47,-5
6122.119,312,-4,16340,-2360,-28,-47,-5
6122.119,312,-4,16340,-2360,-28,-47,-5
6123.857,312,-4,16340,-2360,-28,-47,-5
6130.431,312,-4,16340,-2360,-28,-47,-5
6130.431,311,-4,16340,-2360,-28,-47,-5
6132.182000000001,312,-4,16340,-2360,-28,-47,-5
6136.192999999999,312,8,16300,-2360,-51,-37,-2
6139.875,312,8,16300,-2360,-51,-37,-2
6139.875,313,8,16300,-2360,-51,-37,-2
6139.875,313,8,16300,-2360,-51,-37,-2
6139.875,313,8,16300,-2360,-51,-37,-2
6151.360000000001,312,8,16300,-2360,-51,-37,-2
6151.360000000001,313,8,16300,-2360,-51,-37,-2
6151.360000000001,314,8,16300,-2360,-51,-37,-2
6159.492,312,-12,16304,-2400,-14,-35,-4
6159.492,312,-12,16304,-2400,-14,-35,-4
6159.492,311,-12,16304,-2400,-14,-35,-4
6164.813,311,-12,16304,-2400,-14,-35,-4
6164.813,310,-12,16304,-2400,-14,-35,-4
6172.362999999999,311,-12,16304,-2400,-14,-35,-4
6175.852,311,-12,16304,-2400,-14,-35,-4
6175.852,311,-12,16304,-2400,-14,-35,-4
6180.592,311,-28,16236,-2380,-45,-35,-9
6180.592,310,-28,16236,-2380,-45,-35,-9
6180.592,310,-28,16236,-2380,-45,-35,-9
6188.917,311,-28,16236,-2380,-45,-35,-9
6192.231,310,-28,16236,-2380,-45,-35,-9
6192.231,310,-28,16236,-2380,-45,-35,-9
6197.892000000001,310,-28,16236,-2380,-45,-35,-9
6199.844,310,-20,16344,-2384,4,-55,-8
6202.909,309,-20,16344,-2384,4,-55,-8
6204.576999999999,310,-20,16344,-2384,4,-55,-8
6204.576999999999,310,-20,16344,-2384,4,-55,-8
6204.576999999999,310,-20,16344,-2384,4,-55,-8
6212.741,311,-20,16344,-2384,4,-55,-8
6217.0,310,-20,16344,-2384,4,-55,-8
6217.0,310,-20,16344,-2384,4,-55,-8
6221.07,311,0,16316,-2368,-48,-48,-8
6225.023,311,0,16316,-2368,-48,-48,-8
6225.023,310,0,16316,-2368,-48,-48,-8
6229.456,309,0,16316,-2368,-48,-48,-8
6230.468,310,0,16316,-2368,-48,-48,-8
6233.403,310,0,16316,-2368,-48,-48,-8
6237.673,310,0,16316,-2368,-48,-48,-8
6237.673,311,-8,16340,-2400,-18,-43,-15
6241.407,311,-8,16340,-2400,-18,-43,-15
6245.947,311,-8,16340,-2400,-18,-43,-15
6245.947,310,-8,16340,-2400,-18,-43,-15
6245.947,311,-8,16340,-2400,-18,-43,-15
6253.974,311,-8,16340,-2400,-18,-43,-15
6253.974,311,-8,16340,-2400,-18,-43,-15
6255.985,311,-8,16340,-2400,-18,-43,-15
6262.358,310,-60,16320,-2376,-54,-39,-7
6262.358,309,-60,16320,-2376,-54,-39,-7
6262.358,310,-60,16320,-2376,-54,-39,-7
6270.743,311,-60,16320,-2376,-54,-39,-7
6270.743,310,-60,16320,-2376,-54,-39,-7
6270.743,310,-60,16320,-2376,-54,-39,-7
6270.743,311,-60,16320,-2376,-54,-39,-7
6279.152,311,24,16344,-2304,-19,-27,-9
6282.357,310,24,16344,-2304,-19,-27,-9
6286.468,310,24,16344,-2304,-19,-27,-9
6287.607999999999,310,24,16344,-2304,-19,-27,-9
6289.6179999999995,310,24,16344,-2304,-19,-27,-9
6289.6179999999995,311,24,16344,-2304,-19,-27,-9
6295.426,311,24,16344,-2304,-19,-27,-9
6295.426,310,-32,16328,-2376,-45,-59,-16
6303.168000000001,311,-32,16328,-2376,-45,-59,-16
6305.1539999999995,309,-32,16328,-2376,-45,-59,-16
6306.225,309,-32,16328,-2376,-45,-59,-16
6307.844,310,-32,16328,-2376,-45,-59,-16
6312.610000000001,311,-32,16328,-2376,-45,-59,-16
6315.116,311,-32,16328,-2376,-45,-59,-16
6319.762,310,16,16364,-2376,-33,-42,7
6319.762,311,16,16364,-2376,-33,-42,7
6323.402,310,16,16364,-2376,-33,-42,7
6323.402,310,16,16364,-2376,-33,-42,7
6327.962,309,16,16364,-2376,-33,-42,7
6330.731,308,16,16364,-2376,-33,-42,7
6336.33,309,16,16364,-2376,-33,-42,7
6338.343,310,16,16364,-2376,-33,-42,7
6338.343,309,-20,16340,-2372,-28,-46,16
6338.343,309,-20,16340,-2372,-28,-46,16
6344.5,309,-20,16340,-2372,-28,-46,16
6346.085,308,-20,16340,-2372,-28,-46,16
6346.085,309,-20,16340,-2372,-28,-46,16
6352.6410000000005,310,-20,16340,-2372,-28,-46,16
6354.317,309,-20,16340,-2372,-28,-46,16
6358.176,310,68,16272,-2336,-24,-10,-9
6360.976,309,68,16272,-2336,-24,-10,-9
6360.976,309,68,16272,-2336,-24,-10,-9
6360.976,309,68,16272,-2336,-24,-10,-9
6369.377,310,68,16272,-2336,-24,-10,-9
6370.546,310,68,16272,-2336,-24,-10,-9
6370.546,310,68,16272,-2336,-24,-10,-9
6377.626,310,68,16272,-2336,-24,-10,-9
6380.620000000001,309,60,16404,-2400,-36,-55,-4
6380.620000000001,309,60,16404,-2400,-36,-55,-4
6380.620000000001,309,60,16404,-2400,-36,-55,-4
6387.93,309,60,16404,-2400,-36,-55,-4
6389.941000000001,310,60,16404,-2400,-36,-55,-4
6392.9580000000005,309,60,16404,-2400,-36,-55,-4
6393.978,310,60,16404,-2400,-36,-55,-4
6393.978,309,-28,16288,-2356,-16,-28,-9
6393.978,309,-28,16288,-2356,-16,-28,-9
6404.217,309,-28,16288,-2356,-16,-28,-9
6404.217,310,-28,16288,-2356,-16,-28,-9
6409.328,309,-28,16288,-2356,-16,-28,-9
6413.463,310,-28,16288,-2356,-16,-28,-9
6413.463,309,-28,16288,-2356,-16,-28,-9
6413.463,310,-28,16288,-2356,-16,-28,-9
6420.7429999999995,309,-32,16304,-2368,-40,-60,-6
6420.7429999999995,309,-32,16304,-2368,-40,-60,-6
6424.928000000001,309,-32,16304,-2368,-40,-60,-6
6429.758,309,-32,16304,-2368,-40,-60,-6
6430.7660000000005,310,-32,16304,-2368,-40,-60,-6
6433.885,310,-32,16304,-2368,-40,-60,-6
6437.772,310,-32,16304,-2368,-40,-60,-6
6437.772,309,20,16320,-2356,-24,-37,-6
6442.123,309,20,16320,-2356,-24,-37,-6
6445.884,309,20,16320,-2356,-24,-37,-6
6445.884,308,20,16320,-2356,-24,-37,-6
6447.8910000000005,308,20,16320,-2356,-24,-37,-6
6454.326,308,20,16320,-2356,-24,-37,-6
6455.679,308,20,16320,-2356,-24,-37,-6
6455.679,308,20,16320,-2356,-24,-37,-6
6460.767,309,-8,16312,-2408,-52,-30,-5
6460.767,308,-8,16312,-2408,-52,-30,-5
6460.767,309,-8,16312,-2408,-52,-30,-5
6469.68,308,-8,16312,-2408,-52,-30,-5
6471.69,309,-8,16312,-2408,-52,-30,-5
6474.75,308,-8,16312,-2408,-52,-30,-5
6478.963000000001,309,-8,16312,-2408,-52,-30,-5
6478.963000000001,309,-24,16244,-2364,-53,-27,-11
6483.0509999999995,309,-24,16244,-2364,-53,-27,-11
6486.844999999999,308,-24,16244,-2364,-53,-27,-11
6488.9619999999995,309,-24,16244,-2364,-53,-27,-11
6491.29,309,-24,16244,-2364,-53,-27,-11
6493.758,310,-24,16244,-2364,-53,-27,-11
6493.758,309,-24,16244,-2364,-53,-27,-11
6499.443,309,0,16292,-2376,-15,-43,-12
6505.052,309,0,16292,-2376,-15,-43,-12
6505.052,310,0,16292,-2376,-15,-43,-12
6505.052,309,0,16292,-2376,-15,-43,-12
6510.466,309,0,16292,-2376,-15,-43,-12
6510.466,309,0,16292,-2376,-15,-43,-12
6515.629,309,0,16292,-2376,-15,-43,-12
6520.787,310,0,16292,-2376,-15,-43,-12
6520.787,309,-24,16332,-2364,-39,-37,-18
6524.022000000001,309,-24,16332,-2364,-39,-37,-18
6527.166,309,-24,16332,-2364,-39,-37,-18
6527.166,309,-24,16332,-2364,-39,-37,-18
6532.689,309,-24,16332,-2364,-39,-37,-18
6538.107,309,-24,16332,-2364,-39,-37,-18
6540.369,309,-24,16332,-2364,-39,-37,-18
6540.369,308,-8,16348,-2380,-38,-38,-8
6542.453,309,-8,16348,-2380,-38,-38,-8
6544.841,308,-8,16348,-2380,-38,-38,-8
6546.847,308,-8,16348,-2380,-38,-38,-8
6550.628,308,-8,16348,-2380,-38,-38,-8
6554.54,308,-8,16348,-2380,-38,-38,-8
6556.804999999999,309,-8,16348,-2380,-38,-38,-8
6559.700000000001,309,-32,16372,-2392,-42,-47,-10
6559.700000000001,308,-32,16372,-2392,-42,-47,-10
6559.700000000001,308,-32,16372,-2392,-42,-47,-10
6568.007,308,-32,16372,-2392,-42,-47,-10
6570.02,309,-32,16372,-2392,-42,-47,-10
6570.02,308,-32,16372,-2392,-42,-47,-10
6576.463000000001,309,-32,16372,-2392,-42,-47,-10
6580.414,309,16,16304,-2384,-17,-36,-7
6580.414,308,16,16304,-2384,-17,-36,-7
6584.771,308,16,16304,-2384,-17,-36,-7
6586.423,308,16,16304,-2384,-17,-36,-7
6590.242,308,16,16304,-2384,-17,-36,-7
6593.406,308,16,16304,-2384,-17,-36,-7
6593.406,308,16,16304,-2384,-17,-36,-7
6597.769,309,16,16304,-2384,-17,-36,-7
6601.8730000000005,308,4,16308,-2368,-34,-41,1
6604.109,307,4,16308,-2368,-34,-41,1
6604.109,308,4,16308,-2368,-34,-41,1
6609.186000000001,307,4,16308,-2368,-34,-41,1
6610.191000000001,308,4,16308,-2368,-34,-41,1
6610.191000000001,308,4,16308,-2368,-34,-41,1
6610.191000000001,308,4,16308,-2368,-34,-41,1
6617.903,308,4,16308,-2368,-34,-41,1
6619.818,308,4,16348,-2336,-42,-44,-40
6619.818,308,4,16348,-2336,-42,-44,-40
6625.9839999999995,308,4,16348,-2336,-42,-44,-40
6625.9839999999995,308,4,16348,-2336,-42,-44,-40
6631.0,308,4,16348,-2336,-42,-44,-40
6634.187,308,4,16348,-2336,-42,-44,-40
6636.552,308,4,16348,-2336,-42,-44,-40
6636.552,308,4,16272,-2392,-37,-42,-10
6642.712,308,4,16272,-2392,-37,-42,-10
6642.712,307,4,16272,-2392,-37,-42,-10
6642.712,308,4,16272,-2392,-37,-42,-10
6651.197,307,4,16272,-2392,-37,-42,-10
6651.197,308,4,16272,-2392,-37,-42,-10
6655.082,308,4,16272,-2392,-37,-42,-10
6655.082,309,4,16272,-2392,-37,-42,-10
6659.461,309,-4,16280,-2360,-39,-35,8
6659.461,308,-4,16280,-2360,-39,-35,8
6659.461,308,-4,16280,-2360,-39,-35,8
6667.497,308,-4,16280,-2360,-39,-35,8
6669.527999999999,308,-4,16280,-2360,-39,-35,8
6675.785,308,-4,16280,-2360,-39,-35,8
6675.785,309,-4,16280,-2360,-39,-35,8
6679.701,309,-4,16280,-2360,-39,-35,8
6679.701,309,-8,16348,-2380,-17,-44,-10
6683.992,308,-8,16348,-2380,-17,-44,-10
6686.138,308,-8,16348,-2380,-17,-44,-10
6692.013,308,-8,16348,-2380,-17,-44,-10
6692.013,308,-8,16348,-2380,-17,-44,-10
6696.077,309,-8,16348,-2380,-17,-44,-10
6700.303,309,-8,16348,-2380,-17,-44,-10
6700.303,309,-8,16372,-2372,-47,-35,-24
6703.116,309,-8,16372,-2372,-47,-35,-24
6708.273,308,-8,16372,-2372,-47,-35,-24
6708.273,309,-8,16372,-2372,-47,-35,-24
6712.447,308,-8,16372,-2372,-47,-35,-24
6716.629,308,-8,16372,-2372,-47,-35,-24
6716.629,308,-8,16372,-2372,-47,-35,-24
6720.103,309,0,16264,-2328,-32,-31,-10
6722.12,308,0,16264,-2328,-32,-31,-10
6725.076999999999,308,0,16264,-2328,-32,-31,-10
6728.842000000001,308,0,16264,-2328,-32,-31,-10
6728.842000000001,308,0,16264,-2328,-32,-31,-10
6733.096,309,0,16264,-2328,-32,-31,-10
6737.267,308,0,16264,-2328,-32,-31,-10
6737.267,309,0,16264,-2328,-32,-31,-10
6741.3369999999995,308,-4,16300,-2404,-34,-23,-17
6743.945,309,-4,16300,-2404,-34,-23,-17
6743.945,308,-4,16300,-2404,-34,-23,-17
6743.945,308,-4,16300,-2404,-34,-23,-17
6752.836,309,-4,16300,-2404,-34,-23,-17
6755.2919999999995,308,-4,16300,-2404,-34,-23,-17
6755.876,309,-4,16300,-2404,-34,-23,-17
6761.667,309,-40,16416,-2372,-2,-43,-17
6761.667,309,-40,16416,-2372,-2,-43,-17
6766.2300000000005,308,-40,16416,-2372,-2,-43,-17
6770.71,308,-40,16416,-2372,-2,-43,-17
6773.867,308,-40,16416,-2372,-2,-43,-17
6773.867,308,-40,16416,-2372,-2,-43,-17
6773.867,309,-40,16416,-2372,-2,-43,-17
6782.161999999999,309,12,16368,-2380,-59,-49,-4
6782.161999999999,309,12,16368,-2380,-59,-49,-4
6785.62,309,12,16368,-2380,-59,-49,-4
6788.616,309,12,16368,-2380,-59,-49,-4
6790.353999999999,309,12,16368,-2380,-59,-49,-4
6794.37,309,12,16368,-2380,-59,-49,-4
6794.37,309,12,16368,-2380,-59,-49,-4
6798.453,308,12,16368,-2380,-59,-49,-4
6798.453,309,12,16304,-2380,-39,-48,-24
6803.715999999999,309,12,16304,-2380,-39,-48,-24
6805.9710000000005,309,12,16304,-2380,-39,-48,-24
6810.183999999999,308,12,16304,-2380,-39,-48,-24
6812.192999999999,309,12,16304,-2380,-39,-48,-24
6814.2,308,12,16304,-2380,-39,-48,-24
6818.215999999999,309,12,16304,-2380,-39,-48,-24
6818.215999999999,309,0,16328,-2344,-46,-26,-2
6822.632,309,0,16328,-2344,-46,-26,-2
6826.8279999999995,309,0,16328,-2344,-46,-26,-2
6826.8279999999995,309,0,16328,-2344,-46,-26,-2
6831.086,308,0,16328,-2344,-46,-26,-2
6835.098999999999,307,0,16328,-2344,-46,-26,-2
6835.098999999999,307,0,16328,-2344,-46,-26,-2
6842.881,307,0,16328,-2344,-46,-26,-2
6842.881,307,-40,16376,-2408,-21,-27,-5
6842.881,307,-40,16376,-2408,-21,-27,-5
6846.4130000000005,308,-40,16376,-2408,-21,-27,-5
6850.969,308,-40,16376,-2408,-21,-27,-5
6850.969,308,-40,16376,-2408,-21,-27,-5
6854.69,309,-40,16376,-2408,-21,-27,-5
6854.69,309,-40,16376,-2408,-21,-27,-5
6854.69,308,-8,16308,-2380,-50,-45,-8
6863.1359999999995,309,-8,16308,-2380,-50,-45,-8
6863.1359999999995,309,-8,16308,-2380,-50,-45,-8
6863.1359999999995,309,-8,16308,-2380,-50,-45,-8
6871.829,308,-8,16308,-2380,-50,-45,-8
6871.829,309,-8,16308,-2380,-50,-45,-8
6871.829,308,-8,16308,-2380,-50,-45,-8
6880.396,308,-8,16308,-2380,-50,-45,-8
6880.996,309,-8,16308,-2284,-28,-25,-10
6880.996,309,-8,16308,-2284,-28,-25,-10
6887.987,309,-8,16308,-2284,-28,-25,-10
6887.987,309,-8,16308,-2284,-28,-25,-10
6887.987,308,-8,16308,-2284,-28,-25,-10
6896.461,310,-8,16308,-2284,-28,-25,-10
6896.461,309,-8,16308,-2284,-28,-25,-10
6896.461,309,0,16344,-2396,-23,-24,-7
6904.651999999999,308,0,16344,-2396,-23,-24,-7
6904.651999999999,309,0,16344,-2396,-23,-24,-7
6907.308,308,0,16344,-2396,-23,-24,-7
6912.9529999999995,309,0,16344,-2396,-23,-24,-7
6912.9529999999995,309,0,16344,-2396,-23,-24,-7
6915.122,309,0,16344,-2396,-23,-24,-7
6921.0599999999995,309,0,16344,-2396,-23,-24,-7
6921.0599999999995,308,-92,16316,-2376,-40,-40,-7
6924.123,309,-92,16316,-2376,-40,-40,-7
6929.44,309,-92,16316,-2376,-40,-40,-7
6930.962,309,-92,16316,-2376,-40,-40,-7
6930.962,309,-92,16316,-2376,-40,-40,-7
6937.849,309,-92,16316,-2376,-40,-40,-7
6938.815,309,-92,16316,-2376,-40,-40,-7
6938.815,309,-20,16296,-2344,-37,-62,-23
6942.735,309,-20,16296,-2344,-37,-62,-23
6947.2480000000005,308,-20,16296,-2344,-37,-62,-23
6947.2480000000005,309,-20,16296,-2344,-37,-62,-23
6947.2480000000005,310,-20,16296,-2344,-37,-62,-23
6954.567,309,-20,16296,-2344,-37,-62,-23
6954.567,309,-20,16296,-2344,-37,-62,-23
6962.692,308,0,16276,-2368,-47,-44,-7
6962.692,308,0,16276,-2368,-47,-44,-7
6962.692,307,0,16276,-2368,-47,-44,-7
6962.692,308,0,16276,-2368,-47,-44,-7
6970.796,308,0,16276,-2368,-47,-44,-7
6974.624000000001,309,0,16276,-2368,-47,-44,-7
6974.624000000001,308,0,16276,-2368,-47,-44,-7
6978.902,308,0,16276,-2368,-47,-44,-7
6980.933,308,44,16328,-2356,18,-50,-26
6980.933,308,44,16328,-2356,18,-50,-26
6987.032,307,44,16328,-2356,18,-50,-26
6987.032,308,44,16328,-2356,18,-50,-26
6987.032,308,44,16328,-2356,18,-50,-26
6995.128000000001,308,44,16328,-2356,18,-50,-26
6996.32,309,44,16328,-2356,18,-50,-26
6996.32,309,-12,16352,-2336,-55,-54,-21
7003.226,307,-12,16352,-2336,-55,-54,-21
7003.226,308,-12,16352,-2336,-55,-54,-21
7003.226,308,-12,16352,-2336,-55,-54,-21
7011.736,308,-12,16352,-2336,-55,-54,-21
7011.736,308,-12,16352,-2336,-55,-54,-21
7019.615,308,-12,16352,-2336,-55,-54,-21
7020.491,307,-28,16328,-2336,-26,-19,-14
7020.491,308,-28,16328,-2336,-26,-19,-14
7028.063999999999,308,-28,16328,-2336,-26,-19,-14
7028.744,308,-28,16328,-2336,-26,-19,-14
7031.306,308,-28,16328,-2336,-26,-19,-14
7036.251,308,-28,16328,-2336,-26,-19,-14
7036.251,309,-28,16328,-2336,-26,-19,-14
7036.251,308,-12,16296,-2372,-57,-66,-19
7044.279,308,-12,16296,-2372,-57,-66,-19
7044.279,309,-12,16296,-2372,-57,-66,-19
7044.279,308,-12,16296,-2372,-57,-66,-19
7052.522,309,-12,16296,-2372,-57,-66,-19
7053.8550000000005,309,-12,16296,-2372,-57,-66,-19
7053.8550000000005,309,-12,16296,-2372,-57,-66,-19
7060.661999999999,308,-16,16356,-2304,-35,-37,-14
7060.661999999999,307,-16,16356,-2304,-35,-37,-14
7060.661999999999,308,-16,16356,-2304,-35,-37,-14
7068.838000000001,308,-16,16356,-2304,-35,-37,-14
7072.5509999999995,308,-16,16356,-2304,-35,-37,-14
7073.668,308,-16,16356,-2304,-35,-37,-14
7077.094,308,-16,16356,-2304,-35,-37,-14
7077.094,308,-16,16356,-2304,-35,-37,-14
7077.094,308,16,16320,-2376,-24,-39,-10
7085.397999999999,308,16,16320,-2376,-24,-39,-10
7085.397999999999,308,16,16320,-2376,-24,-39,-10
7085.397999999999,309,16,16320,-2376,-24,-39,-10
7093.745,308,16,16320,-2376,-24,-39,-10
7093.745,308,16,16320,-2376,-24,-39,-10
7093.745,309,16,16320,-2376,-24,-39,-10
7101.791,308,-32,16320,-2376,-58,-52,9
7101.791,309,-32,16320,-2376,-58,-52,9
7101.791,308,-32,16320,-2376,-58,-52,9
7110.182,308,-32,16320,-2376,-58,-52,9
7110.182,308,-32,16320,-2376,-58,-52,9
7110.182,309,-32,16320,-2376,-58,-52,9
7118.622,308,-32,16320,-2376,-58,-52,9
7120.254,308,20,16300,-2360,-25,-18,-4
7120.254,308,20,16300,-2360,-25,-18,-4
7126.929999999999,308,20,16300,-2360,-25,-18,-4
7130.237,309,20,16300,-2360,-25,-18,-4
7131.662,308,20,16300,-2360,-25,-18,-4
7131.662,309,20,16300,-2360,-25,-18,-4
7137.375,309,20,16300,-2360,-25,-18,-4
7137.375,309,20,16300,-2360,-25,-18,-4
7137.375,308,20,16364,-2364,-33,-35,-18
7145.298000000001,308,20,16364,-2364,-33,-35,-18
7145.298000000001,308,20,16364,-2364,-33,-35,-18
7145.298000000001,308,20,16364,-2364,-33,-35,-18
7153.46,308,20,16364,-2364,-33,-35,-18
7153.46,309,20,16364,-2364,-33,-35,-18
7153.46,308,20,16364,-2364,-33,-35,-18
7160.351000000001,308,8,16340,-2364,-18,-45,-7
7160.351000000001,308,8,16340,-2364,-18,-45,-7
7160.351000000001,308,8,16340,-2364,-18,-45,-7
7170.018,307,8,16340,-2364,-18,-45,-7
7170.018,307,8,16340,-2364,-18,-45,-7
7170.018,308,8,16340,-2364,-18,-45,-7
7170.018,309,8,16340,-2364,-18,-45,-7
7176.692,308,8,16340,-2364,-18,-45,-7
7176.692,309,16,16348,-2328,-38,-46,-13
7176.692,307,16,16348,-2328,-38,-46,-13
7188.0740000000005,308,16,16348,-2328,-38,-46,-13
7191.6900000000005,309,16,16348,-2328,-38,-46,-13
7191.6900000000005,308,16,16348,-2328,-38,-46,-13
7193.273999999999,308,16,16348,-2328,-38,-46,-13
7193.273999999999,308,16,16348,-2328,-38,-46,-13
7193.273999999999,308,-24,16300,-2376,-50,-44,-10
7204.411,308,-24,16300,-2376,-50,-44,-10
7204.411,308,-24,16300,-2376,-50,-44,-10
7212.128,307,-24,16300,-2376,-50,-44,-10
7212.128,307,-24,16300,-2376,-50,-44,-10
7215.951999999999,308,-24,16300,-2376,-50,-44,-10
7220.964,307,-24,16300,-2376,-50,-44,-10
7221.481,307,-20,16340,-2376,-29,-30,-21
7224.461,308,-20,16340,-2376,-29,-30,-21
7227.275,307,-20,16340,-2376,-29,-30,-21
7227.275,307,-20,16340,-2376,-29,-30,-21
7232.018,308,-20,16340,-2376,-29,-30,-21
7237.705,308,-20,16340,-2376,-29,-30,-21
7238.072,308,-20,16340,-2376,-29,-30,-21
7238.072,308,-8,16332,-2388,-26,-41,-22
7244.922,307,-8,16332,-2388,-26,-41,-22
7246.035,307,-8,16332,-2388,-26,-41,-22
7246.035,307,-8,16332,-2388,-26,-41,-22
7253.871,308,-8,16332,-2388,-26,-41,-22
7255.882,308,-8,16332,-2388,-26,-41,-22
7255.882,309,-8,16332,-2388,-26,-41,-22
7261.557,308,-8,16332,-2388,-26,-41,-22
7261.557,308,-36,16404,-2332,-51,-55,-13
7261.557,308,-36,16404,-2332,-51,-55,-13
7268.76,307,-36,16404,-2332,-51,-55,-13
7273.3460000000005,307,-36,16404,-2332,-51,-55,-13
7273.3460000000005,308,-36,16404,-2332,-51,-55,-13
7277.129000000001,307,-36,16404,-2332,-51,-55,-13
7279.137000000001,308,-36,16404,-2332,-51,-55,-13
7279.137000000001,309,-44,16300,-2364,-35,-40,-22
7285.633,308,-44,16300,-2364,-35,-40,-22
7289.162,307,-44,16300,-2364,-35,-40,-22
7289.162,308,-44,16300,-2364,-35,-40,-22
7295.111999999999,308,-44,16300,-2364,-35,-40,-22
7298.201,308,-44,16300,-2364,-35,-40,-22
7299.278,308,-44,16300,-2364,-35,-40,-22
7303.023999999999,307,16,16380,-2404,-1,-21,-19
7305.034,307,16,16380,-2404,-1,-21,-19
7305.034,307,16,16380,-2404,-1,-21,-19
7310.709,307,16,16380,-2404,-1,-21,-19
7310.709,307,16,16380,-2404,-1,-21,-19
7310.709,307,16,16380,-2404,-1,-21,-19
7318.836,308,16,16380,-2404,-1,-21,-19
7322.092,308,12,16320,-2372,-53,-57,-19
7323.634,307,12,16320,-2372,-53,-57,-19
7326.875,308,12,16320,-2372,-53,-57,-19
7331.199,307,12,16320,-2372,-53,-57,-19
7332.227,308,12,16320,-2372,-53,-57,-19
7335.045,308,12,16320,-2372,-53,-57,-19
7339.134999999999,308,12,16320,-2372,-53,-57,-19
7339.134999999999,309,-52,16288,-2364,-16,-32,-18
7343.378000000001,307,-52,16288,-2364,-16,-32,-18
7345.385,308,-52,16288,-2364,-16,-32,-18
7350.703,308,-52,16288,-2364,-16,-32,-18
7352.34,307,-52,16288,-2364,-16,-32,-18
7354.921,308,-52,16288,-2364,-16,-32,-18
7356.316,308,-52,16288,-2364,-16,-32,-18
7360.1900000000005,308,-52,16288,-2364,-16,-32,-18
7360.1900000000005,307,-36,16304,-2336,-70,-54,3
7360.1900000000005,308,-36,16304,-2336,-70,-54,3
7368.563,307,-36,16304,-2336,-70,-54,3
7372.615,307,-36,16304,-2336,-70,-54,3
7372.615,307,-36,16304,-2336,-70,-54,3
7376.7339999999995,308,-36,16304,-2336,-70,-54,3
7380.041,308,-36,16304,-2336,-70,-54,3
7382.936,307,4,16312,-2384,-14,-14,6
7386.212,307,4,16312,-2384,-14,-14,6
7388.456,307,4,16312,-2384,-14,-14,6
7388.456,307,4,16312,-2384,-14,-14,6
7388.456,307,4,16312,-2384,-14,-14,6
7396.465,307,4,16312,-2384,-14,-14,6
7396.465,307,4,16312,-2384,-14,-14,6
7396.465,308,4,16312,-2384,-14,-14,6
7401.212,307,8,16332,-2320,-35,-24,-10
7405.232,307,8,16332,-2320,-35,-24,-10
7408.776,308,8,16332,-2320,-35,-24,-10
7408.776,307,8,16332,-2320,-35,-24,-10
7408.776,307,8,16332,-2320,-35,-24,-10
7417.168000000001,308,8,16332,-2320,-35,-24,-10
7417.168000000001,308,8,16332,-2320,-35,-24,-10
7421.045,308,8,16332,-2320,-35,-24,-10
7425.112999999999,307,-24,16348,-2376,-43,-39,-9
7425.112999999999,307,-24,16348,-2376,-43,-39,-9
7430.228999999999,308,-24,16348,-2376,-43,-39,-9
7432.468,307,-24,16348,-2376,-43,-39,-9
7433.473,307,-24,16348,-2376,-43,-39,-9
7439.256,307,-24,16348,-2376,-43,-39,-9
7441.539,308,-24,16348,-2376,-43,-39,-9
7441.539,308,36,16376,-2372,-44,-52,-4
7441.539,308,36,16376,-2372,-44,-52,-4
7450.311,308,36,16376,-2372,-44,-52,-4
7450.821999999999,307,36,16376,-2372,-44,-52,-4
7450.821999999999,307,36,16376,-2372,-44,-52,-4
7457.898,307,36,16376,-2372,-44,-52,-4
7458.8060000000005,308,36,16376,-2372,-44,-52,-4
7461.875,308,20,16300,-2324,0,-43,-9
7461.875,308,20,16300,-2324,0,-43,-9
7466.125,307,20,16300,-2324,0,-43,-9
7470.697999999999,307,20,16300,-2324,0,-43,-9
7472.709,307,20,16300,-2324,0,-43,-9
7474.459000000001,308,20,16300,-2324,0,-43,-9
7478.282,307,20,16300,-2324,0,-43,-9
7478.282,307,20,16300,-2324,0,-43,-9
7482.465999999999,307,-8,16340,-2388,-46,-44,-17
7482.465999999999,307,-8,16340,-2388,-46,-44,-17
7488.2119999999995,306,-8,16340,-2388,-46,-44,-17
7490.834000000001,308,-8,16340,-2388,-46,-44,-17
7490.834000000001,307,-8,16340,-2388,-46,-44,-17
7490.834000000001,308,-8,16340,-2388,-46,-44,-17
7498.911999999999,308,-8,16340,-2388,-46,-44,-17
7500.411,308,-8,16340,-2388,-46,-44,-17
7504.592,308,-48,16332,-2348,-31,-29,-6
7504.592,307,-48,16332,-2348,-31,-29,-6
7507.354,307,-48,16332,-2348,-31,-29,-6
7507.354,307,-48,16332,-2348,-31,-29,-6
7515.570000000001,307,-48,16332,-2348,-31,-29,-6
7517.584,307,-48,16332,-2348,-31,-29,-6
7517.584,309,-48,16332,-2348,-31,-29,-6
7523.945000000001,309,12,16316,-2392,-63,-29,-11
7523.945000000001,307,12,16316,-2392,-63,-29,-11
7523.945000000001,307,12,16316,-2392,-63,-29,-11
7523.945000000001,307,12,16316,-2392,-63,-29,-11
7532.683999999999,308,12,16316,-2392,-63,-29,-11
7537.569,308,12,16316,-2392,-63,-29,-11
7539.968,308,12,16316,-2392,-63,-29,-11
7543.923000000001,307,-4,16264,-2408,-13,-31,0
7543.923000000001,307,-4,16264,-2408,-13,-31,0
7546.129,307,-4,16264,-2408,-13,-31,0
7549.455,307,-4,16264,-2408,-13,-31,0
7551.463,307,-4,16264,-2408,-13,-31,0
7556.068,307,-4,16264,-2408,-13,-31,0
7556.068,308,-4,16264,-2408,-13,-31,0
7560.150000000001,307,-4,16264,-2408,-13,-31,0
7564.373,308,-40,16344,-2376,-34,-45,-20
7564.373,308,-40,16344,-2376,-34,-45,-20
7566.878,308,-40,16344,-2376,-34,-45,-20
7570.206,307,-40,16344,-2376,-34,-45,-20
7574.536,308,-40,16344,-2376,-34,-45,-20
7574.536,308,-40,16344,-2376,-34,-45,-20
7574.536,308,-40,16344,-2376,-34,-45,-20
7582.727,307,-16,16360,-2372,-12,-39,-12
7586.718,307,-16,16360,-2372,-12,-39,-12
7587.589,307,-16,16360,-2372,-12,-39,-12
7591.075,307,-16,16360,-2372,-12,-39,-12
7591.075,307,-16,16360,-2372,-12,-39,-12
7591.075,307,-16,16360,-2372,-12,-39,-12
7599.288,307,-16,16360,-2372,-12,-39,-12
7599.288,307,20,16276,-2364,-36,-44,-29
7605.445,307,20,16276,-2364,-36,-44,-29
7609.447,307,20,16276,-2364,-36,-44,-29
7609.447,306,20,16276,-2364,-36,-44,-29
7609.447,306,20,16276,-2364,-36,-44,-29
7615.694,307,20,16276,-2364,-36,-44,-29
7615.694,307,20,16276,-2364,-36,-44,-29
7620.491999999999,308,8,16264,-2336,-31,-30,-13
7625.619000000001,307,8,16264,-2336,-31,-30,-13
7626.303,307,8,16264,-2336,-31,-30,-13
7626.303,308,8,16264,-2336,-31,-30,-13
7632.802,308,8,16264,-2336,-31,-30,-13
7636.268,307,8,16264,-2336,-31,-30,-13
7637.13,307,8,16264,-2336,-31,-30,-13
7640.939,307,8,16264,-2336,-31,-30,-13
7640.939,308,-4,16396,-2360,-23,-43,2
7640.939,308,-4,16396,-2360,-23,-43,2
7640.939,306,-4,16396,-2360,-23,-43,2
7649.092,307,-4,16396,-2360,-23,-43,2
7649.092,307,-4,16396,-2360,-23,-43,2
7656.589999999999,307,-4,16396,-2360,-23,-43,2
7657.604,307,-4,16396,-2360,-23,-43,2
7657.604,307,-4,16396,-2360,-23,-43,2
7657.604,307,-28,16404,-2356,-32,-49,-6
7666.724,307,-28,16404,-2356,-32,-49,-6
7667.669,307,-28,16404,-2356,-32,-49,-6
7667.669,307,-28,16404,-2356,-32,-49,-6
7674.9349999999995,307,-28,16404,-2356,-32,-49,-6
7675.702,307,-28,16404,-2356,-32,-49,-6
7675.702,308,-28,16404,-2356,-32,-49,-6
7682.079,308,0,16272,-2368,-30,-20,-25
7687.208,306,0,16272,-2368,-30,-20,-25
7688.853,307,0,16272,-2368,-30,-20,-25
7690.464000000001,307,0,16272,-2368,-30,-20,-25
7690.464000000001,307,0,16272,-2368,-30,-20,-25
7690.464000000001,308,0,16272,-2368,-30,-20,-25
7699.131,307,0,16272,-2368,-30,-20,-25
7703.842,308,-24,16340,-2352,-17,-31,0
7705.852,307,-24,16340,-2352,-17,-31,0
7706.361,307,-24,16340,-2352,-17,-31,0
7706.361,307,-24,16340,-2352,-17,-31,0
7706.361,308,-24,16340,-2352,-17,-31,0
7715.899,307,-24,16340,-2352,-17,-31,0
7717.902999999999,308,-24,16340,-2352,-17,-31,0
7720.978999999999,308,-24,16340,-2352,-17,-31,0
7724.107,308,-24,16324,-2364,-52,-39,-29
7726.347,307,-24,16324,-2364,-52,-39,-29
7729.536999999999,308,-24,16324,-2364,-52,-39,-29
7732.845,308,-24,16324,-2364,-52,-39,-29
7736.483,307,-24,16324,-2364,-52,-39,-29
7737.889,308,-24,16324,-2364,-52,-39,-29
7740.438,308,-24,16324,-2364,-52,-39,-29
7740.997,307,20,16320,-2340,-35,-55,-10
7746.3,307,20,16320,-2340,-35,-55,-10
7746.3,307,20,16320,-2340,-35,-55,-10
7746.3,307,20,16320,-2340,-35,-55,-10
7754.540999999999,307,20,16320,-2340,-35,-55,-10
7754.540999999999,308,20,16320,-2340,-35,-55,-10
7757.793000000001,308,20,16320,-2340,-35,-55,-10
7762.92,307,0,16284,-2388,-37,-52,-10
7762.92,306,0,16284,-2388,-37,-52,-10
7762.92,306,0,16284,-2388,-37,-52,-10
7771.244000000001,306,0,16284,-2388,-37,-52,-10
7773.508,307,0,16284,-2388,-37,-52,-10
7777.366,307,0,16284,-2388,-37,-52,-10
7777.366,307,0,16284,-2388,-37,-52,-10
7781.593,308,0,16284,-2388,-37,-52,-10
7781.593,308,-4,16368,-2428,-8,-54,-8
7786.72,307,-4,16368,-2428,-8,-54,-8
7788.242,307,-4,16368,-2428,-8,-54,-8
7790.388,307,-4,16368,-2428,-8,-54,-8
7790.388,308,-4,16368,-2428,-8,-54,-8
7796.485,307,-4,16368,-2428,-8,-54,-8
7796.485,308,-4,16368,-2428,-8,-54,-8
7796.485,308,-4,16368,-2428,-8,-54,-8
7806.053999999999,308,-36,16324,-2336,-17,-39,-21
7806.053999999999,307,-36,16324,-2336,-17,-39,-21
7810.137,307,-36,16324,-2336,-17,-39,-21
7812.109,307,-36,16324,-2336,-17,-39,-21
7812.109,308,-36,16324,-2336,-17,-39,-21
7812.109,307,-36,16324,-2336,-17,-39,-21
7820.133,307,-36,16324,-2336,-17,-39,-21
7820.133,308,-28,16344,-2352,-56,-39,-2
7820.133,307,-28,16344,-2352,-56,-39,-2
7828.379,307,-28,16344,-2352,-56,-39,-2
7833.209,307,-28,16344,-2352,-56,-39,-2
7833.209,308,-28,16344,-2352,-56,-39,-2
7838.048,308,-28,16344,-2352,-56,-39,-2
7838.048,307,-28,16344,-2352,-56,-39,-2
7838.048,307,48,16280,-2352,-43,-21,-6
7845.464,307,48,16280,-2352,-43,-21,-6
7845.464,307,48,16280,-2352,-43,-21,-6
7845.464,308,48,16280,-2352,-43,-21,-6
7854.342,308,48,16280,-2352,-43,-21,-6
7856.358,308,48,16280,-2352,-43,-21,-6
7856.358,308,48,16280,-2352,-43,-21,-6
7861.611,308,-36,16328,-2380,-12,-20,-3
7861.611,307,-36,16328,-2380,-12,-20,-3
7865.894,307,-36,16328,-2380,-12,-20,-3
7872.777,307,-36,16328,-2380,-12,-20,-3
7872.777,308,-36,16328,-2380,-12,-20,-3
7872.777,307,-36,16328,-2380,-12,-20,-3
7879.756,308,-36,16328,-2380,-12,-20,-3
7879.756,308,-36,16328,-2380,-12,-20,-3
7883.899,307,-40,16356,-2340,-38,-52,0
7887.8859999999995,308,-40,16356,-2340,-38,-52,0
7889.893,307,-40,16356,-2340,-38,-52,0
7892.0830000000005,307,-40,16356,-2340,-38,-52,0
7893.979,307,-40,16356,-2340,-38,-52,0
7893.979,308,-40,16356,-2340,-38,-52,0
7893.979,308,-40,16356,-2340,-38,-52,0
7902.638,307,80,16288,-2348,-35,-49,-11
7906.031,307,80,16288,-2348,-35,-49,-11
7906.031,307,80,16288,-2348,-35,-49,-11
7911.603999999999,307,80,16288,-2348,-35,-49,-11
7911.603999999999,307,80,16288,-2348,-35,-49,-11
7911.603999999999,308,80,16288,-2348,-35,-49,-11
7920.388,308,80,16288,-2348,-35,-49,-11
7922.715,308,12,16340,-2352,-36,-44,-9
7924.7300000000005,308,12,16340,-2352,-36,-44,-9
7926.771,307,12,16340,-2352,-36,-44,-9
7926.771,308,12,16340,-2352,-36,-44,-9
7933.5779999999995,307,12,16340,-2352,-36,-44,-9
7935.093,307,12,16340,-2352,-36,-44,-9
7935.093,307,12,16340,-2352,-36,-44,-9
7935.093,308,12,16340,-2352,-36,-44,-9
7943.2609999999995,308,32,16304,-2400,-30,-44,2
7943.2609999999995,307,32,16304,-2400,-30,-44,2
7943.2609999999995,309,32,16304,-2400,-30,-44,2
7951.447,308,32,16304,-2400,-30,-44,2
7952.872,307,32,16304,-2400,-30,-44,2
7952.872,308,32,16304,-2400,-30,-44,2
7959.5289999999995,307,32,16304,-2400,-30,-44,2
7961.25,307,32,16304,-2400,-30,-44,2
7965.484,308,-4,16332,-2368,-35,-35,6
7967.992,307,-4,16332,-2368,-35,-35,6
7970.075,307,-4,16332,-2368,-35,-35,6
7972.7,308,-4,16332,-2368,-35,-35,6
7972.7,308,-4,16332,-2368,-35,-35,6
7978.238,307,-4,16332,-2368,-35,-35,6
7978.238,307,-4,16332,-2368,-35,-35,6
7978.238,307,-4,16332,-2368,-35,-35,6
7986.523,308,-8,16316,-2380,-18,-52,-10
7987.447,306,-8,16316,-2380,-18,-52,-10
7991.179,307,-8,16316,-2380,-18,-52,-10
7994.445,307,-8,16316,-2380,-18,-52,-10
7994.445,307,-8,16316,-2380,-18,-52,-10
7994.445,308,-8,16316,-2380,-18,-52,-10
8000.773,308,-8,16316,-2380,-18,-52,-10
8004.344,307,28,16324,-2368,-42,-45,-8
8006.3589999999995,307,28,16324,-2368,-42,-45,-8
8009.157999999999,307,28,16324,-2368,-42,-45,-8
8011.281999999999,308,28,16324,-2368,-42,-45,-8
8014.920999999999,307,28,16324,-2368,-42,-45,-8
8017.189,308,28,16324,-2368,-42,-45,-8
8020.818,307,28,16324,-2368,-42,-45,-8
8020.818,308,24,16364,-2404,-58,-28,-7
8026.655,307,24,16364,-2404,-58,-28,-7
8028.665999999999,307,24,16364,-2404,-58,-28,-7
8028.665999999999,308,24,16364,-2404,-58,-28,-7
8033.346999999999,308,24,16364,-2404,-58,-28,-7
8037.368,308,24,16364,-2404,-58,-28,-7
8037.368,308,24,16364,-2404,-58,-28,-7
8041.781999999999,308,24,16364,-2404,-58,-28,-7
8041.781999999999,307,-48,16340,-2340,-23,-45,-23
8046.469999999999,308,-48,16340,-2340,-23,-45,-23
8049.937999999999,307,-48,16340,-2340,-23,-45,-23
8049.937999999999,308,-48,16340,-2340,-23,-45,-23
8056.148,308,-48,16340,-2340,-23,-45,-23
8059.4839999999995,307,-48,16340,-2340,-23,-45,-23
8062.182,308,-48,16340,-2340,-23,-45,-23
8063.957,308,48,16388,-2376,-25,-22,4
8067.531000000001,308,48,16388,-2376,-25,-22,4
8069.547999999999,308,48,16388,-2376,-25,-22,4
8069.547999999999,308,48,16388,-2376,-25,-22,4
8075.881,307,48,16388,-2376,-25,-22,4
8075.881,308,48,16388,-2376,-25,-22,4
8075.881,308,48,16388,-2376,-25,-22,4
8075.881,308,48,16388,-2376,-25,-22,4
8083.932000000001,308,-8,16304,-2344,-32,-50,-7
8087.1410000000005,307,-8,16304,-2344,-32,-50,-7
8092.089,308,-8,16304,-2344,-32,-50,-7
8092.089,308,-8,16304,-2344,-32,-50,-7
8092.089,307,-8,16304,-2344,-32,-50,-7
8092.089,308,-8,16304,-2344,-32,-50,-7
8100.142999999999,307,-8,16304,-2344,-32,-50,-7
8104.597999999999,307,8,16336,-2372,-69,-36,-18
8105.686000000001,307,8,16336,-2372,-69,-36,-18
8109.104,306,8,16336,-2372,-69,-36,-18
8109.104,307,8,16336,-2372,-69,-36,-18
8109.104,307,8,16336,-2372,-69,-36,-18
8116.954,307,8,16336,-2372,-69,-36,-18
8121.16,307,8,16336,-2372,-69,-36,-18
8121.16,308,8,16336,-2372,-69,-36,-18
8125.55,307,16,16316,-2356,-24,-30,3
8125.55,307,16,16316,-2356,-24,-30,3
8125.55,307,16,16316,-2356,-24,-30,3
8133.659,308,16,16316,-2356,-24,-30,3
8136.4800000000005,307,16,16316,-2356,-24,-30,3
8138.4980000000005,308,16,16316,-2356,-24,-30,3
8141.9,308,16,16316,-2356,-24,-30,3
8141.9,307,-44,16324,-2384,6,-40,-26
8141.9,307,-44,16324,-2384,6,-40,-26
8150.187000000001,307,-44,16324,-2384,6,-40,-26
8150.187000000001,307,-44,16324,-2384,6,-40,-26
8150.187000000001,307,-44,16324,-2384,6,-40,-26
8158.265,308,-44,16324,-2384,6,-40,-26
8158.265,307,-44,16324,-2384,6,-40,-26
8158.265,308,-44,16324,-2384,6,-40,-26
8158.265,307,28,16368,-2424,-55,-56,-17
8166.755999999999,307,28,16368,-2424,-55,-56,-17
8170.959999999999,308,28,16368,-2424,-55,-56,-17
8174.5599999999995,308,28,16368,-2424,-55,-56,-17
8174.5599999999995,309,28,16368,-2424,-55,-56,-17
8174.5599999999995,308,28,16368,-2424,-55,-56,-17
8182.601,308,28,16368,-2424,-55,-56,-17
8182.601,307,4,16264,-2380,-50,-13,-27
8186.621999999999,307,4,16264,-2380,-50,-13,-27
8187.875,307,4,16264,-2380,-50,-13,-27
8191.112999999999,307,4,16264,-2380,-50,-13,-27
8191.112999999999,308,4,16264,-2380,-50,-13,-27
8191.112999999999,308,4,16264,-2380,-50,-13,-27
8199.156,307,4,16264,-2380,-50,-13,-27
8199.156,307,4,16264,-2380,-50,-13,-27
8205.694,307,8,16288,-2376,-45,-34,-22
8207.432999999999,306,8,16288,-2376,-45,-34,-22
8207.432999999999,306,8,16288,-2376,-45,-34,-22
8207.432999999999,307,8,16288,-2376,-45,-34,-22
8215.615,307,8,16288,-2376,-45,-34,-22
8220.01,308,8,16288,-2376,-45,-34,-22
8221.872,307,8,16288,-2376,-45,-34,-22
8223.898000000001,307,40,16336,-2368,-17,-32,-4
8227.921,307,40,16336,-2368,-17,-32,-4
8227.921,307,40,16336,-2368,-17,-32,-4
8232.121,308,40,16336,-2368,-17,-32,-4
8233.636,308,40,16336,-2368,-17,-32,-4
8237.684,308,40,16336,-2368,-17,-32,-4
8239.702,308,40,16336,-2368,-17,-32,-4
8239.702,308,40,16336,-2368,-17,-32,-4
8239.702,307,-24,16268,-2384,-42,-39,-6
8247.947,308,-24,16268,-2384,-42,-39,-6
8247.947,308,-24,16268,-2384,-42,-39,-6
8256.418,307,-24,16268,-2384,-42,-39,-6
8258.431,307,-24,16268,-2384,-42,-39,-6
8260.634,308,-24,16268,-2384,-42,-39,-6
8263.135999999999,307,-24,16268,-2384,-42,-39,-6
8264.871,307,8,16332,-2376,-30,-40,-8
8266.889000000001,307,8,16332,-2376,-30,-40,-8
8270.92,307,8,16332,-2376,-30,-40,-8
8274.337,307,8,16332,-2376,-30,-40,-8
8276.351999999999,307,8,16332,-2376,-30,-40,-8
8283.418,307,8,16332,-2376,-30,-40,-8
8287.453,307,8,16332,-2376,-30,-40,-8
8289.467999999999,307,8,16332,-2376,-30,-40,-8
8291.485,307,-12,16352,-2360,-12,-32,2
8293.5,308,-12,16352,-2360,-12,-32,2
8295.516,307,-12,16352,-2360,-12,-32,2
8307.618,307,-12,16352,-2360,-12,-32,2
8315.686,308,-12,16352,-2360,-12,-32,2
8326.173999999999,307,-12,16352,-2360,-12,-32,2
8335.747,307,-12,16352,-2360,-12,-32,2
8348.044,307,24,16372,-2344,-45,-61,0
8359.685000000001,307,24,16372,-2344,-45,-61,0
8369.215,308,24,16372,-2344,-45,-61,0
8372.311,308,24,16372,-2344,-45,-61,0
8374.326,307,24,16372,-2344,-45,-61,0
8374.326,308,24,16372,-2344,-45,-61,0
8377.418,308,24,16372,-2344,-45,-61,0
8377.418,308,24,16372,-2344,-45,-61,0
8389.33,308,-16,16260,-2356,-54,-34,-33
8392.919,307,-16,16260,-2356,-54,-34,-33
8396.145,307,-16,16260,-2356,-54,-34,-33
8396.145,308,-16,16260,-2356,-54,-34,-33
8401.287999999999,307,-16,16260,-2356,-54,-34,-33
8401.287999999999,307,-16,16260,-2356,-54,-34,-33
8403.933,308,-16,16260,-2356,-54,-34,-33
8403.933,308,40,16252,-2372,-27,-40,-13
8403.933,308,40,16252,-2372,-27,-40,-13
8409.611,307,40,16252,-2372,-27,-40,-13
8409.611,308,40,16252,-2372,-27,-40,-13
8409.611,308,40,16252,-2372,-27,-40,-13
8409.611,308,40,16252,-2372,-27,-40,-13
8409.611,308,40,16252,-2372,-27,-40,-13
8418.210000000001,307,40,16252,-2372,-27,-40,-13
8418.210000000001,307,-28,16304,-2320,-17,-40,-13
8418.210000000001,307,-28,16304,-2320,-17,-40,-13
8418.210000000001,307,-28,16304,-2320,-17,-40,-13
8426.564,307,-28,16304,-2320,-17,-40,-13
8426.564,308,-28,16304,-2320,-17,-40,-13
8426.564,307,-28,16304,-2320,-17,-40,-13
8426.564,307,-28,16304,-2320,-17,-40,-13
8426.564,308,28,16336,-2348,-23,-43,-3
8435.061,307,28,16336,-2348,-23,-43,-3
8437.451,307,28,16336,-2348,-23,-43,-3
8437.451,307,28,16336,-2348,-23,-43,-3
8437.451,308,28,16336,-2348,-23,-43,-3
8443.201000000001,308,28,16336,-2348,-23,-43,-3
8443.201000000001,307,28,16336,-2348,-23,-43,-3
8443.201000000001,307,16,16324,-2396,-28,-41,-18
8443.201000000001,308,16,16324,-2396,-28,-41,-18
8450.065,307,16,16324,-2396,-28,-41,-18
8451.578,308,16,16324,-2396,-28,-41,-18
8451.578,308,16,16324,-2396,-28,-41,-18
8451.578,308,16,16324,-2396,-28,-41,-18
8451.578,308,16,16324,-2396,-28,-41,-18
8460.056,308,12,16388,-2372,-18,-39,0
8460.056,307,12,16388,-2372,-18,-39,0
8460.056,307,12,16388,-2372,-18,-39,0
8460.056,307,12,16388,-2372,-18,-39,0
8460.056,307,12,16388,-2372,-18,-39,0
8460.056,307,12,16388,-2372,-18,-39,0
8471.287999999999,307,12,16388,-2372,-18,-39,0
8471.287999999999,309,12,16388,-2372,-18,-39,0
8471.287999999999,307,12,16312,-2368,-28,-41,-20
8477.978000000001,307,12,16312,-2368,-28,-41,-20
8477.978000000001,307,12,16312,-2368,-28,-41,-20
8481.225999999999,307,12,16312,-2368,-28,-41,-20
8481.225999999999,307,12,16312,-2368,-28,-41,-20
8485.5,307,12,16312,-2368,-28,-41,-20
8486.606,307,12,16312,-2368,-28,-41,-20
8486.606,307,0,16364,-2376,-24,-32,2
8486.606,307,0,16364,-2376,-24,-32,2
8486.606,307,0,16364,-2376,-24,-32,2
8493.333,307,0,16364,-2376,-24,-32,2
8493.333,308,0,16364,-2376,-24,-32,2
8493.333,308,0,16364,-2376,-24,-32,2
8493.333,308,0,16364,-2376,-24,-32,2
8493.333,308,0,16364,-2376,-24,-32,2
8501.518,308,-52,16308,-2384,-43,-34,-28
8501.518,307,-52,16308,-2384,-43,-34,-28
8506.696,307,-52,16308,-2384,-43,-34,-28
8506.696,308,-52,16308,-2384,-43,-34,-28
8509.976999999999,306,-52,16308,-2384,-43,-34,-28
8509.976999999999,307,-52,16308,-2384,-43,-34,-28
8509.976999999999,308,-52,16308,-2384,-43,-34,-28
8509.976999999999,307,-52,16308,-2384,-43,-34,-28
8509.976999999999,308,0,16328,-2420,-30,-39,-6
8518.426,308,0,16328,-2420,-30,-39,-6
8520.544,307,0,16328,-2420,-30,-39,-6
8522.565999999999,308,0,16328,-2420,-30,-39,-6
8522.565999999999,307,0,16328,-2420,-30,-39,-6
8526.839,307,0,16328,-2420,-30,-39,-6
8526.839,308,0,16328,-2420,-30,-39,-6
8526.839,308,0,16348,-2336,-20,-39,-20
8526.839,307,0,16348,-2336,-20,-39,-20
8535.231,307,0,16348,-2336,-20,-39,-20
8537.169,307,0,16348,-2336,-20,-39,-20
8537.169,307,0,16348,-2336,-20,-39,-20
8537.169,308,0,16348,-2336,-20,-39,-20
8537.169,308,0,16348,-2336,-20,-39,-20
8543.377,308,0,16348,-2336,-20,-39,-20
8543.377,308,4,16308,-2344,-37,-30,-3
8543.377,307,4,16308,-2344,-37,-30,-3
8551.583,307,4,16308,-2344,-37,-30,-3
8551.583,306,4,16308,-2344,-37,-30,-3
8551.583,307,4,16308,-2344,-37,-30,-3
8559.74,308,4,16308,-2344,-37,-30,-3
8559.74,307,4,16308,-2344,-37,-30,-3
8559.74,308,12,16328,-2384,-43,-35,-1
8568.035,307,12,16328,-2384,-43,-35,-1
8569.538,307,12,16328,-2384,-43,-35,-1
8571.561000000002,308,12,16328,-2384,-43,-35,-1
8576.048999999999,308,12,16328,-2384,-43,-35,-1
8576.048999999999,308,12,16328,-2384,-43,-35,-1
8576.048999999999,308,12,16328,-2384,-43,-35,-1
8584.422,308,12,16328,-2384,-43,-35,-1
8587.227,308,12,16272,-2388,-48,-50,-6
8587.227,308,12,16272,-2388,-48,-50,-6
8592.7,307,12,16272,-2388,-48,-50,-6
8592.7,308,12,16272,-2388,-48,-50,-6
8592.7,307,12,16272,-2388,-48,-50,-6
8592.7,308,12,16272,-2388,-48,-50,-6
8600.992,307,12,16272,-2388,-48,-50,-6
8600.992,308,-12,16324,-2340,-20,-36,-5
8607.939,307,-12,16324,-2340,-20,-36,-5
8608.955999999998,308,-12,16324,-2340,-20,-36,-5
8608.955999999998,308,-12,16324,-2340,-20,-36,-5
8617.089,307,-12,16324,-2340,-20,-36,-5
8617.089,308,-12,16324,-2340,-20,-36,-5
8622.766,307,-12,16324,-2340,-20,-36,-5
8625.235,309,-12,16324,-2340,-20,-36,-5
8625.235,307,36,16368,-2364,-36,-56,-18
8625.235,307,36,16368,-2364,-36,-56,-18
8633.607,308,36,16368,-2364,-36,-56,-18
8634.622,307,36,16368,-2364,-36,-56,-18
8634.622,308,36,16368,-2364,-36,-56,-18
8639.146999999999,307,36,16368,-2364,-36,-56,-18
8642.592999999999,308,36,16368,-2364,-36,-56,-18
8642.592999999999,308,0,16364,-2364,-45,-59,-6
8642.592999999999,307,0,16364,-2364,-45,-59,-6
8650.712,307,0,16364,-2364,-45,-59,-6
8652.73,308,0,16364,-2364,-45,-59,-6
8655.462,308,0,16364,-2364,-45,-59,-6
8658.239,307,0,16364,-2364,-45,-59,-6
8658.239,307,0,16364,-2364,-45,-59,-6
8658.239,308,0,16364,-2364,-45,-59,-6
8666.473999999998,308,-16,16304,-2360,-25,-33,-16
8666.473999999998,307,-16,16304,-2360,-25,-33,-16
8672.905999999999,307,-16,16304,-2360,-25,-33,-16
8674.645999999999,308,-16,16304,-2360,-25,-33,-16
8674.645999999999,308,-16,16304,-2360,-25,-33,-16
8674.645999999999,307,-16,16304,-2360,-25,-33,-16
8682.79,307,-16,16304,-2360,-25,-33,-16
8682.79,307,0,16340,-2340,-38,-51,-5
8689.673,308,0,16340,-2340,-38,-51,-5
8691.193,307,0,16340,-2340,-38,-51,-5
8693.105,307,0,16340,-2340,-38,-51,-5
8693.105,308,0,16340,-2340,-38,-51,-5
8699.559000000001,308,0,16340,-2340,-38,-51,-5
8699.559000000001,308,0,16340,-2340,-38,-51,-5
8699.559000000001,308,0,16340,-2340,-38,-51,-5
8707.325,307,-28,16364,-2368,-28,-46,-10
8711.235,307,-28,16364,-2368,-28,-46,-10
8711.235,307,-28,16364,-2368,-28,-46,-10
8715.375999999998,307,-28,16364,-2368,-28,-46,-10
8715.375999999998,308,-28,16364,-2368,-28,-46,-10
8720.980000000001,308,-28,16364,-2368,-28,-46,-10
8723.417,308,-28,16364,-2368,-28,-46,-10
8723.417,307,32,16340,-2352,-57,-50,-13
8723.417,307,32,16340,-2352,-57,-50,-13
8731.667,307,32,16340,-2352,-57,-50,-13
8736.124,307,32,16340,-2352,-57,-50,-13
8737.531,308,32,16340,-2352,-57,-50,-13
8739.997000000001,308,32,16340,-2352,-57,-50,-13
8743.999,308,32,16340,-2352,-57,-50,-13
8743.999,308,0,16336,-2348,-43,-29,-1
8748.187,307,0,16336,-2348,-43,-29,-1
8748.187,307,0,16336,-2348,-43,-29,-1
8754.849,307,0,16336,-2348,-43,-29,-1
8756.616,308,0,16336,-2348,-43,-29,-1
8760.395,307,0,16336,-2348,-43,-29,-1
8760.395,307,0,16336,-2348,-43,-29,-1
8764.772,308,0,16336,-2348,-43,-29,-1
8764.772,308,24,16328,-2392,-34,-42,-18
8770.814,307,24,16328,-2392,-34,-42,-18
8772.831999999999,306,24,16328,-2392,-34,-42,-18
8776.784,307,24,16328,-2392,-34,-42,-18
8776.784,307,24,16328,-2392,-34,-42,-18
8781.398,307,24,16328,-2392,-34,-42,-18
8781.398,307,24,16328,-2392,-34,-42,-18
8781.398,307,-24,16380,-2444,-55,-44,-4
8789.415,307,-24,16380,-2444,-55,-44,-4
8793.145,307,-24,16380,-2444,-55,-44,-4
8793.145,308,-24,16380,-2444,-55,-44,-4
8797.687,308,-24,16380,-2444,-55,-44,-4
8797.687,308,-24,16380,-2444,-55,-44,-4
8797.687,307,-24,16380,-2444,-55,-44,-4
8805.873,308,24,16284,-2348,-43,-37,-12
8805.873,307,24,16284,-2348,-43,-37,-12
8805.873,307,24,16284,-2348,-43,-37,-12
8814.271,307,24,16284,-2348,-43,-37,-12
8817.719000000001,307,24,16284,-2348,-43,-37,-12
8819.9,307,24,16284,-2348,-43,-37,-12
8822.331999999999,307,24,16284,-2348,-43,-37,-12
8827.989000000001,308,24,16284,-2348,-43,-37,-12
8829.016,308,-20,16288,-2356,-13,-32,-13
8831.187,308,-20,16288,-2356,-13,-32,-13
8831.187,307,-20,16288,-2356,-13,-32,-13
8835.307,307,-20,16288,-2356,-13,-32,-13
8839.297,308,-20,16288,-2356,-13,-32,-13
8841.313,307,-20,16288,-2356,-13,-32,-13
8843.330999999998,307,-20,16288,-2356,-13,-32,-13
8846.627,307,20,16336,-2372,3,-34,-7
8846.627,307,20,16336,-2372,3,-34,-7
8846.627,307,20,16336,-2372,3,-34,-7
8855.786,307,20,16336,-2372,3,-34,-7
8858.853,308,20,16336,-2372,3,-34,-7
8858.853,308,20,16336,-2372,3,-34,-7
8863.231000000002,308,20,16336,-2372,3,-34,-7
8863.231000000002,308,20,16336,-2372,3,-34,-7
8865.988,308,-8,16360,-2408,-29,-41,-10
8871.361,307,-8,16360,-2408,-29,-41,-10
8871.361,307,-8,16360,-2408,-29,-41,-10
8873.974,307,-8,16360,-2408,-29,-41,-10
8879.476999999999,308,-8,16360,-2408,-29,-41,-10
8879.476999999999,308,-8,16360,-2408,-29,-41,-10
8879.476999999999,307,-8,16360,-2408,-29,-41,-10
8887.652,307,-28,16288,-2316,-51,-44,-20
8889.671999999999,307,-28,16288,-2316,-51,-44,-20
8889.671999999999,307,-28,16288,-2316,-51,-44,-20
8895.927,308,-28,16288,-2316,-51,-44,-20
8895.927,308,-28,16288,-2316,-51,-44,-20
8895.927,308,-28,16288,-2316,-51,-44,-20
8904.157,308,-28,16288,-2316,-51,-44,-20
8906.544,307,24,16292,-2360,-3,-44,-17
8906.544,307,24,16292,-2360,-3,-44,-17
8912.283000000001,308,24,16292,-2360,-3,-44,-17
8912.283000000001,308,24,16292,-2360,-3,-44,-17
8912.283000000001,308,24,16292,-2360,-3,-44,-17
8912.283000000001,308,24,16292,-2360,-3,-44,-17
8920.525,308,24,16292,-2360,-3,-44,-17
8920.525,308,24,16292,-2360,-3,-44,-17
8929.0,307,-8,16352,-2372,-35,-29,-19
8929.0,309,-8,16352,-2372,-35,-29,-19
8931.965999999999,308,-8,16352,-2372,-35,-29,-19
8935.584,308,-8,16352,-2372,-35,-29,-19
8939.365,308,-8,16352,-2372,-35,-29,-19
8939.365,309,-8,16352,-2372,-35,-29,-19
8939.365,309,-8,16352,-2372,-35,-29,-19
8945.835000000001,308,-16,16316,-2372,-17,-26,11
8945.835000000001,307,-16,16316,-2372,-17,-26,11
8945.835000000001,308,-16,16316,-2372,-17,-26,11
8956.185,308,-16,16316,-2372,-17,-26,11
8956.185,308,-16,16316,-2372,-17,-26,11
8962.094000000001,309,-16,16316,-2372,-17,-26,11
8965.363,308,-16,16316,-2372,-17,-26,11
8965.363,308,12,16288,-2376,-65,-47,5
8965.363,307,12,16288,-2376,-65,-47,5
8971.06,308,12,16288,-2376,-65,-47,5
8971.06,307,12,16288,-2376,-65,-47,5
8971.06,308,12,16288,-2376,-65,-47,5
8978.581,308,12,16288,-2376,-65,-47,5
8978.581,308,12,16288,-2376,-65,-47,5
8978.581,307,12,16288,-2376,-65,-47,5
8988.454000000002,307,4,16328,-2384,-13,-33,-11
8990.993,307,4,16328,-2384,-13,-33,-11
8993.867,308,4,16328,-2384,-13,-33,-11
8995.735,307,4,16328,-2384,-13,-33,-11
8998.922,307,4,16328,-2384,-13,-33,-11
9001.251999999999,307,4,16328,-2384,-13,-33,-11
9003.668,308,4,16328,-2384,-13,-33,-11
9003.668,308,20,16336,-2352,-41,-35,5
9003.668,308,20,16336,-2352,-41,-35,5
9003.668,308,20,16336,-2352,-41,-35,5
9014.545999999998,307,20,16336,-2352,-41,-35,5
9014.545999999998,307,20,16336,-2352,-41,-35,5
9014.545999999998,307,20,16336,-2352,-41,-35,5
9020.787,308,20,16336,-2352,-41,-35,5
9023.821,307,20,16336,-2352,-41,-35,5
9023.821,308,-24,16324,-2364,-28,-21,-15
9027.931,308,-24,16324,-2364,-28,-21,-15
9027.931,308,-24,16324,-2364,-28,-21,-15
9035.844000000001,308,-24,16324,-2364,-28,-21,-15
9037.458,307,-24,16324,-2364,-28,-21,-15
9037.458,308,-24,16324,-2364,-28,-21,-15
9043.935,307,-24,16324,-2364,-28,-21,-15
9043.935,308,40,16356,-2400,-40,-37,22
9043.935,308,40,16356,-2400,-40,-37,22
9051.971,307,40,16356,-2400,-40,-37,22
9053.73,307,40,16356,-2400,-40,-37,22
9056.661,308,40,16356,-2400,-40,-37,22
9060.128,308,40,16356,-2400,-40,-37,22
9062.144,308,40,16356,-2400,-40,-37,22
9062.144,307,40,16356,-2400,-40,-37,22
9068.579,307,0,16264,-2400,-5,-38,-13
9070.422,307,0,16264,-2400,-5,-38,-13
9072.440999999999,307,0,16264,-2400,-5,-38,-13
9074.465999999999,308,0,16264,-2400,-5,-38,-13
9076.646999999999,308,0,16264,-2400,-5,-38,-13
9076.646999999999,307,0,16264,-2400,-5,-38,-13
9076.646999999999,308,0,16264,-2400,-5,-38,-13
9084.861,307,-4,16332,-2336,-39,-36,-3
9084.861,306,-4,16332,-2336,-39,-36,-3
9089.408000000001,307,-4,16332,-2336,-39,-36,-3
9093.131,307,-4,16332,-2336,-39,-36,-3
9095.147,307,-4,16332,-2336,-39,-36,-3
9099.285,307,-4,16332,-2336,-39,-36,-3
9101.302,307,-4,16332,-2336,-39,-36,-3
9104.82,308,-4,16332,-2336,-39,-36,-3
9104.82,308,52,16356,-2392,-41,-49,-7
9109.334,307,52,16356,-2392,-41,-49,-7
9113.362000000001,307,52,16356,-2392,-41,-49,-7
9115.599,308,52,16356,-2392,-41,-49,-7
9117.339,308,52,16356,-2392,-41,-49,-7
9117.339,307,52,16356,-2392,-41,-49,-7
9117.339,308,52,16356,-2392,-41,-49,-7
9125.785,307,20,16296,-2372,-83,-51,-7
9125.785,307,20,16296,-2372,-83,-51,-7
9125.785,307,20,16296,-2372,-83,-51,-7
9134.055999999999,307,20,16296,-2372,-83,-51,-7
9136.069000000001,307,20,16296,-2372,-83,-51,-7
9136.069000000001,308,20,16296,-2372,-83,-51,-7
9142.206,308,20,16296,-2372,-83,-51,-7
9142.206,307,20,16296,-2372,-83,-51,-7
9142.206,308,4,16308,-2392,-29,-38,-18
9150.235,307,4,16308,-2392,-29,-38,-18
9150.235,307,4,16308,-2392,-29,-38,-18
9154.676,307,4,16308,-2392,-29,-38,-18
9158.543,306,4,16308,-2392,-29,-38,-18
9160.557999999999,306,4,16308,-2392,-29,-38,-18
9160.557999999999,307,4,16308,-2392,-29,-38,-18
9164.44,306,4,16308,-2392,-29,-38,-18
9166.938999999998,306,-44,16360,-2384,-41,-27,-9
9166.938999999998,306,-44,16360,-2384,-41,-27,-9
9172.793,307,-44,16360,-2384,-41,-27,-9
9175.312999999998,307,-44,16360,-2384,-41,-27,-9
9175.312999999998,307,-44,16360,-2384,-41,-27,-9
9175.312999999998,308,-44,16360,-2384,-41,-27,-9
9183.516,308,-44,16360,-2384,-41,-27,-9
9183.516,307,-20,16352,-2372,-32,-32,-1
9189.583,307,-20,16352,-2372,-32,-32,-1
9191.601,308,-20,16352,-2372,-32,-32,-1
9191.601,307,-20,16352,-2372,-32,-32,-1
9198.151,308,-20,16352,-2372,-32,-32,-1
9202.568,307,-20,16352,-2372,-32,-32,-1
9204.967999999999,307,-20,16352,-2372,-32,-32,-1
9207.152,308,8,16272,-2352,-49,-41,-4
9210.183,306,8,16272,-2352,-49,-41,-4
9212.199,307,8,16272,-2352,-49,-41,-4
9212.199,307,8,16272,-2352,-49,-41,-4
9216.391,307,8,16272,-2352,-49,-41,-4
9216.391,307,8,16272,-2352,-49,-41,-4
9222.664,308,8,16272,-2352,-49,-41,-4
9224.426,307,8,16272,-2352,-49,-41,-4
9224.426,307,-24,16332,-2392,-21,-35,-3
9224.426,307,-24,16332,-2392,-21,-35,-3
9232.663,307,-24,16332,-2392,-21,-35,-3
9236.321,307,-24,16332,-2392,-21,-35,-3
9236.321,308,-24,16332,-2392,-21,-35,-3
9240.983999999999,307,-24,16332,-2392,-21,-35,-3
9240.983999999999,307,-24,16332,-2392,-21,-35,-3
9240.983999999999,307,-16,16416,-2344,-41,-35,-17
9249.325,307,-16,16416,-2344,-41,-35,-17
9249.325,307,-16,16416,-2344,-41,-35,-17
9249.325,308,-16,16416,-2344,-41,-35,-17
9257.765,307,-16,16416,-2344,-41,-35,-17
9257.765,307,-16,16416,-2344,-41,-35,-17
9257.765,307,-16,16416,-2344,-41,-35,-17
9266.021,307,-48,16348,-2340,-39,-55,-23
9266.021,306,-48,16348,-2340,-39,-55,-23
9266.021,307,-48,16348,-2340,-39,-55,-23
9274.053,306,-48,16348,-2340,-39,-55,-23
9274.053,306,-48,16348,-2340,-39,-55,-23
9274.053,307,-48,16348,-2340,-39,-55,-23
9284.624000000002,307,-48,16348,-2340,-39,-55,-23
9284.624000000002,307,40,16308,-2412,-39,-40,-2
9290.098,307,40,16308,-2412,-39,-40,-2
9293.063,307,40,16308,-2412,-39,-40,-2
9293.063,307,40,16308,-2412,-39,-40,-2
9293.063,308,40,16308,-2412,-39,-40,-2
9298.309,307,40,16308,-2412,-39,-40,-2
9298.309,307,40,16308,-2412,-39,-40,-2
9298.309,308,40,16308,-2412,-39,-40,-2
9309.409,307,28,16344,-2376,-45,-48,-22
9309.409,306,28,16344,-2376,-45,-48,-22
9309.409,306,28,16344,-2376,-45,-48,-22
9314.672,306,28,16344,-2376,-45,-48,-22
9320.053,306,28,16344,-2376,-45,-48,-22
9322.944,307,28,16344,-2376,-45,-48,-22
9322.944,308,28,16344,-2376,-45,-48,-22
9322.944,307,0,16324,-2368,-51,-36,-5
9322.944,307,0,16324,-2368,-51,-36,-5
