Time (ms),EMG,AccX,AccY,AccZ,GyroX,GyroY,GyroZ
1549.7920000000001,0,0,0,0,0,0,0
1549.7920000000001,303,0,0,0,0,0,0
1556.718,303,0,0,0,0,0,0
1558.237,303,0,0,0,0,0,0
1558.237,304,0,0,0,0,0,0
1559.985,303,0,0,0,0,0,0
1559.985,303,0,0,0,0,0,0
1559.985,303,0,0,0,0,0,0
1559.985,304,0,0,0,0,0,0
1566.379,304,0,0,0,0,0,0
1566.379,304,0,0,0,0,0,0
1566.379,303,0,0,0,0,0,0
1566.379,304,0,0,0,0,0,0
1566.379,304,0,0,0,0,0,0
1566.379,303,0,0,0,0,0,0
1575.372,303,0,0,0,0,0,0
1575.372,303,0,0,0,0,0,0
1577.3870000000002,303,0,0,0,0,0,0
1577.3870000000002,303,-184,16404,-2272,-2,-33,-22
1582.748,304,-184,16404,-2272,-2,-33,-22
1582.748,304,-184,16404,-2272,-2,-33,-22
1582.748,304,-184,16404,-2272,-2,-33,-22
1590.959,304,-184,16404,-2272,-2,-33,-22
1592.972,304,-184,16404,-2272,-2,-33,-22
1592.972,304,-184,16404,-2272,-2,-33,-22
1601.007,304,-224,16356,-2240,-161,-29,-22
1603.018,304,-224,16356,-2240,-161,-29,-22
1607.041,304,-224,16356,-2240,-161,-29,-22
1609.056,304,-224,16356,-2240,-161,-29,-22
1611.0720000000001,305,-224,16356,-2240,-161,-29,-22
1615.519,304,-224,16356,-2240,-161,-29,-22
1615.519,304,-224,16356,-2240,-161,-29,-22
1615.519,304,-172,16284,-2212,16,-26,-12
1623.56,305,-172,16284,-2212,16,-26,-12
1623.56,304,-172,16284,-2212,16,-26,-12
1623.56,305,-172,16284,-2212,16,-26,-12
1632.062,304,-172,16284,-2212,16,-26,-12
1634.084,305,-172,16284,-2212,16,-26,-12
1638.732,305,-172,16284,-2212,16,-26,-12
1640.9750000000001,305,-188,16352,-2244,15,-31,-8
1641.987,305,-188,16352,-2244,15,-31,-8
1641.987,306,-188,16352,-2244,15,-31,-8
1649.497,306,-188,16352,-2244,15,-31,-8
1649.497,306,-188,16352,-2244,15,-31,-8
1649.497,306,-188,16352,-2244,15,-31,-8
1658.801,306,-188,16352,-2244,15,-31,-8
1659.505,305,-164,16384,-2244,-61,-29,-18
1663.171,305,-164,16384,-2244,-61,-29,-18
1664.913,306,-164,16384,-2244,-61,-29,-18
1664.913,307,-164,16384,-2244,-61,-29,-18
1664.913,307,-164,16384,-2244,-61,-29,-18
1674.376,307,-164,16384,-2244,-61,-29,-18
1674.376,307,-164,16384,-2244,-61,-29,-18
1680.2520000000002,307,-248,16364,-2200,-62,-27,-16
1681.265,307,-248,16364,-2200,-62,-27,-16
1685.972,307,-248,16364,-2200,-62,-27,-16
1689.496,307,-248,16364,-2200,-62,-27,-16
1691.425,307,-248,16364,-2200,-62,-27,-16
1693.478,306,-248,16364,-2200,-62,-27,-16
1697.923,307,-248,16364,-2200,-62,-27,-16
1697.923,307,-220,16332,-2180,12,-32,5
1697.923,307,-220,16332,-2180,12,-32,5
1705.493,307,-220,16332,-2180,12,-32,5
1708.993,307,-220,16332,-2180,12,-32,5
1711.006,307,-220,16332,-2180,12,-32,5
1713.0149999999999,307,-220,16332,-2180,12,-32,5
1715.3799999999999,306,-220,16332,-2180,12,-32,5
1719.396,307,-204,16460,-2260,-1,-15,-4
1721.704,306,-204,16460,-2260,-1,-15,-4
1725.3719999999998,307,-204,16460,-2260,-1,-15,-4
1727.831,307,-204,16460,-2260,-1,-15,-4
1730.243,307,-204,16460,-2260,-1,-15,-4
1730.243,307,-204,16460,-2260,-1,-15,-4
1730.243,307,-204,16460,-2260,-1,-15,-4
1737.786,306,-204,16460,-2260,-1,-15,-4
1739.687,308,-180,16328,-2204,-110,-26,-10
1742.2640000000001,307,-180,16328,-2204,-110,-26,-10
1746.2089999999998,307,-180,16328,-2204,-110,-26,-10
1750.167,308,-180,16328,-2204,-110,-26,-10
1750.167,307,-180,16328,-2204,-110,-26,-10
1756.522,307,-180,16328,-2204,-110,-26,-10
1756.522,307,-184,16280,-2188,-24,-22,6
1759.991,308,-184,16280,-2188,-24,-22,6
1762.6770000000001,307,-184,16280,-2188,-24,-22,6
1766.7079999999999,308,-184,16280,-2188,-24,-22,6
1766.7079999999999,308,-184,16280,-2188,-24,-22,6
1772.8990000000001,308,-184,16280,-2188,-24,-22,6
1777.5339999999999,307,-184,16280,-2188,-24,-22,6
1778.444,307,-184,16280,-2188,-24,-22,6
1781.2859999999998,308,-204,16408,-2196,47,-43,-4
1782.836,308,-204,16408,-2196,47,-43,-4
1786.726,308,-204,16408,-2196,47,-43,-4
1790.8809999999999,308,-204,16408,-2196,47,-43,-4
1794.3709999999999,308,-204,16408,-2196,47,-43,-4
1794.3709999999999,307,-204,16408,-2196,47,-43,-4
1797.377,307,-204,16408,-2196,47,-43,-4
1802.654,307,-196,16352,-2228,-99,-47,-8
1803.539,308,-196,16352,-2228,-99,-47,-8
1804.1450000000002,308,-196,16352,-2228,-99,-47,-8
1810.673,308,-196,16352,-2228,-99,-47,-8
1811.8410000000001,308,-196,16352,-2228,-99,-47,-8
1813.868,308,-196,16352,-2228,-99,-47,-8
1818.86,308,-196,16352,-2228,-99,-47,-8
1818.86,308,-212,16288,-2200,-90,-54,-1
1818.86,308,-212,16288,-2200,-90,-54,-1
1827.116,308,-212,16288,-2200,-90,-54,-1
1827.116,308,-212,16288,-2200,-90,-54,-1
1827.116,308,-212,16288,-2200,-90,-54,-1
1835.18,309,-212,16288,-2200,-90,-54,-1
1835.837,307,-212,16288,-2200,-90,-54,-1
1835.837,309,-264,16400,-2240,73,-41,-11
1843.536,309,-264,16400,-2240,73,-41,-11
1843.536,309,-264,16400,-2240,73,-41,-11
1843.536,309,-264,16400,-2240,73,-41,-11
1851.9479999999999,308,-264,16400,-2240,73,-41,-11
1851.9479999999999,308,-264,16400,-2240,73,-41,-11
1856.214,309,-264,16400,-2240,73,-41,-11
1859.7330000000002,308,-184,16320,-2240,-67,-28,-22
1863.964,309,-184,16320,-2240,-67,-28,-22
1863.964,309,-184,16320,-2240,-67,-28,-22
1868.214,309,-184,16320,-2240,-67,-28,-22
1868.214,308,-184,16320,-2240,-67,-28,-22
1876.636,308,-184,16320,-2240,-67,-28,-22
1876.636,309,-184,16320,-2240,-67,-28,-22
1878.392,309,-220,16296,-2176,-116,-43,-2
1884.646,310,-220,16296,-2176,-116,-43,-2
1884.646,310,-220,16296,-2176,-116,-43,-2
1884.646,309,-220,16296,-2176,-116,-43,-2
1893.151,309,-220,16296,-2176,-116,-43,-2
1896.78,309,-220,16296,-2176,-116,-43,-2
1896.78,309,-220,16296,-2176,-116,-43,-2
1901.643,309,-228,16320,-2212,41,-28,4
1904.418,310,-228,16320,-2212,41,-28,4
1904.418,309,-228,16320,-2212,41,-28,4
1909.8990000000001,310,-228,16320,-2212,41,-28,4
1912.622,309,-228,16320,-2212,41,-28,4
1912.622,309,-228,16320,-2212,41,-28,4
1912.622,309,-228,16320,-2212,41,-28,4
1918.0680000000002,309,-236,16332,-2248,4,-23,1
1918.0680000000002,311,-236,16332,-2248,4,-23,1
1924.778,311,-236,16332,-2248,4,-23,1
1928.634,310,-236,16332,-2248,4,-23,1
1930.3870000000002,309,-236,16332,-2248,4,-23,1
1930.3870000000002,309,-236,16332,-2248,4,-23,1
1934.563,309,-236,16332,-2248,4,-23,1
1936.573,310,-236,16332,-2248,4,-23,1
1940.585,310,-172,16312,-2244,-86,-43,-17
1945.1290000000001,310,-172,16312,-2244,-86,-43,-17
1945.1290000000001,310,-172,16312,-2244,-86,-43,-17
1949.7359999999999,311,-172,16312,-2244,-86,-43,-17
1950.742,310,-172,16312,-2244,-86,-43,-17
1950.742,310,-172,16312,-2244,-86,-43,-17
1956.223,310,-172,16312,-2244,-86,-43,-17
1959.248,310,-208,16284,-2200,10,-33,-11
1959.248,311,-208,16284,-2200,10,-33,-11
1959.248,310,-208,16284,-2200,10,-33,-11
1967.636,310,-208,16284,-2200,10,-33,-11
1973.889,310,-208,16284,-2200,10,-33,-11
1976.002,309,-208,16284,-2200,10,-33,-11
1977.046,310,-208,16284,-2200,10,-33,-11
1977.046,310,-224,16420,-2264,20,-20,-12
1977.046,310,-224,16420,-2264,20,-20,-12
1984.1109999999999,310,-224,16420,-2264,20,-20,-12
1984.1109999999999,310,-224,16420,-2264,20,-20,-12
1992.2839999999999,310,-224,16420,-2264,20,-20,-12
1993.471,310,-224,16420,-2264,20,-20,-12
1993.471,311,-224,16420,-2264,20,-20,-12
1999.7769999999998,311,-220,16336,-2224,-105,-38,-20
1999.7769999999998,311,-220,16336,-2224,-105,-38,-20
2007.9370000000001,311,-220,16336,-2224,-105,-38,-20
2007.9370000000001,311,-220,16336,-2224,-105,-38,-20
2007.9370000000001,310,-220,16336,-2224,-105,-38,-20
2014.7119999999998,309,-220,16336,-2224,-105,-38,-20
2016.2179999999998,309,-220,16336,-2224,-105,-38,-20
2016.2179999999998,310,-216,16316,-2228,7,-40,-9
2024.719,311,-216,16316,-2228,7,-40,-9
2025.229,311,-216,16316,-2228,7,-40,-9
2025.229,310,-216,16316,-2228,7,-40,-9
2033.1860000000001,310,-216,16316,-2228,7,-40,-9
2033.1860000000001,310,-216,16316,-2228,7,-40,-9
2033.1860000000001,310,-216,16316,-2228,7,-40,-9
2041.3220000000001,309,-192,16356,-2216,54,-19,2
2042.832,310,-192,16356,-2216,54,-19,2
2042.832,310,-192,16356,-2216,54,-19,2
2047.9940000000001,311,-192,16356,-2216,54,-19,2
2051.755,310,-192,16356,-2216,54,-19,2
2051.755,310,-192,16356,-2216,54,-19,2
2055.7690000000002,309,-192,16356,-2216,54,-19,2
2060.339,310,-192,16356,-2216,54,-19,2
2060.339,309,-160,16372,-2232,-105,-29,3
2060.339,310,-160,16372,-2232,-105,-29,3
2066.7810000000004,310,-160,16372,-2232,-105,-29,3
2069.571,309,-160,16372,-2232,-105,-29,3
2069.571,309,-160,16372,-2232,-105,-29,3
2076.0480000000002,308,-160,16372,-2232,-105,-29,3
2076.0480000000002,309,-160,16372,-2232,-105,-29,3
2076.0480000000002,309,-168,16344,-2180,-54,-32,-1
2082.325,310,-168,16344,-2180,-54,-32,-1
2085.819,309,-168,16344,-2180,-54,-32,-1
2085.819,309,-168,16344,-2180,-54,-32,-1
2092.3959999999997,309,-168,16344,-2180,-54,-32,-1
2095.088,308,-168,16344,-2180,-54,-32,-1
2095.088,309,-168,16344,-2180,-54,-32,-1
2101.8340000000003,309,-196,16360,-2276,45,-37,-13
2105.404,309,-196,16360,-2276,45,-37,-13
2109.614,309,-196,16360,-2276,45,-37,-13
2109.614,308,-196,16360,-2276,45,-37,-13
2113.212,309,-196,16360,-2276,45,-37,-13
2116.0809999999997,308,-196,16360,-2276,45,-37,-13
2116.0809999999997,309,-196,16360,-2276,45,-37,-13
2121.806,308,-200,16368,-2268,-85,-29,-18
2126.347,309,-200,16368,-2268,-85,-29,-18
2127.9880000000003,308,-200,16368,-2268,-85,-29,-18
2130.006,309,-200,16368,-2268,-85,-29,-18
2131.5170000000003,309,-200,16368,-2268,-85,-29,-18
2135.433,308,-200,16368,-2268,-85,-29,-18
2139.0820000000003,308,-200,16368,-2268,-85,-29,-18
2142.739,308,-200,16336,-2216,-59,-29,-16
2144.75,308,-200,16336,-2216,-59,-29,-16
2147.485,308,-200,16336,-2216,-59,-29,-16
2151.011,308,-200,16336,-2216,-59,-29,-16
2154.4660000000003,308,-200,16336,-2216,-59,-29,-16
2155.972,308,-200,16336,-2216,-59,-29,-16
2155.972,307,-200,16336,-2216,-59,-29,-16
2155.972,308,-220,16304,-2196,15,-22,2
2166.0119999999997,308,-220,16304,-2196,15,-22,2
2168.018,308,-220,16304,-2196,15,-22,2
2168.018,307,-220,16304,-2196,15,-22,2
2174.5359999999996,308,-220,16304,-2196,15,-22,2
2174.5359999999996,308,-220,16304,-2196,15,-22,2
2177.4939999999997,307,-220,16304,-2196,15,-22,2
2180.5240000000003,308,-224,16352,-2200,-50,-46,0
2180.5240000000003,308,-224,16352,-2200,-50,-46,0
2180.5240000000003,308,-224,16352,-2200,-50,-46,0
2189.6,309,-224,16352,-2200,-50,-46,0
2193.0260000000003,308,-224,16352,-2200,-50,-46,0
2195.786,307,-224,16352,-2200,-50,-46,0
2199.3469999999998,307,-224,16352,-2200,-50,-46,0
2199.3469999999998,308,-244,16392,-2156,-86,-47,-7
2199.3469999999998,308,-244,16392,-2156,-86,-47,-7
2206.064,309,-244,16392,-2156,-86,-47,-7
2206.064,308,-244,16392,-2156,-86,-47,-7
2206.064,308,-244,16392,-2156,-86,-47,-7
2215.518,308,-244,16392,-2156,-86,-47,-7
2215.518,308,-244,16392,-2156,-86,-47,-7
2215.518,308,-168,16272,-2272,-13,-54,-13
2224.466,308,-168,16272,-2272,-13,-54,-13
2226.479,309,-168,16272,-2272,-13,-54,-13
2226.479,309,-168,16272,-2272,-13,-54,-13
2231.3830000000003,308,-168,16272,-2272,-13,-54,-13
2236.67,308,-168,16272,-2272,-13,-54,-13
2237.683,308,-168,16272,-2272,-13,-54,-13
2240.605,309,-180,16340,-2228,-24,-38,-16
2242.617,309,-180,16340,-2228,-24,-38,-16
2245.739,309,-180,16340,-2228,-24,-38,-16
2245.739,308,-180,16340,-2228,-24,-38,-16
2245.739,309,-180,16340,-2228,-24,-38,-16
2254.381,309,-180,16340,-2228,-24,-38,-16
2254.381,308,-180,16340,-2228,-24,-38,-16
2254.381,309,-188,16352,-2180,-61,-40,-1
2261.9280000000003,309,-188,16352,-2180,-61,-40,-1
2261.9280000000003,309,-188,16352,-2180,-61,-40,-1
2270.407,309,-188,16352,-2180,-61,-40,-1
2270.407,309,-188,16352,-2180,-61,-40,-1
2275.5879999999997,309,-188,16352,-2180,-61,-40,-1
2278.6279999999997,309,-188,16352,-2180,-61,-40,-1
2281.123,310,-172,16372,-2228,-9,-45,0
2281.123,310,-172,16372,-2228,-9,-45,0
2286.819,309,-172,16372,-2228,-9,-45,0
2286.819,309,-172,16372,-2228,-9,-45,0
2291.8630000000003,309,-172,16372,-2228,-9,-45,0
2295.081,310,-172,16372,-2228,-9,-45,0
2295.081,309,-172,16372,-2228,-9,-45,0
2295.081,309,-172,16372,-2228,-9,-45,0
2303.4089999999997,311,-196,16356,-2236,-39,-41,-2
2306.348,310,-196,16356,-2236,-39,-41,-2
2308.636,311,-196,16356,-2236,-39,-41,-2
2311.754,310,-196,16356,-2236,-39,-41,-2
2311.754,310,-196,16356,-2236,-39,-41,-2
2311.754,310,-196,16356,-2236,-39,-41,-2
2319.8940000000002,310,-196,16356,-2236,-39,-41,-2
2319.8940000000002,311,-188,16340,-2212,-65,-57,-8
2325.261,311,-188,16340,-2212,-65,-57,-8
2328.117,311,-188,16340,-2212,-65,-57,-8
2328.117,311,-188,16340,-2212,-65,-57,-8
2328.117,311,-188,16340,-2212,-65,-57,-8
2338.178,311,-188,16340,-2212,-65,-57,-8
2338.178,311,-188,16340,-2212,-65,-57,-8
2342.759,312,-184,16400,-2204,-1,-35,-11
2347.162,312,-184,16400,-2204,-1,-35,-11
2347.162,312,-184,16400,-2204,-1,-35,-11
2347.162,312,-184,16400,-2204,-1,-35,-11
2355.795,311,-184,16400,-2204,-1,-35,-11
2358.908,312,-184,16400,-2204,-1,-35,-11
2360.926,312,-184,16400,-2204,-1,-35,-11
2362.9410000000003,312,-236,16344,-2232,-20,-34,-9
2362.9410000000003,312,-236,16344,-2232,-20,-34,-9
2369.084,312,-236,16344,-2232,-20,-34,-9
2369.084,312,-236,16344,-2232,-20,-34,-9
2375.352,313,-236,16344,-2232,-20,-34,-9
2377.089,312,-236,16344,-2232,-20,-34,-9
2380.1420000000003,312,-236,16344,-2232,-20,-34,-9
2382.793,313,-228,16380,-2192,-74,-34,-17
2384.806,313,-228,16380,-2192,-74,-34,-17
2388.836,313,-228,16380,-2192,-74,-34,-17
2392.861,313,-228,16380,-2192,-74,-34,-17
2392.861,313,-228,16380,-2192,-74,-34,-17
2392.861,312,-228,16380,-2192,-74,-34,-17
2392.861,313,-228,16380,-2192,-74,-34,-17
2403.931,313,-200,16360,-2192,-13,-34,-11
2406.0609999999997,313,-200,16360,-2192,-13,-34,-11
2409.164,314,-200,16360,-2192,-13,-34,-11
2409.164,314,-200,16360,-2192,-13,-34,-11
2409.164,313,-200,16360,-2192,-13,-34,-11
2417.496,313,-200,16360,-2192,-13,-34,-11
2417.496,314,-200,16360,-2192,-13,-34,-11
2425.03,314,-204,16376,-2228,-26,-27,-21
2426.971,314,-204,16376,-2228,-26,-27,-21
2426.971,314,-204,16376,-2228,-26,-27,-21
2433.359,315,-204,16376,-2228,-26,-27,-21
2433.359,315,-204,16376,-2228,-26,-27,-21
2439.129,314,-204,16376,-2228,-26,-27,-21
2441.729,314,-204,16376,-2228,-26,-27,-21
2442.742,315,-192,16280,-2220,-85,-36,10
2442.742,315,-192,16280,-2220,-85,-36,10
2449.771,315,-192,16280,-2220,-85,-36,10
2452.2650000000003,315,-192,16280,-2220,-85,-36,10
2454.277,315,-192,16280,-2220,-85,-36,10
2458.256,315,-192,16280,-2220,-85,-36,10
2458.256,315,-192,16280,-2220,-85,-36,10
2458.256,315,-204,16408,-2208,-2,-26,-9
2466.754,316,-204,16408,-2208,-2,-26,-9
2470.337,316,-204,16408,-2208,-2,-26,-9
2471.17,315,-204,16408,-2208,-2,-26,-9
2474.507,315,-204,16408,-2208,-2,-26,-9
2474.507,315,-204,16408,-2208,-2,-26,-9
2474.507,315,-204,16408,-2208,-2,-26,-9
2482.859,315,-200,16360,-2244,-56,-30,-22
2485.847,315,-200,16360,-2244,-56,-30,-22
2489.016,316,-200,16360,-2244,-56,-30,-22
2491.6710000000003,316,-200,16360,-2244,-56,-30,-22
2495.18,315,-200,16360,-2244,-56,-30,-22
2499.208,315,-200,16360,-2244,-56,-30,-22
2499.8830000000003,316,-200,16360,-2244,-56,-30,-22
2499.8830000000003,317,-192,16320,-2228,-104,-46,-8
2507.435,316,-192,16320,-2228,-104,-46,-8
2507.435,317,-192,16320,-2228,-104,-46,-8
2507.435,317,-192,16320,-2228,-104,-46,-8
2515.6040000000003,316,-192,16320,-2228,-104,-46,-8
2519.175,316,-192,16320,-2228,-104,-46,-8
2519.175,317,-192,16320,-2228,-104,-46,-8
2523.662,317,-204,16360,-2216,23,-40,-12
2527.9440000000004,317,-204,16360,-2216,23,-40,-12
2530.19,318,-204,16360,-2216,23,-40,-12
2532.693,318,-204,16360,-2216,23,-40,-12
2532.693,317,-204,16360,-2216,23,-40,-12
2532.693,318,-204,16360,-2216,23,-40,-12
2540.419,318,-204,16360,-2216,23,-40,-12
2542.962,319,-192,16392,-2208,-20,-22,-24
2546.8160000000003,319,-192,16392,-2208,-20,-22,-24
2548.511,319,-192,16392,-2208,-20,-22,-24
2548.511,319,-192,16392,-2208,-20,-22,-24
2556.653,319,-192,16392,-2208,-20,-22,-24
2558.15,320,-192,16392,-2208,-20,-22,-24
2558.15,320,-232,16336,-2204,-87,-43,-19
2564.6040000000003,322,-232,16336,-2204,-87,-43,-19
2565.87,321,-232,16336,-2204,-87,-43,-19
2565.87,322,-232,16336,-2204,-87,-43,-19
2574.692,322,-232,16336,-2204,-87,-43,-19
2576.811,322,-232,16336,-2204,-87,-43,-19
2579.8,322,-232,16336,-2204,-87,-43,-19
2581.532,324,-176,16336,-2224,-7,-20,-10
2583.2639999999997,324,-176,16336,-2224,-7,-20,-10
2583.2639999999997,325,-176,16336,-2224,-7,-20,-10
2589.585,325,-176,16336,-2224,-7,-20,-10
2592.987,325,-176,16336,-2224,-7,-20,-10
2592.987,325,-176,16336,-2224,-7,-20,-10
2597.945,326,-176,16336,-2224,-7,-20,-10
2597.945,326,-160,16360,-2212,-29,-62,-22
2597.945,327,-160,16360,-2212,-29,-62,-22
2607.9979999999996,328,-160,16360,-2212,-29,-62,-22
2610.827,328,-160,16360,-2212,-29,-62,-22
2610.827,329,-160,16360,-2212,-29,-62,-22
2614.74,328,-160,16360,-2212,-29,-62,-22
2614.74,329,-160,16360,-2212,-29,-62,-22
2614.74,330,-128,16344,-2244,-84,-55,-28
2623.692,331,-128,16344,-2244,-84,-55,-28
2623.692,331,-128,16344,-2244,-84,-55,-28
2631.084,331,-128,16344,-2244,-84,-55,-28
2631.084,331,-128,16344,-2244,-84,-55,-28
2631.084,331,-128,16344,-2244,-84,-55,-28
2639.5409999999997,332,-128,16344,-2244,-84,-55,-28
2643.304,333,-180,16332,-2224,-8,-33,-3
2645.195,333,-180,16332,-2224,-8,-33,-3
2649.404,334,-180,16332,-2224,-8,-33,-3
2651.5499999999997,333,-180,16332,-2224,-8,-33,-3
2653.56,333,-180,16332,-2224,-8,-33,-3
2658.367,333,-180,16332,-2224,-8,-33,-3
2659.076,333,-180,16332,-2224,-8,-33,-3
2661.581,335,-200,16360,-2224,-20,-25,5
2663.805,334,-200,16360,-2224,-20,-25,5
2663.805,335,-200,16360,-2224,-20,-25,5
2663.805,336,-200,16360,-2224,-20,-25,5
2671.944,335,-200,16360,-2224,-20,-25,5
2676.539,335,-200,16360,-2224,-20,-25,5
2679.062,336,-200,16360,-2224,-20,-25,5
2682.102,337,-200,16360,-2224,-20,-25,5
2684.132,336,-208,16320,-2212,-88,-32,-9
2688.477,337,-208,16320,-2212,-88,-32,-9
2688.477,337,-208,16320,-2212,-88,-32,-9
2688.477,337,-208,16320,-2212,-88,-32,-9
2695.174,336,-208,16320,-2212,-88,-32,-9
2698.009,337,-208,16320,-2212,-88,-32,-9
2698.009,337,-208,16320,-2212,-88,-32,-9
2702.6279999999997,337,-216,16348,-2196,-15,-30,-5
2708.4100000000003,338,-216,16348,-2196,-15,-30,-5
2711.216,337,-216,16348,-2196,-15,-30,-5
2711.216,337,-216,16348,-2196,-15,-30,-5
2713.859,337,-216,16348,-2196,-15,-30,-5
2713.859,337,-216,16348,-2196,-15,-30,-5
2713.859,337,-216,16348,-2196,-15,-30,-5
2725.139,337,-188,16320,-2204,-19,-53,-33
2727.27,337,-188,16320,-2204,-19,-53,-33
2730.301,337,-188,16320,-2204,-19,-53,-33
2732.3179999999998,337,-188,16320,-2204,-19,-53,-33
2736.348,337,-188,16320,-2204,-19,-53,-33
2740.371,336,-188,16320,-2204,-19,-53,-33
2741.232,337,-188,16320,-2204,-19,-53,-33
2760.146,336,-272,16388,-2240,-73,-40,-3
2762.157,337,-272,16388,-2240,-73,-40,-3
2763.162,336,-272,16388,-2240,-73,-40,-3
2763.162,336,-272,16388,-2240,-73,-40,-3
2765.168,336,-272,16388,-2240,-73,-40,-3
2765.168,336,-272,16388,-2240,-73,-40,-3
2767.1730000000002,336,-272,16388,-2240,-73,-40,-3
2767.1730000000002,336,-220,16280,-2196,-22,-54,-21
2769.1780000000003,336,-220,16280,-2196,-22,-54,-21
2769.1780000000003,336,-220,16280,-2196,-22,-54,-21
2773.189,336,-220,16280,-2196,-22,-54,-21
2774.521,335,-220,16280,-2196,-22,-54,-21
2774.521,336,-220,16280,-2196,-22,-54,-21
2779.452,336,-228,16280,-2196,-1,-43,8
2784.305,336,-228,16280,-2196,-1,-43,8
2786.315,336,-228,16280,-2196,-1,-43,8
2789.8269999999998,336,-228,16280,-2196,-1,-43,8
2792.4790000000003,335,-228,16280,-2196,-1,-43,8
2792.4790000000003,335,-228,16280,-2196,-1,-43,8
2796.371,335,-228,16280,-2196,-1,-43,8
2796.371,335,-228,16280,-2196,-1,-43,8
2796.371,334,-196,16348,-2240,-42,-43,-13
2804.448,334,-196,16348,-2240,-42,-43,-13
2807.607,334,-196,16348,-2240,-42,-43,-13
2812.809,333,-196,16348,-2240,-42,-43,-13
2812.809,333,-196,16348,-2240,-42,-43,-13
2812.809,332,-196,16348,-2240,-42,-43,-13
2821.0519999999997,331,-196,16348,-2240,-42,-43,-13
2821.0519999999997,332,-196,16348,-2216,-47,-51,-12
2825.2760000000003,330,-196,16348,-2216,-47,-51,-12
2829.334,330,-196,16348,-2216,-47,-51,-12
2829.334,330,-196,16348,-2216,-47,-51,-12
2829.334,329,-196,16348,-2216,-47,-51,-12
2837.808,328,-196,16348,-2216,-47,-51,-12
2843.442,327,-196,16348,-2216,-47,-51,-12
2843.442,327,-196,16352,-2224,8,-28,1
2846.122,326,-196,16352,-2224,8,-28,1
2846.122,325,-196,16352,-2224,8,-28,1
2846.122,325,-196,16352,-2224,8,-28,1
2854.0640000000003,324,-196,16352,-2224,8,-28,1
2854.0640000000003,324,-196,16352,-2224,8,-28,1
2854.0640000000003,323,-196,16352,-2224,8,-28,1
2863.56,323,-172,16376,-2228,-28,-46,-13
2864.4599999999996,321,-172,16376,-2228,-28,-46,-13
2864.4599999999996,321,-172,16376,-2228,-28,-46,-13
2870.849,321,-172,16376,-2228,-28,-46,-13
2875.4849999999997,319,-172,16376,-2228,-28,-46,-13
2875.4849999999997,318,-172,16376,-2228,-28,-46,-13
2878.965,318,-172,16376,-2228,-28,-46,-13
2878.965,318,-236,16364,-2204,-66,-30,-9
2878.965,316,-236,16364,-2204,-66,-30,-9
2887.0840000000003,316,-236,16364,-2204,-66,-30,-9
2887.0840000000003,316,-236,16364,-2204,-66,-30,-9
2895.3030000000003,315,-236,16364,-2204,-66,-30,-9
2895.3030000000003,314,-236,16364,-2204,-66,-30,-9
2898.318,313,-236,16364,-2204,-66,-30,-9
2903.668,313,-216,16356,-2240,-18,-40,-12
2903.668,312,-216,16356,-2240,-18,-40,-12
2909.221,312,-216,16356,-2240,-18,-40,-12
2912.7619999999997,312,-216,16356,-2240,-18,-40,-12
2915.858,310,-216,16356,-2240,-18,-40,-12
2915.858,310,-216,16356,-2240,-18,-40,-12
2919.997,310,-216,16356,-2240,-18,-40,-12
2924.54,309,-204,16376,-2240,-29,-35,-8
2925.7149999999997,309,-204,16376,-2240,-29,-35,-8
2928.07,309,-204,16376,-2240,-29,-35,-8
2928.07,308,-204,16376,-2240,-29,-35,-8
2928.07,308,-204,16376,-2240,-29,-35,-8
2937.3010000000004,307,-204,16376,-2240,-29,-35,-8
2937.3010000000004,307,-204,16376,-2240,-29,-35,-8
2943.526,306,-184,16328,-2244,-60,-47,-4
2944.545,306,-184,16328,-2244,-60,-47,-4
2944.545,305,-184,16328,-2244,-60,-47,-4
2953.133,305,-184,16328,-2244,-60,-47,-4
2953.133,305,-184,16328,-2244,-60,-47,-4
2955.449,304,-184,16328,-2244,-60,-47,-4
2961.562,304,-184,16328,-2244,-60,-47,-4
2961.562,304,-188,16316,-2212,-28,-38,0
2961.562,305,-188,16316,-2212,-28,-38,0
2969.831,304,-188,16316,-2212,-28,-38,0
2969.831,303,-188,16316,-2212,-28,-38,0
2975.4559999999997,302,-188,16316,-2212,-28,-38,0
2978.1780000000003,302,-188,16316,-2212,-28,-38,0
2978.1780000000003,302,-188,16316,-2212,-28,-38,0
2978.1780000000003,302,-188,16316,-2212,-28,-38,0
2986.312,302,-152,16372,-2260,18,-46,-22
2986.312,302,-152,16372,-2260,18,-46,-22
2986.312,301,-152,16372,-2260,18,-46,-22
2995.165,301,-152,16372,-2260,18,-46,-22
2998.754,301,-152,16372,-2260,18,-46,-22
2998.754,300,-152,16372,-2260,18,-46,-22
3002.771,300,-152,16372,-2260,18,-46,-22
3002.771,300,-216,16360,-2248,-96,-57,2
3008.5190000000002,300,-216,16360,-2248,-96,-57,2
3010.9300000000003,300,-216,16360,-2248,-96,-57,2
3014.957,300,-216,16360,-2248,-96,-57,2
3014.957,299,-216,16360,-2248,-96,-57,2
3019.042,299,-216,16360,-2248,-96,-57,2
3022.5209999999997,300,-216,16360,-2248,-96,-57,2
3024.537,299,-164,16348,-2164,-26,-27,7
3027.415,300,-164,16348,-2164,-26,-27,7
3030.8160000000003,299,-164,16348,-2164,-26,-27,7
3032.8309999999997,298,-164,16348,-2164,-26,-27,7
3035.853,298,-164,16348,-2164,-26,-27,7
3035.853,298,-164,16348,-2164,-26,-27,7
3042.186,298,-164,16348,-2164,-26,-27,7
3043.702,298,-196,16348,-2216,17,-54,-12
3047.047,298,-196,16348,-2216,17,-54,-12
3047.047,298,-196,16348,-2216,17,-54,-12
3052.0209999999997,297,-196,16348,-2216,17,-54,-12
3052.0209999999997,297,-196,16348,-2216,17,-54,-12
3052.0209999999997,298,-196,16348,-2216,17,-54,-12
3059.7349999999997,297,-196,16348,-2216,17,-54,-12
3063.9379999999996,297,-196,16348,-2220,-90,-31,-26
3068.1929999999998,298,-196,16348,-2220,-90,-31,-26
3068.1929999999998,297,-196,16348,-2220,-90,-31,-26
3068.1929999999998,297,-196,16348,-2220,-90,-31,-26
3076.377,296,-196,16348,-2220,-90,-31,-26
3076.377,296,-196,16348,-2220,-90,-31,-26
3076.377,297,-196,16348,-2220,-90,-31,-26
3084.6809999999996,297,-216,16332,-2236,-63,-34,-22
3084.6809999999996,297,-216,16332,-2236,-63,-34,-22
3084.6809999999996,296,-216,16332,-2236,-63,-34,-22
3092.9700000000003,296,-216,16332,-2236,-63,-34,-22
3092.9700000000003,296,-216,16332,-2236,-63,-34,-22
3092.9700000000003,296,-216,16332,-2236,-63,-34,-22
3101.424,295,-216,16332,-2236,-63,-34,-22
3101.424,296,-212,16336,-2212,23,-40,-9
3101.424,296,-212,16336,-2212,23,-40,-9
3109.455,296,-212,16336,-2212,23,-40,-9
3112.846,295,-212,16336,-2212,23,-40,-9
3117.687,295,-212,16336,-2212,23,-40,-9
3117.687,294,-212,16336,-2212,23,-40,-9
3117.687,295,-212,16336,-2212,23,-40,-9
3125.995,294,-224,16324,-2232,-50,-55,-19
3128.008,294,-224,16324,-2232,-50,-55,-19
3128.008,295,-224,16324,-2232,-50,-55,-19
3128.008,294,-224,16324,-2232,-50,-55,-19
3134.5429999999997,294,-224,16324,-2232,-50,-55,-19
3134.5429999999997,293,-224,16324,-2232,-50,-55,-19
3142.3999999999996,294,-224,16324,-2232,-50,-55,-19
3143.917,295,-232,16300,-2232,-71,-33,-8
3143.917,294,-232,16300,-2232,-71,-33,-8
3150.456,293,-232,16300,-2232,-71,-33,-8
3151.404,293,-232,16300,-2232,-71,-33,-8
3151.404,294,-232,16300,-2232,-71,-33,-8
3158.719,293,-232,16300,-2232,-71,-33,-8
3160.738,293,-232,16300,-2232,-71,-33,-8
3160.738,293,-180,16388,-2220,4,-46,-27
3166.8959999999997,293,-180,16388,-2220,4,-46,-27
3166.8959999999997,293,-180,16388,-2220,4,-46,-27
3166.8959999999997,293,-180,16388,-2220,4,-46,-27
3175.174,293,-180,16388,-2220,4,-46,-27
3179.203,292,-180,16388,-2220,4,-46,-27
3179.853,292,-180,16388,-2220,4,-46,-27
3183.551,293,-204,16340,-2208,-16,-30,-29
3183.551,293,-204,16340,-2208,-16,-30,-29
3183.551,292,-204,16340,-2208,-16,-30,-29
3191.978,292,-204,16340,-2208,-16,-30,-29
3191.978,292,-204,16340,-2208,-16,-30,-29
3191.978,292,-204,16340,-2208,-16,-30,-29
3199.9990000000003,291,-204,16340,-2208,-16,-30,-29
3199.9990000000003,292,-192,16352,-2184,-93,-23,-19
3208.64,291,-192,16352,-2184,-93,-23,-19
3210.697,291,-192,16352,-2184,-93,-23,-19
3212.067,291,-192,16352,-2184,-93,-23,-19
3214.804,290,-192,16352,-2184,-93,-23,-19
3217.8300000000004,291,-192,16352,-2184,-93,-23,-19
3221.252,291,-192,16352,-2184,-93,-23,-19
3225.1409999999996,290,-152,16300,-2176,-19,-31,-1
3228.027,290,-152,16300,-2176,-19,-31,-1
3232.042,290,-152,16300,-2176,-19,-31,-1
3233.0420000000004,290,-152,16300,-2176,-19,-31,-1
3237.225,289,-152,16300,-2176,-19,-31,-1
3239.332,289,-152,16300,-2176,-19,-31,-1
3241.425,289,-152,16300,-2176,-19,-31,-1
3243.953,288,-220,16388,-2192,-2,-41,0
3246.846,289,-220,16388,-2192,-2,-41,0
3249.523,288,-220,16388,-2192,-2,-41,0
3249.523,289,-220,16388,-2192,-2,-41,0
3249.523,288,-220,16388,-2192,-2,-41,0
3257.724,288,-220,16388,-2192,-2,-41,0
3259.9390000000003,288,-220,16388,-2192,-2,-41,0
3259.9390000000003,288,-220,16388,-2192,-2,-41,0
3265.7509999999997,288,-196,16364,-2216,-89,-38,-6
3269.065,288,-196,16364,-2216,-89,-38,-6
3269.065,287,-196,16364,-2216,-89,-38,-6
3274.073,288,-196,16364,-2216,-89,-38,-6
3276.087,287,-196,16364,-2216,-89,-38,-6
3279.489,287,-196,16364,-2216,-89,-38,-6
3282.112,287,-196,16364,-2216,-89,-38,-6
3285.287,287,-160,16332,-2188,-49,-29,-6
3285.287,287,-160,16332,-2188,-49,-29,-6
3292.023,287,-160,16332,-2188,-49,-29,-6
3294.108,286,-160,16332,-2188,-49,-29,-6
3296.118,287,-160,16332,-2188,-49,-29,-6
3298.7540000000004,286,-160,16332,-2188,-49,-29,-6
3298.7540000000004,286,-160,16332,-2188,-49,-29,-6
3303.237,286,-240,16384,-2228,8,-32,-23
3309.297,287,-240,16384,-2228,8,-32,-23
3311.309,287,-240,16384,-2228,8,-32,-23
3313.835,286,-240,16384,-2228,8,-32,-23
3315.47,286,-240,16384,-2228,8,-32,-23
3315.47,286,-240,16384,-2228,8,-32,-23
3315.47,286,-240,16384,-2228,8,-32,-23
3323.722,287,-228,16292,-2224,-73,-54,1
3327.609,286,-228,16292,-2224,-73,-54,1
3330.332,287,-228,16292,-2224,-73,-54,1
3332.2349999999997,287,-228,16292,-2224,-73,-54,1
3332.2349999999997,286,-228,16292,-2224,-73,-54,1
3332.2349999999997,286,-228,16292,-2224,-73,-54,1
3340.663,286,-228,16292,-2224,-73,-54,1
3343.9359999999997,287,-208,16368,-2208,-59,-25,-12
3343.9359999999997,286,-208,16368,-2208,-59,-25,-12
3349.131,287,-208,16368,-2208,-59,-25,-12
3351.15,287,-208,16368,-2208,-59,-25,-12
3354.6730000000002,287,-208,16368,-2208,-59,-25,-12
3358.8230000000003,286,-208,16368,-2208,-59,-25,-12
3362.139,287,-208,16368,-2208,-59,-25,-12
3362.139,287,-172,16372,-2228,10,-47,-21
3365.927,287,-172,16372,-2228,10,-47,-21
3365.927,286,-172,16372,-2228,10,-47,-21
3365.927,287,-172,16372,-2228,10,-47,-21
3375.955,287,-172,16372,-2228,10,-47,-21
3378.2290000000003,286,-172,16372,-2228,10,-47,-21
3380.133,286,-172,16372,-2228,10,-47,-21
3384.524,287,-212,16308,-2236,-50,-31,-3
3384.524,287,-212,16308,-2236,-50,-31,-3
3391.406,287,-212,16308,-2236,-50,-31,-3
3391.406,287,-212,16308,-2236,-50,-31,-3
3395.336,287,-212,16308,-2236,-50,-31,-3
3398.8540000000003,288,-212,16308,-2236,-50,-31,-3
3398.8540000000003,288,-212,16308,-2236,-50,-31,-3
3403.7760000000003,287,-160,16316,-2172,-60,-31,-10
3408.2560000000003,288,-160,16316,-2172,-60,-31,-10
3408.2560000000003,289,-160,16316,-2172,-60,-31,-10
3412.651,288,-160,16316,-2172,-60,-31,-10
3415.879,288,-160,16316,-2172,-60,-31,-10
3420.547,288,-160,16316,-2172,-60,-31,-10
3420.547,288,-160,16316,-2172,-60,-31,-10
3423.558,288,-236,16360,-2220,2,-43,-31
3423.558,288,-236,16360,-2220,2,-43,-31
3423.558,288,-236,16360,-2220,2,-43,-31
3432.524,288,-236,16360,-2220,2,-43,-31
3435.998,288,-236,16360,-2220,2,-43,-31
3435.998,288,-236,16360,-2220,2,-43,-31
3441.212,288,-236,16360,-2220,2,-43,-31
3444.142,288,-180,16332,-2236,-32,-20,-20
3444.142,288,-180,16332,-2236,-32,-20,-20
3448.2050000000004,289,-180,16332,-2236,-32,-20,-20
3448.2050000000004,289,-180,16332,-2236,-32,-20,-20
3456.7670000000003,288,-180,16332,-2236,-32,-20,-20
3458.1940000000004,288,-180,16332,-2236,-32,-20,-20
3458.1940000000004,289,-180,16332,-2236,-32,-20,-20
3464.945,289,-232,16360,-2204,-40,-65,0
3464.945,289,-232,16360,-2204,-40,-65,0
3464.945,289,-232,16360,-2204,-40,-65,0
3473.0789999999997,289,-232,16360,-2204,-40,-65,0
3475.091,288,-232,16360,-2204,-40,-65,0
3477.5719999999997,289,-232,16360,-2204,-40,-65,0
3481.4440000000004,288,-232,16360,-2204,-40,-65,0
3482.922,288,-232,16360,-2204,-40,-65,0
3486.18,289,-148,16308,-2248,-28,-33,-33
3490.004,289,-148,16308,-2248,-28,-33,-33
3493.883,289,-148,16308,-2248,-28,-33,-33
3493.883,289,-148,16308,-2248,-28,-33,-33
3498.215,288,-148,16308,-2248,-28,-33,-33
3498.215,289,-148,16308,-2248,-28,-33,-33
3503.2580000000003,289,-224,16352,-2224,-8,-45,-10
3506.399,289,-224,16352,-2224,-8,-45,-10
3508.404,290,-224,16352,-2224,-8,-45,-10
3508.404,290,-224,16352,-2224,-8,-45,-10
3514.6609999999996,289,-224,16352,-2224,-8,-45,-10
3514.6609999999996,289,-224,16352,-2224,-8,-45,-10
3521.973,289,-224,16352,-2224,-8,-45,-10
3522.979,289,-212,16380,-2244,-57,-55,-26
3524.7760000000003,290,-212,16380,-2244,-57,-55,-26
3524.7760000000003,290,-212,16380,-2244,-57,-55,-26
3531.234,290,-212,16380,-2244,-57,-55,-26
3532.3799999999997,290,-212,16380,-2244,-57,-55,-26
3539.671,290,-212,16380,-2244,-57,-55,-26
3539.671,291,-212,16380,-2244,-57,-55,-26
3544.288,291,-200,16348,-2196,-37,-22,-11
3547.7059999999997,291,-200,16348,-2196,-37,-22,-11
3549.138,291,-200,16348,-2196,-37,-22,-11
3549.138,290,-200,16348,-2196,-37,-22,-11
3555.882,290,-200,16348,-2196,-37,-22,-11
3555.882,291,-200,16348,-2196,-37,-22,-11
3564.0480000000002,291,-200,16348,-2196,-37,-22,-11
3564.0480000000002,291,-176,16324,-2216,-27,-37,-5
3564.0480000000002,291,-176,16324,-2216,-27,-37,-5
3564.0480000000002,291,-176,16324,-2216,-27,-37,-5
3572.416,291,-176,16324,-2216,-27,-37,-5
3575.231,291,-176,16324,-2216,-27,-37,-5
3580.1690000000003,291,-176,16324,-2216,-27,-37,-5
3580.1690000000003,291,-176,16324,-2216,-27,-37,-5
3580.1690000000003,292,-180,16332,-2220,-37,-32,-14
3588.6059999999998,292,-180,16332,-2220,-37,-32,-14
3591.855,293,-180,16332,-2220,-37,-32,-14
3591.855,292,-180,16332,-2220,-37,-32,-14
3596.9159999999997,292,-180,16332,-2220,-37,-32,-14
3600.685,292,-180,16332,-2220,-37,-32,-14
3600.685,292,-180,16332,-2220,-37,-32,-14
3605.2810000000004,292,-188,16364,-2256,-33,-38,-8
3605.654,293,-188,16364,-2256,-33,-38,-8
3605.654,292,-188,16364,-2256,-33,-38,-8
3613.473,292,-188,16364,-2256,-33,-38,-8
3617.037,292,-188,16364,-2256,-33,-38,-8
3617.037,292,-188,16364,-2256,-33,-38,-8
3621.727,293,-188,16364,-2256,-33,-38,-8
3621.727,293,-228,16312,-2220,-51,-43,-11
3621.727,293,-228,16312,-2220,-51,-43,-11
3629.956,293,-228,16312,-2220,-51,-43,-11
3631.184,293,-228,16312,-2220,-51,-43,-11
3631.184,293,-228,16312,-2220,-51,-43,-11
3641.502,292,-228,16312,-2220,-51,-43,-11
3641.502,293,-228,16312,-2220,-51,-43,-11
3644.527,294,-216,16336,-2208,-11,-32,12
3649.81,293,-216,16336,-2208,-11,-32,12
3649.81,293,-216,16336,-2208,-11,-32,12
3649.81,293,-216,16336,-2208,-11,-32,12
3656.898,293,-216,16336,-2208,-11,-32,12
3658.9100000000003,293,-216,16336,-2208,-11,-32,12
3662.938,293,-216,16336,-2208,-11,-32,12
3666.2,294,-196,16344,-2232,-41,-55,1
3670.298,294,-196,16344,-2232,-41,-55,1
3671.2189999999996,294,-196,16344,-2232,-41,-55,1
3675.74,293,-196,16344,-2232,-41,-55,1
3677.767,294,-196,16344,-2232,-41,-55,1
3679.531,294,-196,16344,-2232,-41,-55,1
3682.297,294,-196,16344,-2232,-41,-55,1
3685.521,294,-244,16344,-2184,-30,-50,-4
3687.58,294,-244,16344,-2184,-30,-50,-4
3691.3269999999998,294,-244,16344,-2184,-30,-50,-4
3693.789,294,-244,16344,-2184,-30,-50,-4
3696.222,294,-244,16344,-2184,-30,-50,-4
3699.332,294,-244,16344,-2184,-30,-50,-4
3702.102,294,-244,16344,-2184,-30,-50,-4
3703.8540000000003,294,-228,16316,-2244,-30,-45,1
3707.193,295,-228,16316,-2244,-30,-45,1
3711.086,295,-228,16316,-2244,-30,-45,1
3712.093,295,-228,16316,-2244,-30,-45,1
3712.093,294,-228,16316,-2244,-30,-45,1
3712.093,294,-228,16316,-2244,-30,-45,1
3720.594,294,-228,16316,-2244,-30,-45,1
3720.594,295,-228,16316,-2244,-30,-45,1
3720.594,295,-200,16348,-2212,-24,-45,-3
3731.944,295,-200,16348,-2212,-24,-45,-3
3732.3759999999997,295,-200,16348,-2212,-24,-45,-3
3732.3759999999997,294,-200,16348,-2212,-24,-45,-3
3738.374,295,-200,16348,-2212,-24,-45,-3
3738.374,295,-200,16348,-2212,-24,-45,-3
3744.521,295,-200,16348,-2212,-24,-45,-3
3748.228,295,-200,16392,-2204,-31,-29,-21
3749.44,295,-200,16392,-2204,-31,-29,-21
3749.44,294,-200,16392,-2204,-31,-29,-21
3753.733,295,-200,16392,-2204,-31,-29,-21
3758.94,295,-200,16392,-2204,-31,-29,-21
3758.94,294,-200,16392,-2204,-31,-29,-21
3761.895,296,-200,16392,-2204,-31,-29,-21
3761.895,296,-164,16388,-2252,-56,-34,-23
3770.251,295,-164,16388,-2252,-56,-34,-23
3770.251,295,-164,16388,-2252,-56,-34,-23
3776.0379999999996,295,-164,16388,-2252,-56,-34,-23
3778.5829999999996,295,-164,16388,-2252,-56,-34,-23
3778.5829999999996,295,-164,16388,-2252,-56,-34,-23
3778.5829999999996,296,-172,16292,-2208,-15,-29,-23
3788.3070000000002,296,-172,16292,-2208,-15,-29,-23
3788.3070000000002,296,-172,16292,-2208,-15,-29,-23
3792.713,295,-172,16292,-2208,-15,-29,-23
3797.2619999999997,295,-172,16292,-2208,-15,-29,-23
3797.2619999999997,295,-172,16292,-2208,-15,-29,-23
3797.2619999999997,296,-172,16292,-2208,-15,-29,-23
3805.431,296,-176,16356,-2240,-37,-42,-10
3808.319,297,-176,16356,-2240,-37,-42,-10
3808.319,297,-176,16356,-2240,-37,-42,-10
3813.65,296,-176,16356,-2240,-37,-42,-10
3814.946,296,-176,16356,-2240,-37,-42,-10
3821.94,296,-176,16356,-2240,-37,-42,-10
3822.527,296,-176,16356,-2240,-37,-42,-10
3824.569,296,-216,16324,-2228,-60,-34,-12
3830.0299999999997,297,-216,16324,-2228,-60,-34,-12
3830.0299999999997,297,-216,16324,-2228,-60,-34,-12
3830.0299999999997,297,-216,16324,-2228,-60,-34,-12
3838.235,297,-216,16324,-2228,-60,-34,-12
3838.235,296,-216,16324,-2228,-60,-34,-12
3844.447,297,-216,16324,-2228,-60,-34,-12
3846.431,297,-152,16360,-2260,-13,-28,0
3847.4230000000002,297,-152,16360,-2260,-13,-28,0
3847.4230000000002,297,-152,16360,-2260,-13,-28,0
3854.701,297,-152,16360,-2260,-13,-28,0
3858.447,297,-152,16360,-2260,-13,-28,0
3860.56,296,-152,16360,-2260,-13,-28,0
3863.147,297,-152,16360,-2260,-13,-28,0
3863.147,297,-236,16336,-2248,-22,-43,0
3863.147,298,-236,16336,-2248,-22,-43,0
3871.2819999999997,297,-236,16336,-2248,-22,-43,0
3873.2929999999997,297,-236,16336,-2248,-22,-43,0
3873.2929999999997,297,-236,16336,-2248,-22,-43,0
3878.59,297,-236,16336,-2248,-22,-43,0
3882.726,298,-236,16336,-2248,-22,-43,0
3882.726,298,-220,16292,-2204,-88,-23,-10
3887.747,298,-220,16292,-2204,-88,-23,-10
3887.747,299,-220,16292,-2204,-88,-23,-10
3892.9429999999998,298,-220,16292,-2204,-88,-23,-10
3895.848,298,-220,16292,-2204,-88,-23,-10
3895.848,298,-220,16292,-2204,-88,-23,-10
3903.993,298,-220,16292,-2204,-88,-23,-10
3904.629,298,-208,16340,-2180,-11,-24,-2
3905.841,298,-208,16340,-2180,-11,-24,-2
3911.598,299,-208,16340,-2180,-11,-24,-2
3911.598,299,-208,16340,-2180,-11,-24,-2
3911.598,298,-208,16340,-2180,-11,-24,-2
3919.824,298,-208,16340,-2180,-11,-24,-2
3919.824,298,-208,16340,-2180,-11,-24,-2
3925.735,299,-240,16356,-2272,-6,-33,6
3928.166,299,-240,16356,-2272,-6,-33,6
3928.166,299,-240,16356,-2272,-6,-33,6
3928.166,299,-240,16356,-2272,-6,-33,6
3936.3269999999998,298,-240,16356,-2272,-6,-33,6
3937.144,298,-240,16356,-2272,-6,-33,6
3938.573,299,-240,16356,-2272,-6,-33,6
3944.4750000000004,299,-240,16356,-2272,-6,-33,6
3944.4750000000004,300,-196,16332,-2232,-94,-28,-25
3944.4750000000004,300,-196,16332,-2232,-94,-28,-25
3952.631,300,-196,16332,-2232,-94,-28,-25
3952.631,300,-196,16332,-2232,-94,-28,-25
3959.002,300,-196,16332,-2232,-94,-28,-25
3960.735,300,-196,16332,-2232,-94,-28,-25
3964.757,300,-196,16332,-2232,-94,-28,-25
3964.757,300,-224,16356,-2180,-27,-25,-3
3968.967,300,-224,16356,-2180,-27,-25,-3
3968.967,301,-224,16356,-2180,-27,-25,-3
3977.0919999999996,300,-224,16356,-2180,-27,-25,-3
3978.0009999999997,300,-224,16356,-2180,-27,-25,-3
3981.6029999999996,301,-224,16356,-2180,-27,-25,-3
3985.675,301,-224,16356,-2180,-27,-25,-3
3985.675,300,-148,16364,-2232,2,-28,-9
3985.675,301,-148,16364,-2232,2,-28,-9
3993.396,301,-148,16364,-2232,2,-28,-9
3994.125,301,-148,16364,-2232,2,-28,-9
3994.125,300,-148,16364,-2232,2,-28,-9
4001.607,301,-148,16364,-2232,2,-28,-9
4001.607,301,-148,16364,-2232,2,-28,-9
4003.621,301,-252,16364,-2228,-82,-21,-12
4010.2479999999996,301,-252,16364,-2228,-82,-21,-12
4010.2479999999996,301,-252,16364,-2228,-82,-21,-12
4014.373,301,-252,16364,-2228,-82,-21,-12
4018.4860000000003,301,-252,16364,-2228,-82,-21,-12
4020.4959999999996,302,-252,16364,-2228,-82,-21,-12
4021.408,301,-252,16364,-2228,-82,-21,-12
4026.832,302,-220,16328,-2216,-49,-25,-10
4030.7380000000003,302,-220,16328,-2216,-49,-25,-10
4030.7380000000003,302,-220,16328,-2216,-49,-25,-10
4035.1429999999996,301,-220,16328,-2216,-49,-25,-10
4035.1429999999996,301,-220,16328,-2216,-49,-25,-10
4035.1429999999996,302,-220,16328,-2216,-49,-25,-10
4043.245,301,-220,16328,-2216,-49,-25,-10
4047.1279999999997,302,-236,16340,-2232,37,-44,-20
4051.4770000000003,302,-236,16340,-2232,37,-44,-20
4051.4770000000003,302,-236,16340,-2232,37,-44,-20
4055.2970000000005,302,-236,16340,-2232,37,-44,-20
4059.875,302,-236,16340,-2232,37,-44,-20
4059.875,302,-236,16340,-2232,37,-44,-20
4063.566,302,-236,16340,-2232,37,-44,-20
4063.566,302,-212,16416,-2244,-82,-28,-15
4068.322,304,-212,16416,-2244,-82,-28,-15
4071.7100000000005,303,-212,16416,-2244,-82,-28,-15
4075.7349999999997,303,-212,16416,-2244,-82,-28,-15
4079.867,302,-212,16416,-2244,-82,-28,-15
4079.867,302,-212,16416,-2244,-82,-28,-15
4079.867,302,-212,16416,-2244,-82,-28,-15
4084.835,303,-164,16340,-2216,-85,-42,-10
4084.835,302,-164,16340,-2216,-85,-42,-10
4093.1009999999997,303,-164,16340,-2216,-85,-42,-10
4093.1009999999997,304,-164,16340,-2216,-85,-42,-10
4093.1009999999997,303,-164,16340,-2216,-85,-42,-10
4093.1009999999997,303,-164,16340,-2216,-85,-42,-10
4104.468,303,-164,16340,-2216,-85,-42,-10
4108.214,303,-212,16304,-2200,6,-48,-15
4109.725,303,-212,16304,-2200,6,-48,-15
4111.737,303,-212,16304,-2200,6,-48,-15
4111.737,303,-212,16304,-2200,6,-48,-15
4117.991,303,-212,16304,-2200,6,-48,-15
4120.847000000001,302,-212,16304,-2200,6,-48,-15
4120.847000000001,303,-212,16304,-2200,6,-48,-15
4125.737,304,-200,16340,-2204,-19,-36,-4
4129.135,304,-200,16340,-2204,-19,-36,-4
4133.149,304,-200,16340,-2204,-19,-36,-4
4137.246,304,-200,16340,-2204,-19,-36,-4
4137.246,304,-200,16340,-2204,-19,-36,-4
4142.076999999999,304,-200,16340,-2204,-19,-36,-4
4145.098,304,-200,16340,-2204,-19,-36,-4
4145.098,304,-236,16384,-2248,-95,-27,-12
4149.572,304,-236,16384,-2248,-95,-27,-12
4149.572,305,-236,16384,-2248,-95,-27,-12
4149.572,304,-236,16384,-2248,-95,-27,-12
4158.076999999999,304,-236,16384,-2248,-95,-27,-12
4161.747,304,-236,16384,-2248,-95,-27,-12
4163.414000000001,304,-236,16384,-2248,-95,-27,-12
4166.169,305,-204,16348,-2196,-32,-43,-11
4170.0,305,-204,16348,-2196,-32,-43,-11
4175.044,305,-204,16348,-2196,-32,-43,-11
4175.044,305,-204,16348,-2196,-32,-43,-11
4175.044,304,-204,16348,-2196,-32,-43,-11
4182.661999999999,305,-204,16348,-2196,-32,-43,-11
4186.383,305,-204,16348,-2196,-32,-43,-11
4186.383,305,-244,16388,-2208,5,-38,-3
4191.433,305,-244,16388,-2208,5,-38,-3
4191.433,306,-244,16388,-2208,5,-38,-3
4195.372,304,-244,16388,-2208,5,-38,-3
4199.135,304,-244,16388,-2208,5,-38,-3
4202.771000000001,305,-244,16388,-2208,5,-38,-3
4202.771000000001,305,-244,16388,-2208,5,-38,-3
4207.484,306,-188,16324,-2228,-68,-30,-17
4209.499,306,-188,16324,-2228,-68,-30,-17
4211.509999999999,305,-188,16324,-2228,-68,-30,-17
4215.073,306,-188,16324,-2228,-68,-30,-17
4219.169,305,-188,16324,-2228,-68,-30,-17
4220.716,306,-188,16324,-2228,-68,-30,-17
4223.87,305,-188,16324,-2228,-68,-30,-17
4225.041,306,-188,16372,-2172,-26,-19,13
4231.435,306,-188,16372,-2172,-26,-19,13
4231.435,306,-188,16372,-2172,-26,-19,13
4231.435,306,-188,16372,-2172,-26,-19,13
4239.672,306,-188,16372,-2172,-26,-19,13
4241.309,306,-188,16372,-2172,-26,-19,13
4243.3189999999995,306,-188,16372,-2172,-26,-19,13
4247.813,307,-172,16376,-2244,-15,-32,-21
4247.813,306,-172,16376,-2244,-15,-32,-21
4247.813,307,-172,16376,-2244,-15,-32,-21
4256.259,307,-172,16376,-2244,-15,-32,-21
4260.084,306,-172,16376,-2244,-15,-32,-21
4260.084,306,-172,16376,-2244,-15,-32,-21
4264.099,307,-172,16376,-2244,-15,-32,-21
4267.261,307,-212,16332,-2240,-76,-40,-7
4267.261,307,-212,16332,-2240,-76,-40,-7
4272.279,307,-212,16332,-2240,-76,-40,-7
4276.595,306,-212,16332,-2240,-76,-40,-7
4276.595,307,-212,16332,-2240,-76,-40,-7
4280.353,307,-212,16332,-2240,-76,-40,-7
4284.366999999999,307,-212,16332,-2240,-76,-40,-7
4288.379,307,-140,16364,-2232,-27,-29,-15
4288.379,307,-140,16364,-2232,-27,-29,-15
4293.1410000000005,307,-140,16364,-2232,-27,-29,-15
4296.746,307,-140,16364,-2232,-27,-29,-15
4297.378,307,-140,16364,-2232,-27,-29,-15
4297.378,306,-140,16364,-2232,-27,-29,-15
4304.673,307,-140,16364,-2232,-27,-29,-15
4307.881,306,-240,16416,-2240,-11,-40,-7
4309.97,306,-240,16416,-2240,-11,-40,-7
4313.393,306,-240,16416,-2240,-11,-40,-7
4313.393,305,-240,16416,-2240,-11,-40,-7
4313.393,304,-240,16416,-2240,-11,-40,-7
4321.681,305,-240,16416,-2240,-11,-40,-7
4321.681,305,-240,16416,-2240,-11,-40,-7
4321.681,305,-168,16380,-2208,-57,-54,-28
4329.723000000001,304,-168,16380,-2208,-57,-54,-28
4329.723000000001,302,-168,16380,-2208,-57,-54,-28
4337.841,301,-168,16380,-2208,-57,-54,-28
4337.841,301,-168,16380,-2208,-57,-54,-28
4337.841,301,-168,16380,-2208,-57,-54,-28
4345.6,301,-168,16380,-2208,-57,-54,-28
4345.6,302,-192,16312,-2232,-24,-38,-17
4345.6,302,-192,16312,-2232,-24,-38,-17
4353.715,302,-192,16312,-2232,-24,-38,-17
4353.715,301,-192,16312,-2232,-24,-38,-17
4353.715,300,-192,16312,-2232,-24,-38,-17
4362.621,299,-192,16312,-2232,-24,-38,-17
4362.621,297,-192,16312,-2232,-24,-38,-17
4362.621,297,-220,16308,-2212,-18,-25,-11
4369.844999999999,293,-220,16308,-2212,-18,-25,-11
4369.844999999999,291,-220,16308,-2212,-18,-25,-11
4378.754,291,-220,16308,-2212,-18,-25,-11
4378.754,293,-220,16308,-2212,-18,-25,-11
4381.054,295,-220,16308,-2212,-18,-25,-11
4386.907,297,-220,16308,-2212,-18,-25,-11
4386.907,298,-216,16412,-2236,-71,-21,-16
4386.907,296,-216,16412,-2236,-71,-21,-16
4394.408,295,-216,16412,-2236,-71,-21,-16
4394.408,292,-216,16412,-2236,-71,-21,-16
4394.408,292,-216,16412,-2236,-71,-21,-16
4402.6230000000005,293,-216,16412,-2236,-71,-21,-16
4402.6230000000005,295,-180,16336,-2224,-44,-37,-13
4408.894,296,-180,16336,-2224,-44,-37,-13
4410.712,297,-180,16336,-2224,-44,-37,-13
4410.712,299,-180,16336,-2224,-44,-37,-13
4419.124,299,-180,16336,-2224,-44,-37,-13
4419.124,300,-180,16336,-2224,-44,-37,-13
4419.124,301,-180,16336,-2224,-44,-37,-13
4427.291,302,-176,16340,-2172,-33,-10,-4
4427.291,300,-176,16340,-2172,-33,-10,-4
4427.291,299,-176,16340,-2172,-33,-10,-4
4435.541,298,-176,16340,-2172,-33,-10,-4
4435.541,299,-176,16340,-2172,-33,-10,-4
4435.541,300,-176,16340,-2172,-33,-10,-4
4443.788,302,-176,16340,-2172,-33,-10,-4
4445.863,302,-208,16344,-2188,-54,-24,1
4445.863,304,-208,16344,-2188,-54,-24,1
4452.164,304,-208,16344,-2188,-54,-24,1
4452.164,303,-208,16344,-2188,-54,-24,1
4452.164,304,-208,16344,-2188,-54,-24,1
4460.613,303,-208,16344,-2188,-54,-24,1
4460.613,304,-208,16344,-2188,-54,-24,1
4460.613,304,-208,16344,-2188,-54,-24,1
4469.017,304,-180,16424,-2172,-54,-36,-22
4469.017,304,-180,16424,-2172,-54,-36,-22
4475.029,304,-180,16424,-2172,-54,-36,-22
4477.05,305,-180,16424,-2172,-54,-36,-22
4477.05,306,-180,16424,-2172,-54,-36,-22
4485.187,307,-180,16424,-2172,-54,-36,-22
4486.643,307,-188,16396,-2216,-12,-42,-10
4488.657,307,-188,16396,-2216,-12,-42,-10
4493.749,307,-188,16396,-2216,-12,-42,-10
4493.749,307,-188,16396,-2216,-12,-42,-10
4493.749,307,-188,16396,-2216,-12,-42,-10
4501.874,307,-188,16396,-2216,-12,-42,-10
4501.874,306,-188,16396,-2216,-12,-42,-10
4508.389,308,-252,16384,-2240,-20,-26,-6
4510.218,307,-252,16384,-2240,-20,-26,-6
4510.218,306,-252,16384,-2240,-20,-26,-6
4510.218,306,-252,16384,-2240,-20,-26,-6
4518.385,306,-252,16384,-2240,-20,-26,-6
4518.385,304,-252,16384,-2240,-20,-26,-6
4525.371,304,-252,16384,-2240,-20,-26,-6
4526.186,304,-180,16300,-2232,-28,-37,0
4526.186,303,-180,16300,-2232,-28,-37,0
4526.186,303,-180,16300,-2232,-28,-37,0
4534.545999999999,301,-180,16300,-2232,-28,-37,0
4536.468,303,-180,16300,-2232,-28,-37,0
4541.651,303,-180,16300,-2232,-28,-37,0
4542.728999999999,304,-180,16300,-2232,-28,-37,0
4545.992,305,-180,16300,-2232,-28,-37,0
4551.01,304,-228,16384,-2244,-25,-25,-10
4551.01,303,-228,16384,-2244,-25,-25,-10
4551.01,303,-228,16384,-2244,-25,-25,-10
4559.127,303,-228,16384,-2244,-25,-25,-10
4559.127,304,-228,16384,-2244,-25,-25,-10
4559.127,304,-228,16384,-2244,-25,-25,-10
4567.487,305,-228,16384,-2244,-25,-25,-10
4571.398,305,-188,16360,-2236,-52,-30,-10
4572.617,305,-188,16360,-2236,-52,-30,-10
4575.674,305,-188,16360,-2236,-52,-30,-10
4575.674,306,-188,16360,-2236,-52,-30,-10
4575.674,306,-188,16360,-2236,-52,-30,-10
4583.793,306,-188,16360,-2236,-52,-30,-10
4583.793,306,-196,16328,-2228,-56,-5,-23
4583.793,304,-196,16328,-2228,-56,-5,-23
4592.008,303,-196,16328,-2228,-56,-5,-23
4593.946,303,-196,16328,-2228,-56,-5,-23
4593.946,303,-196,16328,-2228,-56,-5,-23
4600.581,304,-196,16328,-2228,-56,-5,-23
4604.099,302,-196,16328,-2228,-56,-5,-23
4609.043,303,-212,16420,-2224,13,-52,-16
4610.512,303,-212,16420,-2224,13,-52,-16
4610.512,304,-212,16420,-2224,13,-52,-16
4610.512,305,-212,16420,-2224,13,-52,-16
4617.247,304,-212,16420,-2224,13,-52,-16
4617.247,304,-212,16420,-2224,13,-52,-16
4617.247,305,-212,16420,-2224,13,-52,-16
4625.5160000000005,303,-196,16308,-2252,-59,-54,0
4628.624000000001,303,-196,16308,-2252,-59,-54,0
4628.624000000001,301,-196,16308,-2252,-59,-54,0
4633.8189999999995,298,-196,16308,-2252,-59,-54,0
4638.0689999999995,295,-196,16308,-2252,-59,-54,0
4640.787,298,-196,16308,-2252,-59,-54,0
4641.705,300,-196,16308,-2252,-59,-54,0
4643.27,302,-196,16308,-2252,-59,-54,0
4646.205,303,-204,16396,-2216,-45,-34,-11
4650.476000000001,303,-204,16396,-2216,-45,-34,-11
4650.476000000001,304,-204,16396,-2216,-45,-34,-11
4658.203,304,-204,16396,-2216,-45,-34,-11
4660.723,304,-204,16396,-2216,-45,-34,-11
4662.579,306,-204,16396,-2216,-45,-34,-11
4664.990000000001,307,-204,16396,-2216,-45,-34,-11
4669.691000000001,306,-200,16376,-2260,5,-38,-15
4669.691000000001,308,-200,16376,-2260,5,-38,-15
4674.968,307,-200,16376,-2260,5,-38,-15
4674.968,308,-200,16376,-2260,5,-38,-15
4674.968,307,-200,16376,-2260,5,-38,-15
4682.999,306,-200,16376,-2260,5,-38,-15
4686.084,306,-200,16376,-2260,5,-38,-15
4686.084,305,-200,16360,-2248,-49,-50,-17
4691.497,305,-200,16360,-2248,-49,-50,-17
4691.497,306,-200,16360,-2248,-49,-50,-17
4691.497,306,-200,16360,-2248,-49,-50,-17
4699.75,306,-200,16360,-2248,-49,-50,-17
4699.75,307,-200,16360,-2248,-49,-50,-17
4699.75,306,-200,16360,-2248,-49,-50,-17
4709.836,307,-236,16376,-2204,-49,-28,-9
4711.0830000000005,307,-236,16376,-2204,-49,-28,-9
4713.707,307,-236,16376,-2204,-49,-28,-9
4717.338,308,-236,16376,-2204,-49,-28,-9
4717.338,308,-236,16376,-2204,-49,-28,-9
4722.624,309,-236,16376,-2204,-49,-28,-9
4724.526,310,-236,16376,-2204,-49,-28,-9
4724.526,310,-196,16336,-2236,-30,-36,-5
4731.1050000000005,311,-196,16336,-2236,-30,-36,-5
4734.8679999999995,311,-196,16336,-2236,-30,-36,-5
4734.8679999999995,310,-196,16336,-2236,-30,-36,-5
4734.8679999999995,311,-196,16336,-2236,-30,-36,-5
4742.299,310,-196,16336,-2236,-30,-36,-5
4746.328,309,-196,16336,-2236,-30,-36,-5
4748.554999999999,310,-212,16324,-2216,-55,-21,-3
4750.4220000000005,309,-212,16324,-2216,-55,-21,-3
4754.127,307,-212,16324,-2216,-55,-21,-3
4756.473,306,-212,16324,-2216,-55,-21,-3
4759.883000000001,307,-212,16324,-2216,-55,-21,-3
4759.883000000001,308,-212,16324,-2216,-55,-21,-3
4764.755,309,-212,16324,-2216,-55,-21,-3
4765.7660000000005,310,-188,16352,-2236,-46,-27,-3
4772.1179999999995,310,-188,16352,-2236,-46,-27,-3
4775.272,310,-188,16352,-2236,-46,-27,-3
4777.981,309,-188,16352,-2236,-46,-27,-3
4777.981,309,-188,16352,-2236,-46,-27,-3
4783.074,309,-188,16352,-2236,-46,-27,-3
4783.074,309,-188,16352,-2236,-46,-27,-3
4786.107,311,-188,16356,-2200,-24,-49,-10
4791.693,312,-188,16356,-2200,-24,-49,-10
4791.693,312,-188,16356,-2200,-24,-49,-10
4791.693,312,-188,16356,-2200,-24,-49,-10
4799.2970000000005,312,-188,16356,-2200,-24,-49,-10
4804.852000000001,312,-188,16356,-2200,-24,-49,-10
4805.37,313,-188,16356,-2200,-24,-49,-10
4806.608,313,-172,16348,-2232,-40,-33,12
4810.892,313,-172,16348,-2232,-40,-33,12
4810.892,313,-172,16348,-2232,-40,-33,12
4815.747,313,-172,16348,-2232,-40,-33,12
4815.747,313,-172,16348,-2232,-40,-33,12
4822.355,313,-172,16348,-2232,-40,-33,12
4824.714,313,-172,16348,-2232,-40,-33,12
4829.003000000001,313,-168,16324,-2200,-63,-32,-8
4830.754,312,-168,16324,-2200,-63,-32,-8
4830.754,312,-168,16324,-2200,-63,-32,-8
4830.754,311,-168,16324,-2200,-63,-32,-8
4841.3240000000005,310,-168,16324,-2200,-63,-32,-8
4841.3240000000005,311,-168,16324,-2200,-63,-32,-8
4841.3240000000005,312,-168,16324,-2200,-63,-32,-8
4847.561,312,-204,16244,-2172,-13,-52,2
4847.561,312,-204,16244,-2172,-13,-52,2
4847.561,312,-204,16244,-2172,-13,-52,2
4856.128,312,-204,16244,-2172,-13,-52,2
4858.53,311,-204,16244,-2172,-13,-52,2
4858.53,311,-204,16244,-2172,-13,-52,2
4866.471,312,-204,16244,-2172,-13,-52,2
4867.0869999999995,312,-188,16424,-2248,-30,-28,-10
4867.0869999999995,313,-188,16424,-2248,-30,-28,-10
4874.582,313,-188,16424,-2248,-30,-28,-10
4876.999,312,-188,16424,-2248,-30,-28,-10
4876.999,312,-188,16424,-2248,-30,-28,-10
4880.961,312,-188,16424,-2248,-30,-28,-10
4880.961,313,-188,16424,-2248,-30,-28,-10
4880.961,313,-220,16336,-2236,-79,-36,-6
4891.303,314,-220,16336,-2236,-79,-36,-6
4893.3150000000005,313,-220,16336,-2236,-79,-36,-6
4898.588,314,-220,16336,-2236,-79,-36,-6
4898.588,314,-220,16336,-2236,-79,-36,-6
4898.588,314,-220,16336,-2236,-79,-36,-6
4907.0830000000005,314,-220,16336,-2236,-79,-36,-6
4907.0830000000005,315,-200,16292,-2196,-28,-49,5
4907.0830000000005,315,-200,16292,-2196,-28,-49,5
4915.48,314,-200,16292,-2196,-28,-49,5
4915.48,313,-200,16292,-2196,-28,-49,5
4919.545,313,-200,16292,-2196,-28,-49,5
4924.843,313,-200,16292,-2196,-28,-49,5
4924.843,314,-200,16292,-2196,-28,-49,5
4924.843,314,-156,16332,-2200,7,-27,8
4931.8,314,-156,16332,-2200,7,-27,8
4931.8,314,-156,16332,-2200,7,-27,8
4935.982,314,-156,16332,-2200,7,-27,8
4935.982,312,-156,16332,-2200,7,-27,8
4940.075,312,-156,16332,-2200,7,-27,8
4941.366,312,-156,16332,-2200,7,-27,8
4941.366,313,-156,16332,-2200,7,-27,8
4948.214,313,-192,16372,-2228,-66,-35,13
4949.4400000000005,314,-192,16372,-2228,-66,-35,13
4949.4400000000005,314,-192,16372,-2228,-66,-35,13
4956.291,314,-192,16372,-2228,-66,-35,13
4956.291,313,-192,16372,-2228,-66,-35,13
4956.291,314,-192,16372,-2228,-66,-35,13
4964.599,314,-192,16372,-2228,-66,-35,13
4964.599,315,-208,16284,-2192,-51,-50,-10
4972.789,315,-208,16284,-2192,-51,-50,-10
4974.993,315,-208,16284,-2192,-51,-50,-10
4974.993,314,-208,16284,-2192,-51,-50,-10
4981.014,314,-208,16284,-2192,-51,-50,-10
4981.936,313,-208,16284,-2192,-51,-50,-10
4981.936,313,-208,16284,-2192,-51,-50,-10
4989.446,313,-176,16348,-2204,-3,-37,-27
4989.446,314,-176,16348,-2204,-3,-37,-27
4993.48,314,-176,16348,-2204,-3,-37,-27
4998.329,314,-176,16348,-2204,-3,-37,-27
4998.329,315,-176,16348,-2204,-3,-37,-27
4998.329,314,-176,16348,-2204,-3,-37,-27
5005.579,314,-176,16348,-2204,-3,-37,-27
5007.816,314,-180,16380,-2228,-27,-22,19
5007.816,314,-180,16380,-2228,-27,-22,19
5014.987999999999,314,-180,16380,-2228,-27,-22,19
5017.7480000000005,315,-180,16380,-2228,-27,-22,19
5021.942,314,-180,16380,-2228,-27,-22,19
5021.942,314,-180,16380,-2228,-27,-22,19
5025.309,315,-180,16380,-2228,-27,-22,19
5030.164,314,-184,16432,-2196,-63,-49,-4
5030.164,315,-184,16432,-2196,-63,-49,-4
5030.164,315,-184,16432,-2196,-63,-49,-4
5038.348,315,-184,16432,-2196,-63,-49,-4
5038.348,314,-184,16432,-2196,-63,-49,-4
5043.062,315,-184,16432,-2196,-63,-49,-4
5046.773,315,-184,16432,-2196,-63,-49,-4
5046.773,315,-220,16316,-2224,-8,-23,1
5048.512,315,-220,16316,-2224,-8,-23,1
5054.86,314,-220,16316,-2224,-8,-23,1
5054.86,314,-220,16316,-2224,-8,-23,1
5054.86,314,-220,16316,-2224,-8,-23,1
5063.061000000001,313,-220,16316,-2224,-8,-23,1
5063.061000000001,313,-220,16316,-2224,-8,-23,1
5065.089,313,-220,16316,-2224,-8,-23,1
5071.209,314,-208,16344,-2200,-41,-46,-11
5071.893,314,-208,16344,-2200,-41,-46,-11
5075.8640000000005,314,-208,16344,-2200,-41,-46,-11
5079.625,314,-208,16344,-2200,-41,-46,-11
5079.625,314,-208,16344,-2200,-41,-46,-11
5079.625,313,-208,16344,-2200,-41,-46,-11
5087.74,313,-208,16344,-2200,-41,-46,-11
5092.115,312,-192,16368,-2200,-58,-33,-2
5094.125,314,-192,16368,-2200,-58,-33,-2
5095.487999999999,313,-192,16368,-2200,-58,-33,-2
5099.275,313,-192,16368,-2200,-58,-33,-2
5099.275,314,-192,16368,-2200,-58,-33,-2
5103.875999999999,314,-192,16368,-2200,-58,-33,-2
5103.875999999999,315,-192,16368,-2200,-58,-33,-2
5109.07,313,-212,16360,-2236,2,-26,-15
5111.944,314,-212,16360,-2236,2,-26,-15
5116.149,314,-212,16360,-2236,2,-26,-15
5120.247,314,-212,16360,-2236,2,-26,-15
5120.247,314,-212,16360,-2236,2,-26,-15
5125.004,314,-212,16360,-2236,2,-26,-15
5126.0380000000005,314,-212,16360,-2236,2,-26,-15
5128.536,314,-212,16356,-2244,-37,-38,-7
5132.5560000000005,313,-212,16356,-2244,-37,-38,-7
5136.708,314,-212,16356,-2244,-37,-38,-7
5136.708,313,-212,16356,-2244,-37,-38,-7
5141.548000000001,312,-212,16356,-2244,-37,-38,-7
5145.069,312,-212,16356,-2244,-37,-38,-7
5145.069,312,-212,16356,-2244,-37,-38,-7
5149.434,313,-200,16356,-2200,-67,-58,-3
5153.235,313,-200,16356,-2200,-67,-58,-3
5153.235,313,-200,16356,-2200,-67,-58,-3
5157.253,313,-200,16356,-2200,-67,-58,-3
5161.28,313,-200,16356,-2200,-67,-58,-3
5163.534000000001,312,-200,16356,-2200,-67,-58,-3
5163.534000000001,313,-200,16356,-2200,-67,-58,-3
5169.451999999999,312,-188,16356,-2272,32,-30,-13
5169.451999999999,312,-188,16356,-2272,32,-30,-13
5175.615,312,-188,16356,-2272,32,-30,-13
5177.625,311,-188,16356,-2272,32,-30,-13
5177.625,311,-188,16356,-2272,32,-30,-13
5177.625,313,-188,16356,-2272,32,-30,-13
5185.91,312,-188,16356,-2272,32,-30,-13
5185.91,312,-192,16348,-2236,-22,-33,-2
5192.319,312,-192,16348,-2236,-22,-33,-2
5194.054,312,-192,16348,-2236,-22,-33,-2
5198.065,312,-192,16348,-2236,-22,-33,-2
5202.322999999999,311,-192,16348,-2236,-22,-33,-2
5204.701,312,-192,16348,-2236,-22,-33,-2
5206.269,313,-192,16348,-2236,-22,-33,-2
5210.342,312,-208,16328,-2232,-91,-11,0
5210.342,313,-208,16328,-2232,-91,-11,0
5210.342,312,-208,16328,-2232,-91,-11,0
5218.548,313,-208,16328,-2232,-91,-11,0
5218.548,312,-208,16328,-2232,-91,-11,0
5222.642,312,-208,16328,-2232,-91,-11,0
5226.672,312,-208,16328,-2232,-91,-11,0
5226.672,313,-184,16404,-2236,-8,-31,10
5226.672,312,-184,16404,-2236,-8,-31,10
5234.893999999999,312,-184,16404,-2236,-8,-31,10
5234.893999999999,313,-184,16404,-2236,-8,-31,10
5239.035999999999,311,-184,16404,-2236,-8,-31,10
5243.054,311,-184,16404,-2236,-8,-31,10
5245.074,311,-184,16404,-2236,-8,-31,10
5247.227,312,-184,16404,-2236,-8,-31,10
5251.293000000001,312,-192,16380,-2228,-38,-54,-10
5251.293000000001,312,-192,16380,-2228,-38,-54,-10
5253.304,312,-192,16380,-2228,-38,-54,-10
5259.407999999999,311,-192,16380,-2228,-38,-54,-10
5263.603,311,-192,16380,-2228,-38,-54,-10
5263.603,311,-192,16380,-2228,-38,-54,-10
5267.703,311,-192,16380,-2228,-38,-54,-10
5271.719,311,-208,16348,-2228,-108,-36,-3
5271.719,312,-208,16348,-2228,-108,-36,-3
5275.746,311,-208,16348,-2228,-108,-36,-3
5280.0,311,-208,16348,-2228,-108,-36,-3
5284.099999999999,311,-208,16348,-2228,-108,-36,-3
5284.099999999999,310,-208,16348,-2228,-108,-36,-3
5288.203,311,-140,16320,-2208,-5,-34,18
5292.232,311,-140,16320,-2208,-5,-34,18
5294.246,312,-140,16320,-2208,-5,-34,18
5296.199,310,-140,16320,-2208,-5,-34,18
5300.523,310,-140,16320,-2208,-5,-34,18
5300.523,311,-140,16320,-2208,-5,-34,18
5304.545,311,-140,16320,-2208,-5,-34,18
5308.042,311,-140,16320,-2208,-5,-34,18
5310.05,311,-216,16336,-2284,15,-38,-16
5310.844,311,-216,16336,-2284,15,-38,-16
5316.726,312,-216,16336,-2284,15,-38,-16
5317.422,311,-216,16336,-2284,15,-38,-16
5320.919,311,-216,16336,-2284,15,-38,-16
5324.379000000001,311,-216,16336,-2284,15,-38,-16
5327.581999999999,311,-216,16336,-2284,15,-38,-16
5327.581999999999,311,-172,16348,-2240,-87,-44,-32
5332.162,311,-172,16348,-2240,-87,-44,-32
5332.162,310,-172,16348,-2240,-87,-44,-32
5332.162,310,-172,16348,-2240,-87,-44,-32
5340.6269999999995,309,-172,16348,-2240,-87,-44,-32
5345.029,311,-172,16348,-2240,-87,-44,-32
5348.196,310,-172,16348,-2240,-87,-44,-32
5349.732999999999,311,-208,16304,-2232,-41,-33,-9
5350.764,311,-208,16304,-2232,-41,-33,-9
5357.264,310,-208,16304,-2232,-41,-33,-9
5358.669,310,-208,16304,-2232,-41,-33,-9
5358.669,310,-208,16304,-2232,-41,-33,-9
5364.572,310,-208,16304,-2232,-41,-33,-9
5367.621,310,-208,16304,-2232,-41,-33,-9
5369.433,311,-168,16276,-2252,2,-39,-15
5374.54,310,-168,16276,-2252,2,-39,-15
5376.876,309,-168,16276,-2252,2,-39,-15
5378.121,310,-168,16276,-2252,2,-39,-15
5381.536999999999,309,-168,16276,-2252,2,-39,-15
5381.536999999999,309,-168,16276,-2252,2,-39,-15
5386.352,310,-168,16276,-2252,2,-39,-15
5390.771,310,-264,16348,-2268,-84,-70,6
5391.981000000001,310,-264,16348,-2268,-84,-70,6
5391.981000000001,311,-264,16348,-2268,-84,-70,6
5397.02,310,-264,16348,-2268,-84,-70,6
5399.026,310,-264,16348,-2268,-84,-70,6
5401.943,309,-264,16348,-2268,-84,-70,6
5405.339,311,-264,16348,-2268,-84,-70,6
5407.83,311,-228,16376,-2192,-44,-38,-11
5407.83,311,-228,16376,-2192,-44,-38,-11
5416.931,309,-228,16376,-2192,-44,-38,-11
5419.2660000000005,309,-228,16376,-2192,-44,-38,-11
5419.2660000000005,309,-228,16376,-2192,-44,-38,-11
5423.63,310,-228,16376,-2192,-44,-38,-11
5424.6990000000005,310,-228,16376,-2192,-44,-38,-11
5424.6990000000005,310,-184,16360,-2160,20,-51,-11
5432.627,310,-184,16360,-2160,20,-51,-11
5433.631,309,-184,16360,-2160,20,-51,-11
5433.631,309,-184,16360,-2160,20,-51,-11
5440.471,309,-184,16360,-2160,20,-51,-11
5441.617,309,-184,16360,-2160,20,-51,-11
5441.617,310,-184,16360,-2160,20,-51,-11
5448.964,310,-232,16372,-2208,-49,-36,-4
5452.442999999999,309,-232,16372,-2208,-49,-36,-4
5452.442999999999,309,-232,16372,-2208,-49,-36,-4
5457.384,308,-232,16372,-2208,-49,-36,-4
5458.1759999999995,307,-232,16372,-2208,-49,-36,-4
5464.344999999999,308,-232,16372,-2208,-49,-36,-4
5468.4,308,-232,16372,-2208,-49,-36,-4
5468.4,310,-104,16308,-2196,-81,-28,-13
5468.4,309,-104,16308,-2196,-81,-28,-13
5475.708,309,-104,16308,-2196,-81,-28,-13
5475.708,308,-104,16308,-2196,-81,-28,-13
5475.708,309,-104,16308,-2196,-81,-28,-13
5484.358,309,-104,16308,-2196,-81,-28,-13
5484.358,309,-104,16308,-2196,-81,-28,-13
5484.358,310,-208,16372,-2200,27,-31,-1
5492.213,310,-208,16372,-2200,27,-31,-1
5496.359,309,-208,16372,-2200,27,-31,-1
5498.385,307,-208,16372,-2200,27,-31,-1
5499.406,308,-208,16372,-2200,27,-31,-1
5499.406,308,-208,16372,-2200,27,-31,-1
5499.406,308,-208,16372,-2200,27,-31,-1
5507.865,308,-180,16364,-2192,-21,-53,-19
5507.865,308,-180,16364,-2192,-21,-53,-19
5507.865,309,-180,16364,-2192,-21,-53,-19
5517.829,309,-180,16364,-2192,-21,-53,-19
5520.1539999999995,308,-180,16364,-2192,-21,-53,-19
5524.612,309,-180,16364,-2192,-21,-53,-19
5524.612,309,-180,16364,-2192,-21,-53,-19
5524.612,310,-192,16352,-2220,-93,-40,-14
5531.5560000000005,309,-192,16352,-2220,-93,-40,-14
5534.891,308,-192,16352,-2220,-93,-40,-14
5537.867,309,-192,16352,-2220,-93,-40,-14
5542.39,308,-192,16352,-2220,-93,-40,-14
5544.400000000001,310,-192,16352,-2220,-93,-40,-14
5544.400000000001,309,-192,16352,-2220,-93,-40,-14
5549.994,309,-176,16340,-2160,5,-39,-5
5549.994,309,-176,16340,-2160,5,-39,-5
5549.994,308,-176,16340,-2160,5,-39,-5
5559.0830000000005,309,-176,16340,-2160,5,-39,-5
5562.496,308,-176,16340,-2160,5,-39,-5
5562.496,309,-176,16340,-2160,5,-39,-5
5565.005,308,-176,16340,-2160,5,-39,-5
5565.005,308,-176,16340,-2160,5,-39,-5
5565.005,309,-188,16348,-2252,-54,-32,-32
5574.575000000001,308,-188,16348,-2252,-54,-32,-32
5576.584000000001,308,-188,16348,-2252,-54,-32,-32
5576.584000000001,307,-188,16348,-2252,-54,-32,-32
5583.05,309,-188,16348,-2252,-54,-32,-32
5587.226000000001,309,-188,16348,-2252,-54,-32,-32
5587.226000000001,309,-204,16376,-2212,-78,-28,-33
5591.803,307,-204,16376,-2212,-78,-28,-33
5595.383,308,-204,16376,-2212,-78,-28,-33
5598.0509999999995,308,-204,16376,-2212,-78,-28,-33
5598.0509999999995,309,-204,16376,-2212,-78,-28,-33
5598.0509999999995,308,-204,16376,-2212,-78,-28,-33
5608.331,309,-204,16376,-2212,-78,-28,-33
5610.342000000001,309,-204,16236,-2200,-13,-37,0
5610.342000000001,308,-204,16236,-2200,-13,-37,0
5614.688,309,-204,16236,-2200,-13,-37,0
5614.688,308,-204,16236,-2200,-13,-37,0
5619.499,308,-204,16236,-2200,-13,-37,0
5623.89,308,-204,16236,-2200,-13,-37,0
5623.89,309,-204,16236,-2200,-13,-37,0
5628.023,309,-204,16236,-2200,-13,-37,0
5631.612999999999,309,-228,16292,-2196,-39,-12,-18
5635.459,309,-228,16292,-2196,-39,-12,-18
5635.459,309,-228,16292,-2196,-39,-12,-18
5641.212,309,-228,16292,-2196,-39,-12,-18
5644.756,309,-228,16292,-2196,-39,-12,-18
5645.658,308,-228,16292,-2196,-39,-12,-18
5648.658,308,-216,16384,-2204,-52,-24,-37
5650.169,307,-216,16384,-2204,-52,-24,-37
5656.836,308,-216,16384,-2204,-52,-24,-37
5660.909000000001,307,-216,16384,-2204,-52,-24,-37
5660.909000000001,307,-216,16384,-2204,-52,-24,-37
5665.002,308,-216,16384,-2204,-52,-24,-37
5665.002,309,-216,16384,-2204,-52,-24,-37
5669.1089999999995,309,-228,16336,-2212,-10,-26,-19
5673.299,309,-228,16336,-2212,-10,-26,-19
5676.68,309,-228,16336,-2212,-10,-26,-19
5676.68,309,-228,16336,-2212,-10,-26,-19
5681.387,308,-228,16336,-2212,-10,-26,-19
5685.571999999999,309,-228,16336,-2212,-10,-26,-19
5685.571999999999,309,-228,16336,-2212,-10,-26,-19
5689.576,309,-240,16376,-2228,-30,-40,-9
5691.585,309,-240,16376,-2228,-30,-40,-9
5697.772,309,-240,16376,-2228,-30,-40,-9
5697.772,308,-240,16376,-2228,-30,-40,-9
5701.839,309,-240,16376,-2228,-30,-40,-9
5706.0740000000005,309,-240,16376,-2228,-30,-40,-9
5707.504,309,-240,16376,-2228,-30,-40,-9
5710.971,309,-180,16352,-2224,-70,-39,-17
5714.165999999999,309,-180,16352,-2224,-70,-39,-17
5714.165999999999,309,-180,16352,-2224,-70,-39,-17
5714.165999999999,309,-180,16352,-2224,-70,-39,-17
5722.481,308,-180,16352,-2224,-70,-39,-17
5725.233,309,-180,16352,-2224,-70,-39,-17
5727.731000000001,310,-180,16352,-2224,-70,-39,-17
5730.67,310,-208,16324,-2168,-21,-30,-5
5730.67,309,-208,16324,-2168,-21,-30,-5
5730.67,308,-208,16324,-2168,-21,-30,-5
5738.809,309,-208,16324,-2168,-21,-30,-5
5738.809,310,-208,16324,-2168,-21,-30,-5
5744.435,309,-208,16324,-2168,-21,-30,-5
5746.965999999999,309,-208,16324,-2168,-21,-30,-5
5750.204,310,-196,16364,-2184,-34,-57,-4
5755.204,309,-196,16364,-2184,-34,-57,-4
5755.204,309,-196,16364,-2184,-34,-57,-4
5759.629999999999,309,-196,16364,-2184,-34,-57,-4
5763.3,310,-196,16364,-2184,-34,-57,-4
5763.3,309,-196,16364,-2184,-34,-57,-4
5766.812,310,-196,16364,-2184,-34,-57,-4
5771.569,311,-236,16356,-2216,-83,-19,-10
5771.569,310,-236,16356,-2216,-83,-19,-10
5776.152,310,-236,16356,-2216,-83,-19,-10
5779.84,310,-236,16356,-2216,-83,-19,-10
5783.856,310,-236,16356,-2216,-83,-19,-10
5783.856,310,-236,16356,-2216,-83,-19,-10
5787.871,310,-236,16356,-2216,-83,-19,-10
5791.889,310,-136,16304,-2224,-30,-33,1
5791.889,310,-136,16304,-2224,-30,-33,1
5796.267,310,-136,16304,-2224,-30,-33,1
5798.4400000000005,309,-136,16304,-2224,-30,-33,1
5800.45,310,-136,16304,-2224,-30,-33,1
5804.502,310,-136,16304,-2224,-30,-33,1
5807.855,310,-136,16304,-2224,-30,-33,1
5807.855,310,-204,16352,-2212,-5,-45,-13
5811.691,311,-204,16352,-2212,-5,-45,-13
5813.697,310,-204,16352,-2212,-5,-45,-13
5820.129,310,-204,16352,-2212,-5,-45,-13
5820.129,310,-204,16352,-2212,-5,-45,-13
5824.393,310,-204,16352,-2212,-5,-45,-13
5828.152,310,-204,16352,-2212,-5,-45,-13
5829.567,310,-212,16348,-2208,-81,-35,-5
5832.707,310,-212,16348,-2208,-81,-35,-5
5836.739,310,-212,16348,-2208,-81,-35,-5
5836.739,310,-212,16348,-2208,-81,-35,-5
5841.175,310,-212,16348,-2208,-81,-35,-5
5845.322999999999,310,-212,16348,-2208,-81,-35,-5
5845.322999999999,311,-212,16348,-2208,-81,-35,-5
5849.351000000001,312,-248,16328,-2236,-60,-36,-15
5853.626,312,-248,16328,-2236,-60,-36,-15
5853.626,311,-248,16328,-2236,-60,-36,-15
5858.487,311,-248,16328,-2236,-60,-36,-15
5861.478,311,-248,16328,-2236,-60,-36,-15
5861.478,310,-248,16328,-2236,-60,-36,-15
5861.478,310,-248,16328,-2236,-60,-36,-15
5869.643,310,-184,16304,-2244,-11,-17,-16
5869.643,311,-184,16304,-2244,-11,-17,-16
5877.828,312,-184,16304,-2244,-11,-17,-16
5877.828,311,-184,16304,-2244,-11,-17,-16
5877.828,311,-184,16304,-2244,-11,-17,-16
5886.284,311,-184,16304,-2244,-11,-17,-16
5886.284,311,-184,16304,-2244,-11,-17,-16
5888.227,312,-188,16356,-2220,-65,-30,-4
5894.526,312,-188,16356,-2220,-65,-30,-4
5898.469999999999,311,-188,16356,-2220,-65,-30,-4
5898.469999999999,311,-188,16356,-2220,-65,-30,-4
5902.602,311,-188,16356,-2220,-65,-30,-4
5902.602,311,-188,16356,-2220,-65,-30,-4
5908.419999999999,312,-188,16356,-2220,-65,-30,-4
5910.8150000000005,311,-216,16316,-2156,-36,-38,-23
5910.8150000000005,311,-216,16316,-2156,-36,-38,-23
5910.8150000000005,311,-216,16316,-2156,-36,-38,-23
5918.845,311,-216,16316,-2156,-36,-38,-23
5918.845,311,-216,16316,-2156,-36,-38,-23
5927.139,311,-216,16316,-2156,-36,-38,-23
5927.139,312,-216,16316,-2156,-36,-38,-23
5927.139,311,-208,16308,-2252,-25,-18,1
5935.248,311,-208,16308,-2252,-25,-18,1
5935.248,311,-208,16308,-2252,-25,-18,1
5938.843000000001,310,-208,16308,-2252,-25,-18,1
5943.699,311,-208,16308,-2252,-25,-18,1
5943.699,311,-208,16308,-2252,-25,-18,1
5943.699,312,-208,16308,-2252,-25,-18,1
5950.349,312,-212,16348,-2212,-44,-24,-7
5952.111999999999,312,-212,16348,-2212,-44,-24,-7
5952.111999999999,311,-212,16348,-2212,-44,-24,-7
5960.454000000001,311,-212,16348,-2212,-44,-24,-7
5960.454000000001,312,-212,16348,-2212,-44,-24,-7
5960.454000000001,312,-212,16348,-2212,-44,-24,-7
5968.706,312,-212,16348,-2212,-44,-24,-7
5968.706,313,-160,16332,-2228,-63,-32,-30
5968.706,312,-160,16332,-2228,-63,-32,-30
5977.186,312,-160,16332,-2228,-63,-32,-30
5977.186,311,-160,16332,-2228,-63,-32,-30
5977.186,312,-160,16332,-2228,-63,-32,-30
5985.286,313,-160,16332,-2228,-63,-32,-30
5985.286,312,-160,16332,-2228,-63,-32,-30
5992.153,313,-188,16376,-2204,-6,-47,-1
5993.7789999999995,312,-188,16376,-2204,-6,-47,-1
5993.7789999999995,312,-188,16376,-2204,-6,-47,-1
6001.076,312,-188,16376,-2204,-6,-47,-1
6001.871,312,-188,16376,-2204,-6,-47,-1
6004.83,312,-188,16376,-2204,-6,-47,-1
6004.83,312,-188,16376,-2204,-6,-47,-1
6009.87,313,-200,16344,-2240,-28,-29,-1
6009.87,313,-200,16344,-2240,-28,-29,-1
6009.87,312,-200,16344,-2240,-28,-29,-1
6018.049999999999,312,-200,16344,-2240,-28,-29,-1
6018.049999999999,312,-200,16344,-2240,-28,-29,-1
6018.049999999999,312,-200,16344,-2240,-28,-29,-1
6026.3099999999995,313,-200,16344,-2240,-28,-29,-1
6029.397999999999,312,-200,16344,-2240,-28,-29,-1
6029.397999999999,312,-160,16372,-2252,-77,-25,10
6034.593,312,-160,16372,-2252,-77,-25,10
6034.593,312,-160,16372,-2252,-77,-25,10
6042.043,312,-160,16372,-2252,-77,-25,10
6043.115,312,-160,16372,-2252,-77,-25,10
6043.115,312,-160,16372,-2252,-77,-25,10
6050.461,312,-160,16372,-2252,-77,-25,10
6053.49,312,-228,16268,-2200,-33,-29,-8
6053.49,313,-228,16268,-2200,-33,-29,-8
6058.686,311,-228,16268,-2200,-33,-29,-8
6059.804,311,-228,16268,-2200,-33,-29,-8
6059.804,311,-228,16268,-2200,-33,-29,-8
6059.804,312,-228,16268,-2200,-33,-29,-8
6067.896,312,-228,16268,-2200,-33,-29,-8
6067.896,311,-220,16372,-2200,-16,-26,-12
6076.120000000001,311,-220,16372,-2200,-16,-26,-12
6076.120000000001,311,-220,16372,-2200,-16,-26,-12
6076.120000000001,311,-220,16372,-2200,-16,-26,-12
6084.273999999999,310,-220,16372,-2200,-16,-26,-12
6084.273999999999,311,-220,16372,-2200,-16,-26,-12
6084.273999999999,311,-220,16372,-2200,-16,-26,-12
6093.075,311,-176,16424,-2220,-50,-50,2
6093.075,310,-176,16424,-2220,-50,-50,2
6093.075,310,-176,16424,-2220,-50,-50,2
6103.284000000001,309,-176,16424,-2220,-50,-50,2
6103.284000000001,310,-176,16424,-2220,-50,-50,2
6108.645,310,-176,16424,-2220,-50,-50,2
6109.169,311,-176,16424,-2220,-50,-50,2
6109.169,311,-220,16280,-2208,-44,-29,-21
6109.169,311,-220,16280,-2208,-44,-29,-21
6119.679,310,-220,16280,-2208,-44,-29,-21
6119.679,310,-220,16280,-2208,-44,-29,-21
6125.825,310,-220,16280,-2208,-44,-29,-21
6128.15,310,-220,16280,-2208,-44,-29,-21
6130.6320000000005,310,-220,16280,-2208,-44,-29,-21
6133.423,310,-168,16396,-2284,-7,-14,-26
6133.423,310,-168,16396,-2284,-7,-14,-26
6139.427000000001,309,-168,16396,-2284,-7,-14,-26
6142.69,309,-168,16396,-2284,-7,-14,-26
6142.69,309,-168,16396,-2284,-7,-14,-26
6142.69,308,-168,16396,-2284,-7,-14,-26
6150.516,310,-168,16396,-2284,-7,-14,-26
6150.516,309,-208,16372,-2240,-60,-44,-11
6150.516,309,-208,16372,-2240,-60,-44,-11
6160.9400000000005,310,-208,16372,-2240,-60,-44,-11
6160.9400000000005,309,-208,16372,-2240,-60,-44,-11
6160.9400000000005,308,-208,16372,-2240,-60,-44,-11
6168.821,309,-208,16372,-2240,-60,-44,-11
6168.821,309,-208,16372,-2240,-60,-44,-11
6168.821,310,-180,16364,-2176,-28,-16,-8
6176.4929999999995,309,-180,16364,-2176,-28,-16,-8
6176.4929999999995,309,-180,16364,-2176,-28,-16,-8
6179.919,308,-180,16364,-2176,-28,-16,-8
6182.768,309,-180,16364,-2176,-28,-16,-8
6182.768,309,-180,16364,-2176,-28,-16,-8
6190.964,309,-180,16364,-2176,-28,-16,-8
6191.829000000001,309,-244,16332,-2220,-14,-42,-4
6197.648,309,-244,16332,-2220,-14,-42,-4
6199.193,308,-244,16332,-2220,-14,-42,-4
6201.803,308,-244,16332,-2220,-14,-42,-4
6201.803,309,-244,16332,-2220,-14,-42,-4
6207.398,309,-244,16332,-2220,-14,-42,-4
6209.421,309,-244,16332,-2220,-14,-42,-4
6209.421,309,-188,16380,-2188,-63,-46,-39
6217.532,309,-188,16380,-2188,-63,-46,-39
6217.532,308,-188,16380,-2188,-63,-46,-39
6221.219,307,-188,16380,-2188,-63,-46,-39
6225.8060000000005,308,-188,16380,-2188,-63,-46,-39
6225.8060000000005,309,-188,16380,-2188,-63,-46,-39
6225.8060000000005,309,-188,16380,-2188,-63,-46,-39
6234.495,309,-228,16376,-2208,-57,-31,-9
6235.129,309,-228,16376,-2208,-57,-31,-9
6235.129,308,-228,16376,-2208,-57,-31,-9
6240.4349999999995,308,-228,16376,-2208,-57,-31,-9
6240.4349999999995,309,-228,16376,-2208,-57,-31,-9
6240.4349999999995,309,-228,16376,-2208,-57,-31,-9
6250.867,309,-228,16376,-2208,-57,-31,-9
6252.883,308,-192,16356,-2256,3,-42,-4
6252.883,307,-192,16356,-2256,3,-42,-4
6258.525,308,-192,16356,-2256,3,-42,-4
6258.525,308,-192,16356,-2256,3,-42,-4
6258.525,308,-192,16356,-2256,3,-42,-4
6265.651,308,-192,16356,-2256,3,-42,-4
6269.9400000000005,308,-192,16356,-2256,3,-42,-4
6271.951,308,-200,16328,-2236,-62,-46,-7
6273.708,309,-200,16328,-2236,-62,-46,-7
6277.027,308,-200,16328,-2236,-62,-46,-7
6277.027,307,-200,16328,-2236,-62,-46,-7
6283.593,307,-200,16328,-2236,-62,-46,-7
6283.988,308,-200,16328,-2236,-62,-46,-7
6283.988,308,-200,16328,-2236,-62,-46,-7
6290.398,308,-256,16312,-2240,-66,-28,6
6290.398,308,-256,16312,-2240,-66,-28,6
6290.398,308,-256,16312,-2240,-66,-28,6
6298.742,308,-256,16312,-2240,-66,-28,6
6303.656,307,-256,16312,-2240,-66,-28,6
6303.656,308,-256,16312,-2240,-66,-28,6
6308.394,308,-256,16312,-2240,-66,-28,6
6310.984,308,-220,16348,-2220,17,-42,-10
6310.984,308,-220,16348,-2220,17,-42,-10
6315.504,308,-220,16348,-2220,17,-42,-10
6315.504,308,-220,16348,-2220,17,-42,-10
6323.889999999999,308,-220,16348,-2220,17,-42,-10
6325.056,308,-220,16348,-2220,17,-42,-10
6327.856,309,-220,16348,-2220,17,-42,-10
6332.617,308,-176,16364,-2264,-42,-40,-12
6333.969,308,-176,16364,-2264,-42,-40,-12
6336.48,307,-176,16364,-2264,-42,-40,-12
6340.592,307,-176,16364,-2264,-42,-40,-12
6344.668000000001,307,-176,16364,-2264,-42,-40,-12
6345.893,307,-176,16364,-2264,-42,-40,-12
6349.307,308,-176,16364,-2264,-42,-40,-12
6353.128,309,-212,16332,-2232,-95,-20,-11
6353.816,308,-212,16332,-2232,-95,-20,-11
6357.802000000001,307,-212,16332,-2232,-95,-20,-11
6361.266,308,-212,16332,-2232,-95,-20,-11
6365.416,307,-212,16332,-2232,-95,-20,-11
6365.416,308,-212,16332,-2232,-95,-20,-11
6365.416,308,-212,16332,-2232,-95,-20,-11
6373.573,308,-200,16376,-2224,31,-24,-10
6375.959,308,-200,16376,-2224,31,-24,-10
6375.959,307,-200,16376,-2224,31,-24,-10
6381.863,308,-200,16376,-2224,31,-24,-10
6381.863,308,-200,16376,-2224,31,-24,-10
6381.863,309,-200,16376,-2224,31,-24,-10
6389.958,308,-200,16376,-2224,31,-24,-10
6389.958,308,-232,16388,-2228,-26,-30,0
6394.4039999999995,309,-232,16388,-2228,-26,-30,0
6398.157999999999,308,-232,16388,-2228,-26,-30,0
6398.157999999999,307,-232,16388,-2228,-26,-30,0
6398.157999999999,308,-232,16388,-2228,-26,-30,0
6406.688,308,-232,16388,-2228,-26,-30,0
6408.146000000001,308,-232,16388,-2228,-26,-30,0
6408.146000000001,308,-188,16348,-2188,-90,-25,-5
6414.582,309,-188,16348,-2188,-90,-25,-5
6418.629,308,-188,16348,-2188,-90,-25,-5
6418.629,308,-188,16348,-2188,-90,-25,-5
6422.739,307,-188,16348,-2188,-90,-25,-5
6425.327,308,-188,16348,-2188,-90,-25,-5
6425.327,308,-188,16348,-2188,-90,-25,-5
6430.925,307,-212,16288,-2224,25,-45,-34
6432.657,308,-212,16288,-2224,25,-45,-34
6432.657,308,-212,16288,-2224,25,-45,-34
6439.2789999999995,307,-212,16288,-2224,25,-45,-34
6442.315,308,-212,16288,-2224,25,-45,-34
6442.315,308,-212,16288,-2224,25,-45,-34
6447.759,308,-212,16288,-2224,25,-45,-34
6451.344,309,-212,16288,-2224,25,-45,-34
6455.857,309,-176,16348,-2256,-45,-24,-6
6458.845,308,-176,16348,-2256,-45,-24,-6
6458.845,307,-176,16348,-2256,-45,-24,-6
6464.081,308,-176,16348,-2256,-45,-24,-6
6464.081,307,-176,16348,-2256,-45,-24,-6
6468.062,308,-176,16348,-2256,-45,-24,-6
6472.178000000001,308,-176,16348,-2256,-45,-24,-6
6472.178000000001,308,-204,16320,-2200,-88,-55,-22
6475.834,308,-204,16320,-2200,-88,-55,-22
6480.646,308,-204,16320,-2200,-88,-55,-22
6484.208,307,-204,16320,-2200,-88,-55,-22
6485.282,308,-204,16320,-2200,-88,-55,-22
6488.946999999999,307,-204,16320,-2200,-88,-55,-22
6488.946999999999,308,-188,16340,-2172,2,-26,-20
6492.8460000000005,307,-188,16340,-2172,2,-26,-20
6492.8460000000005,307,-188,16340,-2172,2,-26,-20
6498.0960000000005,307,-188,16340,-2172,2,-26,-20
6501.531,307,-188,16340,-2172,2,-26,-20
6504.406999999999,308,-188,16340,-2172,2,-26,-20
6508.205,309,-188,16340,-2172,2,-26,-20
6508.205,309,-188,16340,-2172,2,-26,-20
6508.205,307,-180,16340,-2236,-43,-33,-2
6516.6630000000005,308,-180,16340,-2236,-43,-33,-2
6516.6630000000005,308,-180,16340,-2236,-43,-33,-2
6521.553,308,-180,16340,-2236,-43,-33,-2
6525.763000000001,308,-180,16340,-2236,-43,-33,-2
6525.763000000001,309,-180,16340,-2236,-43,-33,-2
6529.672,308,-180,16340,-2236,-43,-33,-2
6529.672,308,-200,16324,-2188,-62,-32,-4
6529.672,309,-200,16324,-2188,-62,-32,-4
6537.901,308,-200,16324,-2188,-62,-32,-4
6542.362,308,-200,16324,-2188,-62,-32,-4
6542.362,308,-200,16324,-2188,-62,-32,-4
6546.36,308,-200,16324,-2188,-62,-32,-4
6546.36,309,-200,16324,-2188,-62,-32,-4
6553.353,309,-184,16400,-2168,10,-44,-4
6556.865,308,-184,16400,-2168,10,-44,-4
6558.963000000001,308,-184,16400,-2168,10,-44,-4
6561.806,308,-184,16400,-2168,10,-44,-4
6565.866,309,-184,16400,-2168,10,-44,-4
6566.6359999999995,308,-184,16400,-2168,10,-44,-4
6568.941,309,-184,16400,-2168,10,-44,-4
6571.428,309,-164,16332,-2236,-30,-22,3
6575.122,309,-164,16332,-2236,-30,-22,3
6578.237999999999,308,-164,16332,-2236,-30,-22,3
6581.766,308,-164,16332,-2236,-30,-22,3
6581.766,308,-164,16332,-2236,-30,-22,3
6583.773,308,-164,16332,-2236,-30,-22,3
6590.226000000001,309,-164,16332,-2236,-30,-22,3
6592.352,308,-176,16240,-2232,-86,-34,-12
6592.352,309,-176,16240,-2232,-86,-34,-12
6596.312,308,-176,16240,-2232,-86,-34,-12
6596.312,308,-176,16240,-2232,-86,-34,-12
6596.312,307,-176,16240,-2232,-86,-34,-12
6604.4349999999995,308,-176,16240,-2232,-86,-34,-12
6611.258000000001,309,-176,16240,-2232,-86,-34,-12
6612.040999999999,309,-240,16336,-2236,-21,-29,-3
6614.474,308,-240,16336,-2236,-21,-29,-3
6614.474,309,-240,16336,-2236,-21,-29,-3
6614.474,309,-240,16336,-2236,-21,-29,-3
6620.402,308,-240,16336,-2236,-21,-29,-3
6625.842,308,-240,16336,-2236,-21,-29,-3
6628.478999999999,307,-240,16336,-2236,-21,-29,-3
6628.478999999999,308,-200,16352,-2252,-17,-34,-10
6628.478999999999,308,-200,16352,-2252,-17,-34,-10
6637.2,308,-200,16352,-2252,-17,-34,-10
6640.682,308,-200,16352,-2252,-17,-34,-10
6642.955,308,-200,16352,-2252,-17,-34,-10
6646.149,308,-200,16352,-2252,-17,-34,-10
6646.149,309,-200,16352,-2252,-17,-34,-10
6651.275,310,-244,16372,-2160,-91,-43,3
6654.0650000000005,309,-244,16372,-2160,-91,-43,3
6654.0650000000005,308,-244,16372,-2160,-91,-43,3
6660.124,308,-244,16372,-2160,-91,-43,3
6663.084,308,-244,16372,-2160,-91,-43,3
6663.084,308,-244,16372,-2160,-91,-43,3
6663.084,309,-244,16372,-2160,-91,-43,3
6670.036,309,-172,16340,-2244,-34,-26,5
6670.036,308,-172,16340,-2244,-34,-26,5
6674.663,308,-172,16340,-2244,-34,-26,5
6678.4400000000005,308,-172,16340,-2244,-34,-26,5
6678.4400000000005,308,-172,16340,-2244,-34,-26,5
6678.4400000000005,308,-172,16340,-2244,-34,-26,5
6689.168,308,-172,16340,-2244,-34,-26,5
6692.54,309,-172,16340,-2244,-34,-26,5
6694.549999999999,309,-188,16336,-2248,-26,-35,-14
6694.549999999999,307,-188,16336,-2248,-26,-35,-14
6694.549999999999,309,-188,16336,-2248,-26,-35,-14
6694.549999999999,308,-188,16336,-2248,-26,-35,-14
6702.619000000001,308,-188,16336,-2248,-26,-35,-14
6702.619000000001,309,-188,16336,-2248,-26,-35,-14
6711.67,309,-188,16336,-2248,-26,-35,-14
6711.67,309,-176,16376,-2228,-56,-38,-3
6716.553,309,-176,16376,-2228,-56,-38,-3
6719.485,308,-176,16376,-2228,-56,-38,-3
6719.485,307,-176,16376,-2228,-56,-38,-3
6725.444,308,-176,16376,-2228,-56,-38,-3
6727.457,309,-176,16376,-2228,-56,-38,-3
6727.457,308,-176,16376,-2228,-56,-38,-3
6727.457,309,-188,16368,-2176,-43,-39,-16
6737.5470000000005,308,-188,16368,-2176,-43,-39,-16
6742.195,308,-188,16368,-2176,-43,-39,-16
6743.956,308,-188,16368,-2176,-43,-39,-16
6744.920999999999,307,-188,16368,-2176,-43,-39,-16
6746.929,308,-188,16368,-2176,-43,-39,-16
6746.929,308,-188,16368,-2176,-43,-39,-16
6752.424,308,-220,16340,-2180,-8,-36,-17
6759.0070000000005,308,-220,16340,-2180,-8,-36,-17
6760.788,307,-220,16340,-2180,-8,-36,-17
6761.366,308,-220,16340,-2180,-8,-36,-17
6761.366,308,-220,16340,-2180,-8,-36,-17
6769.119,308,-220,16340,-2180,-8,-36,-17
6769.119,309,-220,16340,-2180,-8,-36,-17
6774.887,308,-192,16304,-2212,-43,-49,-14
6777.316,308,-192,16304,-2212,-43,-49,-14
6777.316,308,-192,16304,-2212,-43,-49,-14
6777.316,308,-192,16304,-2212,-43,-49,-14
6785.549,308,-192,16304,-2212,-43,-49,-14
6789.565,309,-192,16304,-2212,-43,-49,-14
6792.237,309,-240,16376,-2232,-65,-29,-10
6795.615,309,-240,16376,-2232,-65,-29,-10
6796.202,308,-240,16376,-2232,-65,-29,-10
6796.202,307,-240,16376,-2232,-65,-29,-10
6803.68,307,-240,16376,-2232,-65,-29,-10
6808.5019999999995,307,-240,16376,-2232,-65,-29,-10
6809.663,307,-240,16376,-2232,-65,-29,-10
6809.663,308,-180,16296,-2220,-47,-37,-5
6809.663,308,-180,16296,-2220,-47,-37,-5
6818.131,307,-180,16296,-2220,-47,-37,-5
6818.131,307,-180,16296,-2220,-47,-37,-5
6825.108,308,-180,16296,-2220,-47,-37,-5
6826.6179999999995,308,-180,16296,-2220,-47,-37,-5
6826.6179999999995,308,-180,16296,-2220,-47,-37,-5
6826.6179999999995,308,-228,16328,-2224,-17,-37,-6
6836.593,308,-228,16328,-2224,-17,-37,-6
6836.593,308,-228,16328,-2224,-17,-37,-6
6841.243,308,-228,16328,-2224,-17,-37,-6
6843.317,308,-228,16328,-2224,-17,-37,-6
6843.317,309,-228,16328,-2224,-17,-37,-6
6843.317,309,-228,16328,-2224,-17,-37,-6
6851.575000000001,309,-220,16300,-2204,-34,-40,1
6851.575000000001,309,-220,16300,-2204,-34,-40,1
6857.973999999999,308,-220,16300,-2204,-34,-40,1
6859.87,307,-220,16300,-2204,-34,-40,1
6859.87,308,-220,16300,-2204,-34,-40,1
6859.87,308,-220,16300,-2204,-34,-40,1
6868.947999999999,308,-220,16300,-2204,-34,-40,1
6873.058,308,-220,16300,-2204,-34,-40,1
6874.434,308,-188,16456,-2216,-38,-30,-22
6876.528,308,-188,16456,-2216,-38,-30,-22
6879.679999999999,308,-188,16456,-2216,-38,-30,-22
6879.679999999999,308,-188,16456,-2216,-38,-30,-22
6884.57,309,-188,16456,-2216,-38,-30,-22
6886.58,308,-188,16456,-2216,-38,-30,-22
6893.056,309,-188,16456,-2216,-38,-30,-22
6893.056,308,-240,16376,-2208,-31,-31,-8
6897.081,308,-240,16376,-2208,-31,-31,-8
6901.211,308,-240,16376,-2208,-31,-31,-8
6901.211,307,-240,16376,-2208,-31,-31,-8
6901.211,307,-240,16376,-2208,-31,-31,-8
6909.638,307,-240,16376,-2208,-31,-31,-8
6909.638,308,-240,16376,-2208,-31,-31,-8
6909.638,308,-160,16320,-2204,-60,-60,4
6917.833,308,-160,16320,-2204,-60,-60,4
6917.833,308,-160,16320,-2204,-60,-60,4
6917.833,308,-160,16320,-2204,-60,-60,4
6927.409,308,-160,16320,-2204,-60,-60,4
6927.409,309,-160,16320,-2204,-60,-60,4
6927.409,308,-160,16320,-2204,-60,-60,4
6935.616,308,-188,16324,-2196,-31,-19,-22
6935.616,307,-188,16324,-2196,-31,-19,-22
6935.616,308,-188,16324,-2196,-31,-19,-22
6942.802000000001,308,-188,16324,-2196,-31,-19,-22
6942.802000000001,308,-188,16324,-2196,-31,-19,-22
6942.802000000001,309,-188,16324,-2196,-31,-19,-22
6951.571000000001,309,-188,16324,-2196,-31,-19,-22
6952.9490000000005,308,-204,16380,-2204,-6,-29,1
6952.9490000000005,309,-204,16380,-2204,-6,-29,1
6959.278,309,-204,16380,-2204,-6,-29,1
6959.278,308,-204,16380,-2204,-6,-29,1
6964.2390000000005,308,-204,16380,-2204,-6,-29,1
6967.492,308,-204,16380,-2204,-6,-29,1
6971.397,308,-204,16380,-2204,-6,-29,1
6972.49,309,-236,16368,-2232,-79,-39,-3
6975.823,309,-236,16368,-2232,-79,-39,-3
6979.875,308,-236,16368,-2232,-79,-39,-3
6983.710999999999,308,-236,16368,-2232,-79,-39,-3
6984.337,308,-236,16368,-2232,-79,-39,-3
6987.831,308,-236,16368,-2232,-79,-39,-3
6992.035,308,-236,16368,-2232,-79,-39,-3
6992.035,307,-228,16376,-2220,-37,-28,-32
6995.634,308,-228,16376,-2220,-37,-28,-32
7000.293,308,-228,16376,-2220,-37,-28,-32
7000.798,308,-228,16376,-2220,-37,-28,-32
7002.76,307,-228,16376,-2220,-37,-28,-32
7005.603,307,-228,16376,-2220,-37,-28,-32
7005.603,309,-228,16376,-2220,-37,-28,-32
7014.055,308,-144,16280,-2252,8,-29,-1
7014.055,308,-144,16280,-2252,8,-29,-1
7014.055,308,-144,16280,-2252,8,-29,-1
7014.055,307,-144,16280,-2252,8,-29,-1
7022.178,308,-144,16280,-2252,8,-29,-1
7025.719,308,-144,16280,-2252,8,-29,-1
7025.719,307,-144,16280,-2252,8,-29,-1
7030.319,308,-144,16280,-2252,8,-29,-1
7030.319,308,-220,16312,-2256,-60,-26,-3
7030.319,308,-220,16312,-2256,-60,-26,-3
7041.523,307,-220,16312,-2256,-60,-26,-3
7045.022,308,-220,16312,-2256,-60,-26,-3
7045.022,308,-220,16312,-2256,-60,-26,-3
7049.417,308,-220,16312,-2256,-60,-26,-3
7053.518999999999,308,-220,16312,-2256,-60,-26,-3
7054.109,308,-172,16372,-2184,-62,-39,-3
7059.332,308,-172,16372,-2184,-62,-39,-3
7061.351000000001,308,-172,16372,-2184,-62,-39,-3
7061.351000000001,307,-172,16372,-2184,-62,-39,-3
7066.474,307,-172,16372,-2184,-62,-39,-3
7066.474,307,-172,16372,-2184,-62,-39,-3
7071.616,308,-172,16372,-2184,-62,-39,-3
7075.6230000000005,308,-184,16380,-2208,1,-23,-1
7075.6230000000005,307,-184,16380,-2208,1,-23,-1
7075.6230000000005,308,-184,16380,-2208,1,-23,-1
7080.106,307,-184,16380,-2208,1,-23,-1
7080.106,308,-184,16380,-2208,1,-23,-1
7080.106,308,-184,16380,-2208,1,-23,-1
7090.493,308,-184,16380,-2208,1,-23,-1
7094.437,307,-168,16392,-2228,-35,-22,-18
7094.437,307,-168,16392,-2228,-35,-22,-18
7096.707,308,-168,16392,-2228,-35,-22,-18
7096.707,308,-168,16392,-2228,-35,-22,-18
7105.034,307,-168,16392,-2228,-35,-22,-18
7107.594,307,-168,16392,-2228,-35,-22,-18
7109.656,308,-168,16392,-2228,-35,-22,-18
7113.139,308,-188,16376,-2212,-40,-23,-9
7113.139,307,-188,16376,-2212,-40,-23,-9
7113.139,306,-188,16376,-2212,-40,-23,-9
7121.385,307,-188,16376,-2212,-40,-23,-9
7124.87,308,-188,16376,-2212,-40,-23,-9
7124.87,307,-188,16376,-2212,-40,-23,-9
7129.702,308,-188,16376,-2212,-40,-23,-9
7129.702,308,-228,16360,-2248,10,-28,-24
7129.702,307,-228,16360,-2248,10,-28,-24
7140.252,307,-228,16360,-2248,10,-28,-24
7144.813,307,-228,16360,-2248,10,-28,-24
7144.813,308,-228,16360,-2248,10,-28,-24
7146.332,308,-228,16360,-2248,10,-28,-24
7151.862,308,-228,16360,-2248,10,-28,-24
7151.862,307,-200,16372,-2216,-39,-35,-7
7156.401,307,-200,16372,-2216,-39,-35,-7
7158.4890000000005,308,-200,16372,-2216,-39,-35,-7
7162.472,307,-200,16372,-2216,-39,-35,-7
7164.63,306,-200,16372,-2216,-39,-35,-7
7164.63,307,-200,16372,-2216,-39,-35,-7
7172.496,307,-200,16372,-2216,-39,-35,-7
7172.496,307,-188,16364,-2180,-80,-39,1
7174.455,307,-188,16364,-2180,-80,-39,1
7179.277,308,-188,16364,-2180,-80,-39,1
7181.05,306,-188,16364,-2180,-80,-39,1
7181.05,306,-188,16364,-2180,-80,-39,1
7187.506,307,-188,16364,-2180,-80,-39,1
7189.515,308,-188,16364,-2180,-80,-39,1
7191.375,308,-188,16364,-2180,-80,-39,1
7196.883,307,-196,16300,-2228,-13,-49,-1
7196.883,307,-196,16300,-2228,-13,-49,-1
7196.883,307,-196,16300,-2228,-13,-49,-1
7205.023999999999,307,-196,16300,-2228,-13,-49,-1
7205.023999999999,307,-196,16300,-2228,-13,-49,-1
7209.407999999999,307,-196,16300,-2228,-13,-49,-1
7213.259,308,-196,16300,-2228,-13,-49,-1
7213.259,307,-244,16412,-2264,-48,-40,-20
7213.259,307,-244,16412,-2264,-48,-40,-20
7221.3820000000005,306,-244,16412,-2264,-48,-40,-20
7225.72,307,-244,16412,-2264,-48,-40,-20
7225.72,307,-244,16412,-2264,-48,-40,-20
7229.794,308,-244,16412,-2264,-48,-40,-20
7229.794,307,-244,16412,-2264,-48,-40,-20
7229.794,307,-200,16344,-2224,-71,-48,0
7238.158,307,-200,16344,-2224,-71,-48,0
7242.324,308,-200,16344,-2224,-71,-48,0
7246.168,307,-200,16344,-2224,-71,-48,0
7246.523,307,-200,16344,-2224,-71,-48,0
7246.523,307,-200,16344,-2224,-71,-48,0
7251.891,307,-200,16344,-2224,-71,-48,0
7254.425,307,-236,16292,-2212,-10,-29,-18
7254.425,307,-236,16292,-2212,-10,-29,-18
7262.44,307,-236,16292,-2212,-10,-29,-18
7262.44,307,-236,16292,-2212,-10,-29,-18
7262.44,307,-236,16292,-2212,-10,-29,-18
7270.579,308,-236,16292,-2212,-10,-29,-18
7270.579,307,-236,16292,-2212,-10,-29,-18
7276.084,307,-200,16408,-2244,-13,-40,6
7279.035000000001,307,-200,16408,-2244,-13,-40,6
7282.885,308,-200,16408,-2244,-13,-40,6
7282.885,308,-200,16408,-2244,-13,-40,6
7282.885,307,-200,16408,-2244,-13,-40,6
7287.561000000001,308,-200,16408,-2244,-13,-40,6
7292.531,308,-200,16408,-2244,-13,-40,6
7295.8,307,-212,16360,-2172,-49,-45,-17
7295.8,307,-212,16360,-2172,-49,-45,-17
7295.8,307,-212,16360,-2172,-49,-45,-17
7304.0830000000005,307,-212,16360,-2172,-49,-45,-17
7307.3009999999995,307,-212,16360,-2172,-49,-45,-17
7309.349,308,-212,16360,-2172,-49,-45,-17
7312.280000000001,307,-212,16360,-2172,-49,-45,-17
7315.634,309,-212,16328,-2200,-40,-39,1
7315.634,307,-212,16328,-2200,-40,-39,1
7320.610000000001,307,-212,16328,-2200,-40,-39,1
7324.934,307,-212,16328,-2200,-40,-39,1
7324.934,307,-212,16328,-2200,-40,-39,1
7328.755,307,-212,16328,-2200,-40,-39,1
7332.054,307,-212,16328,-2200,-40,-39,1
7332.054,308,-188,16284,-2244,-31,-46,-15
7336.843,307,-188,16284,-2244,-31,-46,-15
7341.909000000001,306,-188,16284,-2244,-31,-46,-15
7344.6720000000005,307,-188,16284,-2244,-31,-46,-15
7344.6720000000005,308,-188,16284,-2244,-31,-46,-15
7344.6720000000005,307,-188,16284,-2244,-31,-46,-15
7352.306,308,-188,16284,-2244,-31,-46,-15
7352.306,307,-216,16324,-2232,-28,-35,-16
7352.306,307,-216,16324,-2232,-28,-35,-16
7360.665,307,-216,16324,-2232,-28,-35,-16
7360.665,307,-216,16324,-2232,-28,-35,-16
7368.735,308,-216,16324,-2232,-28,-35,-16
7369.741,308,-216,16324,-2232,-28,-35,-16
7372.435,307,-216,16324,-2232,-28,-35,-16
7377.007,308,-212,16324,-2212,-43,-36,-12
7377.007,307,-212,16324,-2212,-43,-36,-12
7381.195,307,-212,16324,-2212,-43,-36,-12
7385.552,307,-212,16324,-2212,-43,-36,-12
7387.745,308,-212,16324,-2212,-43,-36,-12
7387.745,308,-212,16324,-2212,-43,-36,-12
7394.052000000001,308,-212,16324,-2212,-43,-36,-12
7397.041,308,-152,16380,-2204,-37,-40,-5
7397.041,307,-152,16380,-2204,-37,-40,-5
7401.904,307,-152,16380,-2204,-37,-40,-5
7404.937,308,-152,16380,-2204,-37,-40,-5
7406.5380000000005,307,-152,16380,-2204,-37,-40,-5
7410.4039999999995,308,-152,16380,-2204,-37,-40,-5
7412.419,307,-152,16380,-2204,-37,-40,-5
7417.925,307,-164,16396,-2200,-31,-33,-11
7418.4349999999995,307,-164,16396,-2200,-31,-33,-11
7422.461,307,-164,16396,-2200,-31,-33,-11
7426.22,307,-164,16396,-2200,-31,-33,-11
7428.232,308,-164,16396,-2200,-31,-33,-11
7430.252,308,-164,16396,-2200,-31,-33,-11
7434.026,308,-216,16364,-2204,-28,-52,-39
7438.048,308,-216,16364,-2204,-28,-52,-39
7438.048,308,-216,16364,-2204,-28,-52,-39
7442.688999999999,308,-216,16364,-2204,-28,-52,-39
7445.344999999999,307,-216,16364,-2204,-28,-52,-39
7447.37,307,-216,16364,-2204,-28,-52,-39
7450.400000000001,308,-216,16364,-2204,-28,-52,-39
7454.435,307,-224,16352,-2228,-47,-56,3
7455.746999999999,307,-224,16352,-2228,-47,-56,3
7459.385,307,-224,16352,-2228,-47,-56,3
7463.4130000000005,307,-224,16352,-2228,-47,-56,3
7463.4130000000005,307,-224,16352,-2228,-47,-56,3
7467.446,307,-224,16352,-2228,-47,-56,3
7471.476,308,-224,16352,-2228,-47,-56,3
7474.956999999999,307,-224,16352,-2228,-47,-56,3
7475.994,306,-232,16404,-2212,-30,-32,3
7478.008,306,-232,16404,-2212,-30,-32,3
7481.786,306,-232,16404,-2212,-30,-32,3
7483.799999999999,306,-232,16404,-2212,-30,-32,3
7487.812,307,-232,16404,-2212,-30,-32,3
7490.776999999999,307,-232,16404,-2212,-30,-32,3
7490.776999999999,308,-232,16404,-2212,-30,-32,3
7490.776999999999,308,-212,16336,-2204,-26,-33,-11
7498.106,308,-212,16336,-2204,-26,-33,-11
7498.106,307,-212,16336,-2204,-26,-33,-11
7504.572999999999,307,-212,16336,-2204,-26,-33,-11
7508.1449999999995,307,-212,16336,-2204,-26,-33,-11
7511.875,308,-212,16336,-2204,-26,-33,-11
7511.875,308,-212,16336,-2204,-26,-33,-11
7516.549999999999,308,-224,16344,-2228,-20,-44,-19
7520.578,308,-224,16344,-2228,-20,-44,-19
7520.578,308,-224,16344,-2228,-20,-44,-19
7522.59,307,-224,16344,-2228,-20,-44,-19
7525.99,308,-224,16344,-2228,-20,-44,-19
7531.002,308,-224,16344,-2228,-20,-44,-19
7531.002,308,-224,16344,-2228,-20,-44,-19
7531.002,308,-260,16376,-2224,-73,-37,-4
7539.068,308,-260,16376,-2224,-73,-37,-4
7541.836,308,-260,16376,-2224,-73,-37,-4
7541.836,308,-260,16376,-2224,-73,-37,-4
7547.603,308,-260,16376,-2224,-73,-37,-4
7547.603,308,-260,16376,-2224,-73,-37,-4
7552.981,308,-260,16376,-2224,-73,-37,-4
7557.973,307,-172,16348,-2208,-40,-30,-20
7557.973,307,-172,16348,-2208,-40,-30,-20
7557.973,307,-172,16348,-2208,-40,-30,-20
7565.697,307,-172,16348,-2208,-40,-30,-20
7566.723,307,-172,16348,-2208,-40,-30,-20
7566.723,309,-172,16348,-2208,-40,-30,-20
7571.8189999999995,308,-184,16320,-2252,-12,-47,-19
7571.8189999999995,307,-184,16320,-2252,-12,-47,-19
7579.878,307,-184,16320,-2252,-12,-47,-19
7579.878,307,-184,16320,-2252,-12,-47,-19
7579.878,307,-184,16320,-2252,-12,-47,-19
7588.294999999999,308,-184,16320,-2252,-12,-47,-19
7588.294999999999,308,-184,16320,-2252,-12,-47,-19
7592.424,308,-208,16308,-2240,-46,-39,-2
7598.715,308,-208,16308,-2240,-46,-39,-2
7600.278,308,-208,16308,-2240,-46,-39,-2
7602.454,307,-208,16308,-2240,-46,-39,-2
7606.290999999999,308,-208,16308,-2240,-46,-39,-2
7610.327,308,-208,16308,-2240,-46,-39,-2
7611.296,309,-208,16308,-2240,-46,-39,-2
7613.316,309,-200,16356,-2208,-49,-31,-1
7613.316,309,-200,16356,-2208,-49,-31,-1
7613.316,308,-200,16356,-2208,-49,-31,-1
7621.630999999999,307,-200,16356,-2208,-49,-31,-1
7621.630999999999,308,-200,16356,-2208,-49,-31,-1
7628.713000000001,308,-200,16356,-2208,-49,-31,-1
7630.974,308,-200,16356,-2208,-49,-31,-1
7630.974,309,-144,16324,-2228,-27,-33,3
7630.974,307,-144,16324,-2228,-27,-33,3
7638.091,307,-144,16324,-2228,-27,-33,3
7642.561,308,-144,16324,-2228,-27,-33,3
7642.561,307,-144,16324,-2228,-27,-33,3
7646.24,308,-144,16324,-2228,-27,-33,3
7646.24,308,-144,16324,-2228,-27,-33,3
7653.293,308,-144,16324,-2228,-27,-33,3
7654.402,309,-196,16320,-2188,-27,-29,2
7654.402,308,-196,16320,-2188,-27,-29,2
7662.571,308,-196,16320,-2188,-27,-29,2
7662.571,307,-196,16320,-2188,-27,-29,2
7662.571,308,-196,16320,-2188,-27,-29,2
7671.009,308,-196,16320,-2188,-27,-29,2
7671.009,308,-196,16320,-2188,-27,-29,2
7675.6630000000005,308,-224,16384,-2184,-50,-31,-24
7679.280000000001,307,-224,16384,-2184,-50,-31,-24
7679.280000000001,308,-224,16384,-2184,-50,-31,-24
7679.280000000001,307,-224,16384,-2184,-50,-31,-24
7687.464,307,-224,16384,-2184,-50,-31,-24
7687.464,307,-224,16384,-2184,-50,-31,-24
7687.464,307,-224,16384,-2184,-50,-31,-24
7695.744000000001,308,-196,16344,-2224,-46,-34,-28
7695.744000000001,307,-196,16344,-2224,-46,-34,-28
7695.744000000001,307,-196,16344,-2224,-46,-34,-28
7703.893,307,-196,16344,-2224,-46,-34,-28
7708.704,307,-196,16344,-2224,-46,-34,-28
7712.195000000001,308,-196,16344,-2224,-46,-34,-28
7712.195000000001,308,-196,16344,-2224,-46,-34,-28
7712.195000000001,308,-204,16332,-2228,-44,-37,-9
7720.688,308,-204,16332,-2228,-44,-37,-9
7720.688,307,-204,16332,-2228,-44,-37,-9
7726.02,307,-204,16332,-2228,-44,-37,-9
7728.828,308,-204,16332,-2228,-44,-37,-9
7728.828,308,-204,16332,-2228,-44,-37,-9
7732.08,308,-204,16332,-2228,-44,-37,-9
7737.89,308,-200,16360,-2184,-31,-26,-21
7739.803,308,-200,16360,-2184,-31,-26,-21
7741.9039999999995,307,-200,16360,-2184,-31,-26,-21
7746.0380000000005,307,-200,16360,-2184,-31,-26,-21
7746.0380000000005,307,-200,16360,-2184,-31,-26,-21
7746.0380000000005,308,-200,16360,-2184,-31,-26,-21
7753.2300000000005,308,-200,16360,-2184,-31,-26,-21
7753.2300000000005,308,-172,16384,-2228,-23,-39,-15
7759.299,308,-172,16384,-2228,-23,-39,-15
7761.397,307,-172,16384,-2228,-23,-39,-15
7761.397,307,-172,16384,-2228,-23,-39,-15
7769.488,308,-172,16384,-2228,-23,-39,-15
7769.488,308,-172,16384,-2228,-23,-39,-15
7774.9839999999995,308,-204,16376,-2216,-70,-24,-24
7777.902,308,-204,16376,-2216,-70,-24,-24
7777.902,307,-204,16376,-2216,-70,-24,-24
7783.726,307,-204,16376,-2216,-70,-24,-24
7786.251,307,-204,16376,-2216,-70,-24,-24
7786.251,307,-204,16376,-2216,-70,-24,-24
7793.072,307,-204,16376,-2216,-70,-24,-24
7796.508,308,-188,16324,-2248,-31,-24,-3
7798.098000000001,308,-188,16324,-2248,-31,-24,-3
7798.098000000001,307,-188,16324,-2248,-31,-24,-3
7802.6939999999995,307,-188,16324,-2248,-31,-24,-3
7802.6939999999995,307,-188,16324,-2248,-31,-24,-3
7810.314,308,-188,16324,-2248,-31,-24,-3
7812.371,308,-188,16324,-2248,-31,-24,-3
7812.371,308,-208,16336,-2228,-27,-53,3
7818.607,308,-208,16336,-2228,-27,-53,3
7818.607,308,-208,16336,-2228,-27,-53,3
7818.607,307,-208,16336,-2228,-27,-53,3
7827.457,307,-208,16336,-2228,-27,-53,3
7829.472,307,-208,16336,-2228,-27,-53,3
7830.625999999999,307,-208,16336,-2228,-27,-53,3
7834.875,307,-208,16336,-2228,-27,-53,3
7834.875,307,-128,16388,-2196,-54,-29,-2
7840.377,307,-128,16388,-2196,-54,-29,-2
7844.855,307,-128,16388,-2196,-54,-29,-2
7846.869,307,-128,16388,-2196,-54,-29,-2
7846.869,307,-128,16388,-2196,-54,-29,-2
7850.608,308,-128,16388,-2196,-54,-29,-2
7853.2880000000005,307,-128,16388,-2196,-54,-29,-2
7853.2880000000005,307,-192,16352,-2236,-39,-50,-14
7859.093,307,-192,16352,-2236,-39,-50,-14
7862.019,308,-192,16352,-2236,-39,-50,-14
7862.019,307,-192,16352,-2236,-39,-50,-14
7867.124,308,-192,16352,-2236,-39,-50,-14
7867.124,307,-192,16352,-2236,-39,-50,-14
7875.143999999999,307,-192,16352,-2236,-39,-50,-14
7878.219999999999,307,-176,16332,-2240,-24,-28,6
7880.237,308,-176,16332,-2240,-24,-28,6
7880.237,306,-176,16332,-2240,-24,-28,6
7883.46,307,-176,16332,-2240,-24,-28,6
7883.46,307,-176,16332,-2240,-24,-28,6
7891.624,307,-176,16332,-2240,-24,-28,6
7893.638,308,-176,16332,-2240,-24,-28,6
7893.638,308,-204,16352,-2264,-26,-41,-13
7899.731,307,-204,16352,-2264,-26,-41,-13
7899.731,307,-204,16352,-2264,-26,-41,-13
7899.731,307,-204,16352,-2264,-26,-41,-13
7909.424999999999,307,-204,16352,-2264,-26,-41,-13
7910.736,307,-204,16352,-2264,-26,-41,-13
7914.582,307,-204,16352,-2264,-26,-41,-13
7917.255,306,-232,16408,-2188,-38,-42,-5
7921.737,307,-232,16408,-2188,-38,-42,-5
7922.878,306,-232,16408,-2188,-38,-42,-5
7925.741999999999,307,-232,16408,-2188,-38,-42,-5
7925.741999999999,307,-232,16408,-2188,-38,-42,-5
7930.634999999999,307,-232,16408,-2188,-38,-42,-5
7932.794999999999,307,-232,16408,-2188,-38,-42,-5
7932.794999999999,307,-228,16300,-2212,-46,-37,-12
7932.794999999999,307,-228,16300,-2212,-46,-37,-12
7941.471,307,-228,16300,-2212,-46,-37,-12
7941.471,306,-228,16300,-2212,-46,-37,-12
7950.1359999999995,307,-228,16300,-2212,-46,-37,-12
7950.1359999999995,307,-228,16300,-2212,-46,-37,-12
7953.503000000001,307,-228,16300,-2212,-46,-37,-12
7958.158,307,-204,16332,-2220,-52,-49,-2
7958.158,307,-204,16332,-2220,-52,-49,-2
7958.158,307,-204,16332,-2220,-52,-49,-2
7965.849999999999,306,-204,16332,-2220,-52,-49,-2
7965.849999999999,306,-204,16332,-2220,-52,-49,-2
7965.849999999999,307,-204,16332,-2220,-52,-49,-2
7974.36,307,-204,16332,-2220,-52,-49,-2
7974.36,307,-212,16332,-2252,-41,-38,-16
7974.36,307,-212,16332,-2252,-41,-38,-16
7982.4349999999995,307,-212,16332,-2252,-41,-38,-16
7982.4349999999995,307,-212,16332,-2252,-41,-38,-16
7982.4349999999995,307,-212,16332,-2252,-41,-38,-16
7992.625999999999,307,-212,16332,-2252,-41,-38,-16
7994.641,307,-212,16332,-2252,-41,-38,-16
7998.887,307,-176,16336,-2204,-12,-49,-7
7998.887,306,-176,16336,-2204,-12,-49,-7
7998.887,307,-176,16336,-2204,-12,-49,-7
8006.937000000001,307,-176,16336,-2204,-12,-49,-7
8008.715999999999,307,-176,16336,-2204,-12,-49,-7
8008.715999999999,307,-176,16336,-2204,-12,-49,-7
8015.172,307,-176,16336,-2204,-12,-49,-7
8015.172,307,-156,16348,-2220,-34,-22,0
8015.172,307,-156,16348,-2220,-34,-22,0
8023.413,307,-156,16348,-2220,-34,-22,0
8025.433,307,-156,16348,-2220,-34,-22,0
8027.452,308,-156,16348,-2220,-34,-22,0
8031.572999999999,308,-156,16348,-2220,-34,-22,0
8031.572999999999,308,-156,16348,-2220,-34,-22,0
8031.572999999999,307,-200,16344,-2244,-74,-46,-22
8041.384000000001,307,-200,16344,-2244,-74,-46,-22
8043.208999999999,306,-200,16344,-2244,-74,-46,-22
8043.208999999999,306,-200,16344,-2244,-74,-46,-22
8048.237,307,-200,16344,-2244,-74,-46,-22
8048.237,307,-200,16344,-2244,-74,-46,-22
8053.635,308,-200,16344,-2244,-74,-46,-22
8056.727000000001,308,-204,16316,-2208,-24,-40,-15
8060.998,307,-204,16316,-2208,-24,-40,-15
8065.137,307,-204,16316,-2208,-24,-40,-15
8065.137,307,-204,16316,-2208,-24,-40,-15
8069.69,307,-204,16316,-2208,-24,-40,-15
8073.558,307,-204,16316,-2208,-24,-40,-15
8073.558,307,-204,16316,-2208,-24,-40,-15
8073.558,307,-236,16424,-2240,1,-38,-12
8082.003000000001,307,-236,16424,-2240,1,-38,-12
8084.018,307,-236,16424,-2240,1,-38,-12
8084.018,307,-236,16424,-2240,1,-38,-12
8090.139000000001,307,-236,16424,-2240,1,-38,-12
8090.139000000001,307,-236,16424,-2240,1,-38,-12
8090.139000000001,308,-236,16424,-2240,1,-38,-12
8098.598000000001,308,-196,16316,-2216,-81,-45,-5
8102.086,307,-196,16316,-2216,-81,-45,-5
8102.086,308,-196,16316,-2216,-81,-45,-5
8107.018,307,-196,16316,-2216,-81,-45,-5
8109.036,308,-196,16316,-2216,-81,-45,-5
8111.053999999999,307,-196,16316,-2216,-81,-45,-5
8115.149,308,-196,16316,-2216,-81,-45,-5
8115.149,307,-208,16304,-2232,-43,-33,-9
8115.149,307,-208,16304,-2232,-43,-33,-9
8123.319,307,-208,16304,-2232,-43,-33,-9
8125.731999999999,306,-208,16304,-2232,-43,-33,-9
8125.731999999999,306,-208,16304,-2232,-43,-33,-9
8131.634999999999,306,-208,16304,-2232,-43,-33,-9
8133.348,308,-208,16304,-2232,-43,-33,-9
8133.348,307,-228,16372,-2220,11,-48,-35
8141.221,307,-228,16372,-2220,11,-48,-35
8142.2080000000005,306,-228,16372,-2220,11,-48,-35
8146.718,307,-228,16372,-2220,11,-48,-35
8148.317999999999,307,-228,16372,-2220,11,-48,-35
8148.317999999999,307,-228,16372,-2220,11,-48,-35
8153.771000000001,307,-228,16372,-2220,11,-48,-35
8156.499999999999,307,-196,16344,-2168,-64,-12,-14
8158.868,306,-196,16344,-2168,-64,-12,-14
8163.1230000000005,307,-196,16344,-2168,-64,-12,-14
8164.884000000001,306,-196,16344,-2168,-64,-12,-14
8164.884000000001,306,-196,16344,-2168,-64,-12,-14
8164.884000000001,306,-196,16344,-2168,-64,-12,-14
8176.320000000001,307,-196,16344,-2168,-64,-12,-14
8176.320000000001,307,-220,16348,-2232,-58,-22,-6
8179.987999999999,306,-220,16348,-2232,-58,-22,-6
8183.028,306,-220,16348,-2232,-58,-22,-6
8185.040000000001,306,-220,16348,-2232,-58,-22,-6
8189.065,307,-220,16348,-2232,-58,-22,-6
8191.426999999999,307,-220,16348,-2232,-58,-22,-6
8191.426999999999,307,-220,16348,-2232,-58,-22,-6
8197.493,307,-188,16332,-2220,-6,-53,-6
8197.493,306,-188,16332,-2220,-6,-53,-6
8197.493,307,-188,16332,-2220,-6,-53,-6
8205.722,307,-188,16332,-2220,-6,-53,-6
8205.722,306,-188,16332,-2220,-6,-53,-6
8205.722,306,-188,16332,-2220,-6,-53,-6
8213.893,307,-188,16332,-2220,-6,-53,-6
8213.893,307,-240,16332,-2248,-49,-20,-4
8213.893,306,-240,16332,-2248,-49,-20,-4
8221.926,306,-240,16332,-2248,-49,-20,-4
8221.926,306,-240,16332,-2248,-49,-20,-4
8228.611,307,-240,16332,-2248,-49,-20,-4
8230.37,308,-240,16332,-2248,-49,-20,-4
8230.37,308,-240,16332,-2248,-49,-20,-4
8230.37,307,-232,16376,-2184,-55,-29,-11
8238.483,306,-232,16376,-2184,-55,-29,-11
8238.483,307,-232,16376,-2184,-55,-29,-11
8245.763,307,-232,16376,-2184,-55,-29,-11
8246.792,307,-232,16376,-2184,-55,-29,-11
8246.792,307,-232,16376,-2184,-55,-29,-11
8253.677,307,-232,16376,-2184,-55,-29,-11
8258.775,308,-212,16412,-2244,-3,-42,-5
8259.389000000001,307,-212,16412,-2244,-3,-42,-5
8263.295,307,-212,16412,-2244,-3,-42,-5
8266.116,306,-212,16412,-2244,-3,-42,-5
8266.116,307,-212,16412,-2244,-3,-42,-5
8266.116,306,-212,16412,-2244,-3,-42,-5
8271.398,307,-212,16412,-2244,-3,-42,-5
8277.766,307,-228,16312,-2256,-44,-29,-15
8279.529,307,-228,16312,-2256,-44,-29,-15
8279.529,307,-228,16312,-2256,-44,-29,-15
8279.529,306,-228,16312,-2256,-44,-29,-15
8287.666,307,-228,16312,-2256,-44,-29,-15
8292.221,308,-228,16312,-2256,-44,-29,-15
8293.927,308,-228,16312,-2256,-44,-29,-15
8298.651,307,-208,16320,-2192,-40,-30,-12
8298.651,307,-208,16320,-2192,-40,-30,-12
8298.651,307,-208,16320,-2192,-40,-30,-12
8306.85,307,-208,16320,-2192,-40,-30,-12
8306.85,308,-208,16320,-2192,-40,-30,-12
8312.428,308,-208,16320,-2192,-40,-30,-12
8312.428,308,-208,16320,-2192,-40,-30,-12
8312.428,308,-184,16312,-2224,-11,-50,-17
8320.567000000001,307,-184,16312,-2224,-11,-50,-17
8320.567000000001,307,-184,16312,-2224,-11,-50,-17
8325.197,308,-184,16312,-2224,-11,-50,-17
8329.062,308,-184,16312,-2224,-11,-50,-17
8329.062,307,-184,16312,-2224,-11,-50,-17
8329.062,308,-184,16312,-2224,-11,-50,-17
8339.625,308,-240,16384,-2232,-61,-43,-14
8342.271999999999,307,-240,16384,-2232,-61,-43,-14
8342.271999999999,308,-240,16384,-2232,-61,-43,-14
8348.027999999998,308,-240,16384,-2232,-61,-43,-14
8348.027999999998,307,-240,16384,-2232,-61,-43,-14
8348.027999999998,307,-240,16384,-2232,-61,-43,-14
8356.021999999999,308,-240,16384,-2232,-61,-43,-14
8359.094000000001,307,-224,16336,-2184,-29,-11,-16
8361.681,307,-224,16336,-2184,-29,-11,-16
8364.378,307,-224,16336,-2184,-29,-11,-16
8364.378,308,-224,16336,-2184,-29,-11,-16
8369.854,307,-224,16336,-2184,-29,-11,-16
8372.412,307,-224,16336,-2184,-29,-11,-16
8375.479000000001,307,-224,16336,-2184,-29,-11,-16
8378.07,307,-232,16284,-2240,-22,-43,-12
8378.07,307,-232,16284,-2240,-22,-43,-12
8378.07,307,-232,16284,-2240,-22,-43,-12
8386.14,307,-232,16284,-2240,-22,-43,-12
8392.076,308,-232,16284,-2240,-22,-43,-12
8394.533,308,-232,16284,-2240,-22,-43,-12
8396.547999999999,308,-208,16380,-2212,-30,-50,-8
8396.547999999999,309,-208,16380,-2212,-30,-50,-8
8402.974,307,-208,16380,-2212,-30,-50,-8
8405.277,307,-208,16380,-2212,-30,-50,-8
8409.361,308,-208,16380,-2212,-30,-50,-8
8411.128,307,-208,16380,-2212,-30,-50,-8
8413.456,307,-208,16380,-2212,-30,-50,-8
8413.456,308,-220,16332,-2228,-35,-36,1
8419.463,307,-220,16332,-2228,-35,-36,1
8419.463,307,-220,16332,-2228,-35,-36,1
8419.463,307,-220,16332,-2228,-35,-36,1
8427.536,308,-220,16332,-2228,-35,-36,1
8430.561000000002,308,-220,16332,-2228,-35,-36,1
8433.547,308,-220,16332,-2228,-35,-36,1
8435.542,309,-220,16332,-2228,-35,-36,1
8436.117,309,-208,16268,-2228,-37,-31,-15
8442.164,307,-208,16268,-2228,-37,-31,-15
8443.915,307,-208,16268,-2228,-37,-31,-15
8443.915,307,-208,16268,-2228,-37,-31,-15
8443.915,307,-208,16268,-2228,-37,-31,-15
8453.716,307,-208,16268,-2228,-37,-31,-15
8453.716,308,-208,16268,-2228,-37,-31,-15
8453.716,307,-236,16380,-2240,-13,-27,10
8461.934,308,-236,16380,-2240,-13,-27,10
8461.934,307,-236,16380,-2240,-13,-27,10
8468.103,307,-236,16380,-2240,-13,-27,10
8468.103,307,-236,16380,-2240,-13,-27,10
8468.103,308,-236,16380,-2240,-13,-27,10
8476.145,308,-236,16380,-2240,-13,-27,10
8479.642,307,-260,16356,-2208,-62,-25,-51
8479.642,308,-260,16356,-2208,-62,-25,-51
8484.607,307,-260,16356,-2208,-62,-25,-51
8484.607,307,-260,16356,-2208,-62,-25,-51
8492.073,307,-260,16356,-2208,-62,-25,-51
8495.203,308,-260,16356,-2208,-62,-25,-51
8495.203,307,-220,16392,-2200,-57,-28,1
8495.203,307,-220,16392,-2200,-57,-28,1
8501.673999999999,307,-220,16392,-2200,-57,-28,1
8501.673999999999,307,-220,16392,-2200,-57,-28,1
8501.673999999999,308,-220,16392,-2200,-57,-28,1
8510.064,307,-220,16392,-2200,-57,-28,1
8510.064,308,-220,16392,-2200,-57,-28,1
8510.064,308,-220,16392,-2200,-57,-28,1
8518.648000000001,308,-252,16344,-2208,-26,-56,20
8518.648000000001,308,-252,16344,-2208,-26,-56,20
8518.648000000001,308,-252,16344,-2208,-26,-56,20
8526.360999999999,307,-252,16344,-2208,-26,-56,20
8526.360999999999,308,-252,16344,-2208,-26,-56,20
8526.360999999999,307,-252,16344,-2208,-26,-56,20
8534.936,308,-252,16344,-2208,-26,-56,20
8534.936,308,-220,16340,-2268,-35,-32,4
8541.622,307,-220,16340,-2268,-35,-32,4
8543.363,307,-220,16340,-2268,-35,-32,4
8543.363,308,-220,16340,-2268,-35,-32,4
8543.363,308,-220,16340,-2268,-35,-32,4
8551.655999999999,308,-220,16340,-2268,-35,-32,4
8553.678,308,-220,16340,-2268,-35,-32,4
8559.677000000001,308,-188,16332,-2208,-49,-30,15
8561.699,308,-188,16332,-2208,-49,-30,15
8564.923,307,-188,16332,-2208,-49,-30,15
8567.846,307,-188,16332,-2208,-49,-30,15
8567.846,308,-188,16332,-2208,-49,-30,15
8567.846,307,-188,16332,-2208,-49,-30,15
8576.384,308,-188,16332,-2208,-49,-30,15
8576.384,308,-280,16380,-2196,-9,-29,0
8576.384,308,-280,16380,-2196,-9,-29,0
8576.384,308,-280,16380,-2196,-9,-29,0
8585.414,308,-280,16380,-2196,-9,-29,0
8589.559,307,-280,16380,-2196,-9,-29,0
8592.002,307,-280,16380,-2196,-9,-29,0
8593.121,307,-280,16380,-2196,-9,-29,0
8595.141,308,-280,16380,-2196,-9,-29,0
8595.141,307,-232,16312,-2204,-61,-34,-4
8601.169,306,-232,16312,-2204,-61,-34,-4
8605.059000000001,307,-232,16312,-2204,-61,-34,-4
8608.002,307,-232,16312,-2204,-61,-34,-4
8609.516,308,-232,16312,-2204,-61,-34,-4
8613.302,308,-232,16312,-2204,-61,-34,-4
8615.314,309,-232,16312,-2204,-61,-34,-4
8618.048999999999,308,-204,16264,-2176,-34,-44,-15
8618.048999999999,307,-204,16264,-2176,-34,-44,-15
8626.259,307,-204,16264,-2176,-34,-44,-15
8627.869,307,-204,16264,-2176,-34,-44,-15
8627.869,307,-204,16264,-2176,-34,-44,-15
8634.579,307,-204,16264,-2176,-34,-44,-15
8634.579,309,-204,16264,-2176,-34,-44,-15
8638.596,308,-208,16436,-2212,17,-26,9
8642.676,307,-208,16436,-2212,17,-26,9
8645.229000000001,306,-208,16436,-2212,17,-26,9
8645.229000000001,307,-208,16436,-2212,17,-26,9
8650.947,307,-208,16436,-2212,17,-26,9
8654.005,306,-208,16436,-2212,17,-26,9
8654.005,307,-208,16436,-2212,17,-26,9
8659.348,307,-208,16348,-2248,-66,-36,-12
8662.050000000001,307,-208,16348,-2248,-66,-36,-12
8662.050000000001,308,-208,16348,-2248,-66,-36,-12
8667.448999999999,307,-208,16348,-2248,-66,-36,-12
8671.409000000001,307,-208,16348,-2248,-66,-36,-12
8671.409000000001,308,-208,16348,-2248,-66,-36,-12
8675.902,308,-208,16348,-2248,-66,-36,-12
8679.578,307,-188,16312,-2188,-79,-27,-10
8679.578,307,-188,16312,-2188,-79,-27,-10
8684.163,307,-188,16312,-2188,-79,-27,-10
8687.814,307,-188,16312,-2188,-79,-27,-10
8692.085000000001,307,-188,16312,-2188,-79,-27,-10
8693.729,307,-188,16312,-2188,-79,-27,-10
8694.426,308,-188,16312,-2188,-79,-27,-10
8700.303,307,-192,16316,-2212,24,-39,-3
8700.303,307,-192,16316,-2212,24,-39,-3
8700.303,307,-192,16316,-2212,24,-39,-3
8708.81,307,-192,16316,-2212,24,-39,-3
8709.654,307,-192,16316,-2212,24,-39,-3
8709.654,307,-192,16316,-2212,24,-39,-3
8716.431,307,-192,16316,-2212,24,-39,-3
8716.431,307,-220,16348,-2220,-49,-35,-12
8716.431,306,-220,16348,-2220,-49,-35,-12
8724.455,307,-220,16348,-2220,-49,-35,-12
8727.855,307,-220,16348,-2220,-49,-35,-12
8727.855,307,-220,16348,-2220,-49,-35,-12
8732.960000000001,308,-220,16348,-2220,-49,-35,-12
8736.924,308,-220,16348,-2220,-49,-35,-12
8736.924,307,-212,16344,-2228,-66,-37,-4
8741.135,306,-212,16344,-2228,-66,-37,-4
8745.181,306,-212,16344,-2228,-66,-37,-4
8745.181,306,-212,16344,-2228,-66,-37,-4
8749.423999999999,306,-212,16344,-2228,-66,-37,-4
8749.423999999999,307,-212,16344,-2228,-66,-37,-4
8757.832,308,-212,16344,-2228,-66,-37,-4
8758.588,307,-184,16308,-2228,8,-23,-6
8758.588,307,-184,16308,-2228,8,-23,-6
8758.588,306,-184,16308,-2228,8,-23,-6
8766.095,307,-184,16308,-2228,8,-23,-6
8770.279,306,-184,16308,-2228,8,-23,-6
8772.218,307,-184,16308,-2228,8,-23,-6
8774.305999999999,307,-184,16308,-2228,8,-23,-6
8775.938999999998,307,-196,16296,-2268,-36,-40,-1
8775.938999999998,308,-196,16296,-2268,-36,-40,-1
8782.738,306,-196,16296,-2268,-36,-40,-1
8786.903,307,-196,16296,-2268,-36,-40,-1
8786.903,307,-196,16296,-2268,-36,-40,-1
8791.482,307,-196,16296,-2268,-36,-40,-1
8791.482,307,-196,16296,-2268,-36,-40,-1
8797.202000000001,307,-196,16296,-2268,-36,-40,-1
8799.225,307,-180,16340,-2204,-68,-25,-12
8799.225,307,-180,16340,-2204,-68,-25,-12
8805.987,307,-180,16340,-2204,-68,-25,-12
8809.515,308,-180,16340,-2204,-68,-25,-12
8812.045,307,-180,16340,-2204,-68,-25,-12
8815.607999999998,307,-180,16340,-2204,-68,-25,-12
8815.607999999998,307,-244,16372,-2204,-5,-30,-12
8815.607999999998,307,-244,16372,-2204,-5,-30,-12
8821.416,307,-244,16372,-2204,-5,-30,-12
8824.482,307,-244,16372,-2204,-5,-30,-12
8824.482,307,-244,16372,-2204,-5,-30,-12
8832.209,307,-244,16372,-2204,-5,-30,-12
8832.209,307,-244,16372,-2204,-5,-30,-12
8832.209,307,-232,16324,-2268,-33,-29,-7
8842.138,306,-232,16324,-2268,-33,-29,-7
8844.161,307,-232,16324,-2268,-33,-29,-7
8844.161,307,-232,16324,-2268,-33,-29,-7
8848.381,308,-232,16324,-2268,-33,-29,-7
8848.381,307,-232,16324,-2268,-33,-29,-7
8856.477,308,-232,16324,-2268,-33,-29,-7
8858.968,307,-232,16324,-2268,-33,-29,-7
8858.968,307,-184,16312,-2232,-106,-29,-1
8858.968,307,-184,16312,-2232,-106,-29,-1
8868.014000000001,307,-184,16312,-2232,-106,-29,-1
8868.76,307,-184,16312,-2232,-106,-29,-1
8868.76,307,-184,16312,-2232,-106,-29,-1
8875.735999999999,307,-184,16312,-2232,-106,-29,-1
8875.735999999999,308,-220,16324,-2220,-12,-54,-1
8881.121000000001,307,-220,16324,-2220,-12,-54,-1
8884.401,307,-220,16324,-2220,-12,-54,-1
8884.401,307,-220,16324,-2220,-12,-54,-1
8889.331,307,-220,16324,-2220,-12,-54,-1
8893.353,307,-220,16324,-2220,-12,-54,-1
8896.63,307,-220,16324,-2220,-12,-54,-1
8897.632,307,-200,16396,-2244,-18,-36,-11
8897.632,307,-200,16396,-2244,-18,-36,-11
8897.632,307,-200,16396,-2244,-18,-36,-11
8905.983,307,-200,16396,-2244,-18,-36,-11
8908.832999999999,308,-200,16396,-2244,-18,-36,-11
8908.832999999999,307,-200,16396,-2244,-18,-36,-11
8914.167000000001,307,-200,16396,-2244,-18,-36,-11
8914.167000000001,307,-180,16320,-2224,-77,-38,-4
8920.047,308,-180,16320,-2224,-77,-38,-4
8924.366,307,-180,16320,-2224,-77,-38,-4
8926.386,307,-180,16320,-2224,-77,-38,-4
8930.421,308,-180,16320,-2224,-77,-38,-4
8932.438,308,-180,16320,-2224,-77,-38,-4
8934.453,307,-180,16320,-2224,-77,-38,-4
8938.481,307,-184,16388,-2216,-16,-38,-5
8940.492,306,-184,16388,-2216,-16,-38,-5
8942.51,307,-184,16388,-2216,-16,-38,-5
8946.546,307,-184,16388,-2216,-16,-38,-5
8950.58,307,-184,16388,-2216,-16,-38,-5
8952.594,307,-184,16388,-2216,-16,-38,-5
8954.608,308,-184,16388,-2216,-16,-38,-5
8958.685,307,-180,16388,-2216,-23,-42,-8
8961.125,307,-180,16388,-2216,-23,-42,-8
8962.885,307,-180,16388,-2216,-23,-42,-8
8966.918,307,-180,16388,-2216,-23,-42,-8
8970.945,307,-180,16388,-2216,-23,-42,-8
8972.958999999999,308,-180,16388,-2216,-23,-42,-8
8975.469000000001,308,-180,16388,-2216,-23,-42,-8
8979.026,307,-188,16348,-2220,-72,-43,-6
8981.043,307,-188,16348,-2220,-72,-43,-6
8983.061,307,-188,16348,-2220,-72,-43,-6
8987.092999999999,307,-188,16348,-2220,-72,-43,-6
8990.837000000001,307,-188,16348,-2220,-72,-43,-6
8992.352,308,-188,16348,-2220,-72,-43,-6
8995.388,308,-188,16348,-2220,-72,-43,-6
8999.419,307,-196,16320,-2200,-20,-25,-4
9001.435000000001,307,-196,16320,-2200,-20,-25,-4
9003.466,307,-196,16320,-2200,-20,-25,-4
9007.493999999999,307,-196,16320,-2200,-20,-25,-4
9010.259,308,-196,16320,-2200,-20,-25,-4
9011.776,308,-196,16320,-2200,-20,-25,-4
9015.812,308,-196,16320,-2200,-20,-25,-4
9017.832,307,-196,16320,-2200,-20,-25,-4
9019.852,307,-180,16320,-2216,-45,-39,-2
9023.887,307,-180,16320,-2216,-45,-39,-2
9027.487000000001,306,-180,16320,-2216,-45,-39,-2
9029.503,307,-180,16320,-2216,-45,-39,-2
9031.518,307,-180,16320,-2216,-45,-39,-2
9035.548999999999,307,-180,16320,-2216,-45,-39,-2
9035.548999999999,307,-180,16320,-2216,-45,-39,-2
9039.741,307,-216,16420,-2220,-63,-15,-3
9043.727,306,-216,16420,-2220,-63,-15,-3
9043.727,306,-216,16420,-2220,-63,-15,-3
9049.178,307,-216,16420,-2220,-63,-15,-3
9052.216,307,-216,16420,-2220,-63,-15,-3
9054.752,308,-216,16420,-2220,-63,-15,-3
9058.797,307,-216,16420,-2220,-63,-15,-3
9060.559,307,-228,16376,-2248,-32,-37,-24
9062.577,306,-228,16376,-2248,-32,-37,-24
9066.213,307,-228,16376,-2248,-32,-37,-24
9069.127999999999,307,-228,16376,-2248,-32,-37,-24
9072.288,307,-228,16376,-2248,-32,-37,-24
9072.288,308,-228,16376,-2248,-32,-37,-24
9077.144,308,-228,16376,-2248,-32,-37,-24
9077.144,308,-176,16316,-2204,-22,-46,-18
9077.144,307,-176,16316,-2204,-22,-46,-18
9085.759,306,-176,16316,-2204,-22,-46,-18
9085.759,307,-176,16316,-2204,-22,-46,-18
9094.020999999999,307,-176,16316,-2204,-22,-46,-18
9094.020999999999,307,-176,16316,-2204,-22,-46,-18
9097.286,307,-224,16344,-2216,-54,-47,-5
9097.286,307,-224,16344,-2216,-54,-47,-5
9105.585,307,-224,16344,-2216,-54,-47,-5
9108.249,307,-224,16344,-2216,-54,-47,-5
9108.249,308,-224,16344,-2216,-54,-47,-5
9110.851,308,-224,16344,-2216,-54,-47,-5
9110.851,308,-224,16344,-2216,-54,-47,-5
9110.851,308,-168,16376,-2196,-12,-17,-8
9122.435,307,-168,16376,-2196,-12,-17,-8
9124.262,307,-168,16376,-2196,-12,-17,-8
9127.485999999999,307,-168,16376,-2196,-12,-17,-8
9127.485999999999,308,-168,16376,-2196,-12,-17,-8
9127.485999999999,308,-168,16376,-2196,-12,-17,-8
9135.72,307,-168,16376,-2196,-12,-17,-8
9135.72,307,-216,16352,-2236,-42,-38,-10
9135.72,306,-216,16352,-2236,-42,-38,-10
9144.118,307,-216,16352,-2236,-42,-38,-10
9144.118,307,-216,16352,-2236,-42,-38,-10
9144.118,307,-216,16352,-2236,-42,-38,-10
9154.871,307,-216,16352,-2236,-42,-38,-10
9154.871,308,-216,16352,-2236,-42,-38,-10
9154.871,306,-204,16368,-2216,-64,-35,-9
9161.898000000001,307,-204,16368,-2216,-64,-35,-9
9161.898000000001,306,-204,16368,-2216,-64,-35,-9
9168.144,307,-204,16368,-2216,-64,-35,-9
9168.144,307,-204,16368,-2216,-64,-35,-9
9168.144,308,-204,16368,-2216,-64,-35,-9
9176.219,307,-204,16368,-2216,-64,-35,-9
9178.233,307,-220,16380,-2200,-19,-24,-8
9178.233,307,-220,16380,-2200,-19,-24,-8
9184.395,307,-220,16380,-2200,-19,-24,-8
9187.559000000001,307,-220,16380,-2200,-19,-24,-8
9187.559000000001,307,-220,16380,-2200,-19,-24,-8
9192.61,308,-220,16380,-2200,-19,-24,-8
9194.63,308,-220,16380,-2200,-19,-24,-8
9194.63,307,-240,16336,-2244,-16,-23,4
9200.939999999999,306,-240,16336,-2244,-16,-23,4
9200.939999999999,306,-240,16336,-2244,-16,-23,4
9200.939999999999,306,-240,16336,-2244,-16,-23,4
9210.845000000001,307,-240,16336,-2244,-16,-23,4
9212.861,307,-240,16336,-2244,-16,-23,4
9212.861,307,-240,16336,-2244,-16,-23,4
9217.201,308,-240,16336,-2244,-16,-23,4
9220.125,307,-184,16356,-2224,-53,-34,-17
9220.125,307,-184,16356,-2224,-53,-34,-17
9225.664,307,-184,16356,-2224,-53,-34,-17
9225.664,308,-184,16356,-2224,-53,-34,-17
9229.875,307,-184,16356,-2224,-53,-34,-17
9233.712000000001,307,-184,16356,-2224,-53,-34,-17
9233.712000000001,307,-184,16356,-2224,-53,-34,-17
9242.035,307,-228,16348,-2184,-5,-46,-15
9245.286,307,-228,16348,-2184,-5,-46,-15
9245.286,307,-228,16348,-2184,-5,-46,-15
9245.286,307,-228,16348,-2184,-5,-46,-15
9253.226,307,-228,16348,-2184,-5,-46,-15
9254.752999999999,308,-228,16348,-2184,-5,-46,-15
9258.492,307,-228,16348,-2184,-5,-46,-15
9260.518,307,-204,16320,-2248,-48,-35,1
9260.518,306,-204,16320,-2248,-48,-35,1
9266.596,307,-204,16320,-2248,-48,-35,1
9266.596,307,-204,16320,-2248,-48,-35,1
9266.596,306,-204,16320,-2248,-48,-35,1
9275.982,307,-204,16320,-2248,-48,-35,1
9275.982,307,-204,16320,-2248,-48,-35,1
9275.982,307,-228,16320,-2208,-56,-20,16
9282.934,306,-228,16320,-2208,-56,-20,16
9285.807999999999,306,-228,16320,-2208,-56,-20,16
9285.807999999999,307,-228,16320,-2208,-56,-20,16
9293.251,307,-228,16320,-2208,-56,-20,16
9293.251,308,-228,16320,-2208,-56,-20,16
9293.251,308,-228,16320,-2208,-56,-20,16
9299.396,308,-180,16356,-2208,-13,-25,-13
9299.396,308,-180,16356,-2208,-13,-25,-13
9299.396,307,-180,16356,-2208,-13,-25,-13
9309.665,307,-180,16356,-2208,-13,-25,-13
9311.687,308,-180,16356,-2208,-13,-25,-13
9314.454,307,-180,16356,-2208,-13,-25,-13
9315.705,307,-180,16356,-2208,-13,-25,-13
9315.705,307,-212,16328,-2220,-45,-16,-8
9323.802,307,-212,16328,-2220,-45,-16,-8
9325.828,308,-212,16328,-2220,-45,-16,-8
9330.857999999998,307,-212,16328,-2220,-45,-16,-8
9332.586,308,-212,16328,-2220,-45,-16,-8
9332.586,308,-212,16328,-2220,-45,-16,-8
9335.748000000001,308,-212,16328,-2220,-45,-16,-8
9340.368,307,-188,16280,-2176,-68,-23,-6
9342.393,307,-188,16280,-2176,-68,-23,-6
9344.41,307,-188,16280,-2176,-68,-23,-6
9349.663,307,-188,16280,-2176,-68,-23,-6
9349.663,307,-188,16280,-2176,-68,-23,-6
9355.109,308,-188,16280,-2176,-68,-23,-6
9358.204000000002,308,-188,16280,-2176,-68,-23,-6
9358.204000000002,308,-176,16372,-2248,8,-39,-5
9358.204000000002,307,-176,16372,-2248,8,-39,-5
9365.214,307,-176,16372,-2248,8,-39,-5
9365.214,308,-176,16372,-2248,8,-39,-5
9365.214,308,-176,16372,-2248,8,-39,-5
9375.848,308,-176,16372,-2248,8,-39,-5
9377.171,308,-176,16372,-2248,8,-39,-5
9380.901,308,-216,16368,-2200,-47,-28,5
9381.916000000001,307,-216,16368,-2200,-47,-28,5
9383.931999999999,307,-216,16368,-2200,-47,-28,5
9383.931999999999,307,-216,16368,-2200,-47,-28,5
9389.581,307,-216,16368,-2200,-47,-28,5
9392.232,308,-216,16368,-2200,-47,-28,5
9396.189,307,-216,16368,-2200,-47,-28,5
9397.956,308,-216,16368,-2200,-47,-28,5
9397.956,307,-180,16348,-2212,-32,-45,-1
9403.024,307,-180,16348,-2212,-32,-45,-1
9406.29,307,-180,16348,-2212,-32,-45,-1
