Time (ms),EMG,AccX,AccY,AccZ,GyroX,GyroY,GyroZ
1549.5529999999999,0,0,0,0,0,0,0
1549.5529999999999,307,0,0,0,0,0,0
1549.5529999999999,306,0,0,0,0,0,0
1549.5529999999999,306,0,0,0,0,0,0
1549.5529999999999,307,0,0,0,0,0,0
1558.206,307,0,0,0,0,0,0
1560.257,306,0,0,0,0,0,0
1561.802,306,0,0,0,0,0,0
1562.8880000000001,306,0,0,0,0,0,0
1562.8880000000001,306,0,0,0,0,0,0
1564.785,306,0,0,0,0,0,0
1567.169,306,0,0,0,0,0,0
1567.169,306,0,0,0,0,0,0
1567.169,306,0,0,0,0,0,0
1567.169,306,0,0,0,0,0,0
1574.033,307,0,0,0,0,0,0
1575.581,307,0,0,0,0,0,0
1575.581,307,0,0,0,0,0,0
1577.496,307,-216,16416,-2124,278,-28,8
1581.0900000000001,307,-216,16416,-2124,278,-28,8
1583.25,307,-216,16416,-2124,278,-28,8
1583.25,306,-216,16416,-2124,278,-28,8
1588.73,307,-216,16416,-2124,278,-28,8
1591.377,307,-216,16416,-2124,278,-28,8
1591.377,307,-216,16416,-2124,278,-28,8
1597.51,307,-216,16416,-2124,278,-28,8
1599.7740000000001,307,-168,16408,-2256,-17,-37,-9
1599.7740000000001,307,-168,16408,-2256,-17,-37,-9
1605.272,307,-168,16408,-2256,-17,-37,-9
1607.937,307,-168,16408,-2256,-17,-37,-9
1607.937,307,-168,16408,-2256,-17,-37,-9
1614.3339999999998,307,-168,16408,-2256,-17,-37,-9
1615.8790000000001,308,-168,16408,-2256,-17,-37,-9
1615.8790000000001,307,-228,16328,-2104,-374,-28,-11
1623.668,306,-228,16328,-2104,-374,-28,-11
1623.668,306,-228,16328,-2104,-374,-28,-11
1628.213,306,-228,16328,-2104,-374,-28,-11
1632.147,307,-228,16328,-2104,-374,-28,-11
1632.147,307,-228,16328,-2104,-374,-28,-11
1636.529,307,-236,16408,-2036,-29,-52,-1
1640.548,307,-236,16408,-2036,-29,-52,-1
1640.548,306,-236,16408,-2036,-29,-52,-1
1646.309,307,-236,16408,-2036,-29,-52,-1
1648.9799999999998,307,-236,16408,-2036,-29,-52,-1
1652.279,308,-236,16408,-2036,-29,-52,-1
1652.279,307,-236,16408,-2036,-29,-52,-1
1657.394,307,-252,16428,-2120,223,-47,-14
1661.477,308,-252,16428,-2120,223,-47,-14
1661.477,307,-252,16428,-2120,223,-47,-14
1665.594,306,-252,16428,-2120,223,-47,-14
1668.428,307,-252,16428,-2120,223,-47,-14
1671.87,307,-252,16428,-2120,223,-47,-14
1673.742,307,-252,16428,-2120,223,-47,-14
1677.5500000000002,308,-228,16276,-2208,-170,-41,-7
1681.779,307,-228,16276,-2208,-170,-41,-7
1681.779,307,-228,16276,-2208,-170,-41,-7
1684.789,307,-228,16276,-2208,-170,-41,-7
1684.789,307,-228,16276,-2208,-170,-41,-7
1692.342,307,-228,16276,-2208,-170,-41,-7
1694.699,308,-228,16276,-2208,-170,-41,-7
1697.9470000000001,307,-196,16320,-2056,-224,-29,-15
1697.9470000000001,308,-196,16320,-2056,-224,-29,-15
1706.1779999999999,307,-196,16320,-2056,-224,-29,-15
1706.1779999999999,307,-196,16320,-2056,-224,-29,-15
1706.1779999999999,307,-196,16320,-2056,-224,-29,-15
1714.38,307,-196,16320,-2056,-224,-29,-15
1715.0829999999999,308,-196,16320,-2056,-224,-29,-15
1715.0829999999999,307,-200,16444,-2104,209,-28,-9
1722.428,308,-200,16444,-2104,209,-28,-9
1722.428,308,-200,16444,-2104,209,-28,-9
1727.7610000000002,306,-200,16444,-2104,209,-28,-9
1731.042,307,-200,16444,-2104,209,-28,-9
1731.042,307,-200,16444,-2104,209,-28,-9
1736.197,307,-200,16444,-2104,209,-28,-9
1739.253,308,-164,16364,-2248,34,-27,-13
1740.251,307,-164,16364,-2248,34,-27,-13
1745.973,307,-164,16364,-2248,34,-27,-13
1746.988,307,-164,16364,-2248,34,-27,-13
1747.949,307,-164,16364,-2248,34,-27,-13
1753.6229999999998,308,-164,16364,-2248,34,-27,-13
1755.2069999999999,308,-164,16364,-2248,34,-27,-13
1755.2069999999999,308,-252,16256,-2172,-266,-44,-13
1762.625,308,-252,16256,-2172,-266,-44,-13
1763.752,307,-252,16256,-2172,-266,-44,-13
1763.752,307,-252,16256,-2172,-266,-44,-13
1771.7730000000001,308,-252,16256,-2172,-266,-44,-13
1774.1290000000001,308,-252,16256,-2172,-266,-44,-13
1774.1290000000001,308,-252,16256,-2172,-266,-44,-13
1779.873,308,-216,16400,-2064,49,-44,-17
1780.95,307,-216,16400,-2064,49,-44,-17
1784.887,307,-216,16400,-2064,49,-44,-17
1787.981,307,-216,16400,-2064,49,-44,-17
1787.981,307,-216,16400,-2064,49,-44,-17
1795.689,308,-216,16400,-2064,49,-44,-17
1796.491,308,-216,16400,-2064,49,-44,-17
1800.606,307,-172,16420,-2164,90,-44,-19
1804.109,307,-172,16420,-2164,90,-44,-19
1805.2079999999999,308,-172,16420,-2164,90,-44,-19
1805.2079999999999,308,-172,16420,-2164,90,-44,-19
1812.281,307,-172,16420,-2164,90,-44,-19
1813.102,308,-172,16420,-2164,90,-44,-19
1814.4,308,-172,16420,-2164,90,-44,-19
1819.4840000000002,307,-212,16316,-2140,-202,-39,-23
1819.4840000000002,307,-212,16316,-2140,-202,-39,-23
1819.4840000000002,307,-212,16316,-2140,-202,-39,-23
1828.9260000000002,308,-212,16316,-2140,-202,-39,-23
1828.9260000000002,307,-212,16316,-2140,-202,-39,-23
1834.1879999999999,307,-212,16316,-2140,-202,-39,-23
1837.1170000000002,308,-232,16324,-2100,-76,-34,-6
1838.402,307,-232,16324,-2100,-76,-34,-6
1843.401,307,-232,16324,-2100,-76,-34,-6
1846.306,307,-232,16324,-2100,-76,-34,-6
1846.306,307,-232,16324,-2100,-76,-34,-6
1851.872,308,-232,16324,-2100,-76,-34,-6
1851.872,308,-232,16324,-2100,-76,-34,-6
1857.596,308,-200,16400,-2092,97,-55,-9
1861.3690000000001,308,-200,16400,-2092,97,-55,-9
1862.838,307,-200,16400,-2092,97,-55,-9
1865.767,306,-200,16400,-2092,97,-55,-9
1867.526,307,-200,16400,-2092,97,-55,-9
1867.526,307,-200,16400,-2092,97,-55,-9
1873.9920000000002,307,-200,16400,-2092,97,-55,-9
1878.346,307,-200,16400,-2092,97,-55,-9
1878.346,307,-148,16336,-2184,-96,-44,-16
1880.614,308,-148,16336,-2184,-96,-44,-16
1885.536,307,-148,16336,-2184,-96,-44,-16
1890.422,307,-148,16336,-2184,-96,-44,-16
1890.422,308,-148,16336,-2184,-96,-44,-16
1893.977,307,-148,16336,-2184,-96,-44,-16
1898.354,308,-212,16328,-2108,-131,-48,-11
1898.354,307,-212,16328,-2108,-131,-48,-11
1902.695,307,-212,16328,-2108,-131,-48,-11
1904.6799999999998,307,-212,16328,-2108,-131,-48,-11
1911.203,308,-212,16328,-2108,-131,-48,-11
1911.537,307,-212,16328,-2108,-131,-48,-11
1911.537,307,-212,16328,-2108,-131,-48,-11
1919.0990000000002,308,-252,16456,-2128,57,-27,4
1919.0990000000002,306,-252,16456,-2128,57,-27,4
1919.0990000000002,306,-252,16456,-2128,57,-27,4
1925.192,306,-252,16456,-2128,57,-27,4
1928.509,307,-252,16456,-2128,57,-27,4
1931.295,307,-252,16456,-2128,57,-27,4
1933.667,307,-252,16456,-2128,57,-27,4
1933.667,308,-252,16456,-2128,57,-27,4
1939.537,308,-268,16304,-2140,-69,-59,-1
1943.562,307,-268,16304,-2140,-69,-59,-1
1944.791,306,-268,16304,-2140,-69,-59,-1
1947.65,307,-268,16304,-2140,-69,-59,-1
1950.507,307,-268,16304,-2140,-69,-59,-1
1950.507,307,-268,16304,-2140,-69,-59,-1
1950.507,307,-268,16304,-2140,-69,-59,-1
1958.84,307,-220,16320,-2112,-139,-59,-9
1963.887,307,-220,16320,-2112,-139,-59,-9
1964.8509999999999,306,-220,16320,-2112,-139,-59,-9
1967.792,306,-220,16320,-2112,-139,-59,-9
1971.181,307,-220,16320,-2112,-139,-59,-9
1976.218,306,-220,16320,-2112,-139,-59,-9
1976.218,307,-220,16320,-2112,-139,-59,-9
1979.085,307,-232,16432,-2136,55,-23,-20
1982.996,307,-232,16432,-2136,55,-23,-20
1984.9589999999998,307,-232,16432,-2136,55,-23,-20
1984.9589999999998,306,-232,16432,-2136,55,-23,-20
1991.679,307,-232,16432,-2136,55,-23,-20
1994.073,307,-232,16432,-2136,55,-23,-20
1997.179,308,-232,16432,-2136,55,-23,-20
2001.33,307,-232,16352,-2168,-44,-32,-15
2003.091,307,-232,16352,-2168,-44,-32,-15
2005.87,307,-232,16352,-2168,-44,-32,-15
2005.87,306,-232,16352,-2168,-44,-32,-15
2011.2519999999997,307,-232,16352,-2168,-44,-32,-15
2011.2519999999997,307,-232,16352,-2168,-44,-32,-15
2011.2519999999997,307,-180,16364,-2148,-137,-52,-34
2019.422,307,-180,16364,-2148,-137,-52,-34
2019.422,307,-180,16364,-2148,-137,-52,-34
2019.422,306,-180,16364,-2148,-137,-52,-34
2030.097,307,-180,16364,-2148,-137,-52,-34
2032.771,307,-180,16364,-2148,-137,-52,-34
2036.363,307,-180,16364,-2148,-137,-52,-34
2038.907,308,-260,16412,-2084,28,-47,-17
2038.907,307,-260,16412,-2084,28,-47,-17
2044.63,307,-260,16412,-2084,28,-47,-17
2044.63,306,-260,16412,-2084,28,-47,-17
2050.525,306,-260,16412,-2084,28,-47,-17
2053.124,307,-260,16412,-2084,28,-47,-17
2053.124,307,-260,16412,-2084,28,-47,-17
2053.124,307,-264,16324,-2204,-2,-36,-8
2062.366,307,-264,16324,-2204,-2,-36,-8
2063.7349999999997,307,-264,16324,-2204,-2,-36,-8
2063.7349999999997,307,-264,16324,-2204,-2,-36,-8
2068.527,306,-264,16324,-2204,-2,-36,-8
2068.527,307,-264,16324,-2204,-2,-36,-8
2074.164,307,-264,16324,-2204,-2,-36,-8
2078.358,307,-228,16336,-2144,-139,-62,-11
2078.358,307,-228,16336,-2144,-139,-62,-11
2083.955,306,-228,16336,-2144,-139,-62,-11
2084.864,306,-228,16336,-2144,-139,-62,-11
2091.342,306,-228,16336,-2144,-139,-62,-11
2092.104,307,-228,16336,-2144,-139,-62,-11
2092.104,306,-228,16336,-2144,-139,-62,-11
2099.357,307,-236,16380,-2108,-8,-41,-3
2101.353,307,-236,16380,-2108,-8,-41,-3
2101.353,306,-236,16380,-2108,-8,-41,-3
2101.353,307,-236,16380,-2108,-8,-41,-3
2111.301,307,-236,16380,-2108,-8,-41,-3
2111.301,306,-236,16380,-2108,-8,-41,-3
2115.1870000000004,306,-236,16380,-2108,-8,-41,-3
2119.914,307,-212,16384,-2100,23,-60,-23
2119.914,307,-212,16384,-2100,23,-60,-23
2119.914,306,-212,16384,-2100,23,-60,-23
2125.2369999999996,307,-212,16384,-2100,23,-60,-23
2128.485,306,-212,16384,-2100,23,-60,-23
2128.485,307,-212,16384,-2100,23,-60,-23
2134.226,307,-212,16384,-2100,23,-60,-23
2134.226,307,-240,16292,-2148,-122,-43,-14
2142.161,307,-240,16292,-2148,-122,-43,-14
2142.161,307,-240,16292,-2148,-122,-43,-14
2148.3360000000002,307,-240,16292,-2148,-122,-43,-14
2151.288,306,-240,16292,-2148,-122,-43,-14
2151.288,307,-240,16292,-2148,-122,-43,-14
2154.205,307,-240,16292,-2148,-122,-43,-14
2158.857,307,-232,16352,-2116,-25,-48,0
2161.835,307,-232,16352,-2116,-25,-48,0
2164.738,307,-232,16352,-2116,-25,-48,0
2168.214,306,-232,16352,-2116,-25,-48,0
2170.029,306,-232,16352,-2116,-25,-48,0
2170.029,308,-232,16352,-2116,-25,-48,0
2175.409,307,-232,16352,-2116,-25,-48,0
2178.279,307,-232,16380,-2112,37,-26,2
2179.123,308,-232,16380,-2112,37,-26,2
2185.044,307,-232,16380,-2112,37,-26,2
2185.044,307,-232,16380,-2112,37,-26,2
2185.044,307,-232,16380,-2112,37,-26,2
2192.212,306,-232,16380,-2112,37,-26,2
2194.556,307,-232,16380,-2112,37,-26,2
2197.5829999999996,307,-232,16380,-2112,37,-26,2
2201.829,307,-236,16372,-2148,-87,-23,-23
2202.382,307,-236,16372,-2148,-87,-23,-23
2203.6,307,-236,16372,-2148,-87,-23,-23
2209.228,307,-236,16372,-2148,-87,-23,-23
2209.228,307,-236,16372,-2148,-87,-23,-23
2209.228,307,-236,16372,-2148,-87,-23,-23
2216.7729999999997,307,-236,16372,-2148,-87,-23,-23
2219.1510000000003,306,-156,16388,-2144,-67,-30,0
2223.7619999999997,307,-156,16388,-2144,-67,-30,0
2225.316,306,-156,16388,-2144,-67,-30,0
2228.754,306,-156,16388,-2144,-67,-30,0
2231.711,306,-156,16388,-2144,-67,-30,0
2232.6510000000003,307,-156,16388,-2144,-67,-30,0
2232.6510000000003,307,-156,16388,-2144,-67,-30,0
2239.9390000000003,307,-248,16344,-2120,-11,-23,0
2242.069,307,-248,16344,-2120,-11,-23,0
2245.507,307,-248,16344,-2120,-11,-23,0
2245.507,306,-248,16344,-2120,-11,-23,0
2250.8089999999997,307,-248,16344,-2120,-11,-23,0
2250.8089999999997,306,-248,16344,-2120,-11,-23,0
2256.41,306,-248,16344,-2120,-11,-23,0
2258.749,306,-168,16332,-2124,-56,-40,1
2262.181,306,-168,16332,-2124,-56,-40,1
2262.181,307,-168,16332,-2124,-56,-40,1
2265.0299999999997,307,-168,16332,-2124,-56,-40,1
2265.0299999999997,306,-168,16332,-2124,-56,-40,1
2274.031,307,-168,16332,-2124,-56,-40,1
2275.346,307,-168,16332,-2124,-56,-40,1
2277.108,306,-172,16300,-2088,-71,-18,-6
2281.116,307,-172,16300,-2088,-71,-18,-6
2284.141,307,-172,16300,-2088,-71,-18,-6
2287.569,306,-172,16300,-2088,-71,-18,-6
2289.325,306,-172,16300,-2088,-71,-18,-6
2292.608,306,-172,16300,-2088,-71,-18,-6
2296.0389999999998,306,-172,16300,-2088,-71,-18,-6
2300.0029999999997,307,-172,16300,-2088,-71,-18,-6
2300.0029999999997,307,-236,16384,-2084,-1,-41,-4
2300.0029999999997,306,-236,16384,-2084,-1,-41,-4
2306.632,306,-236,16384,-2084,-1,-41,-4
2309.2980000000002,306,-236,16384,-2084,-1,-41,-4
2311.8880000000004,306,-236,16384,-2084,-1,-41,-4
2316.37,306,-236,16384,-2084,-1,-41,-4
2316.37,307,-236,16384,-2084,-1,-41,-4
2316.37,306,-160,16328,-2168,-42,-45,-5
2324.564,307,-160,16328,-2168,-42,-45,-5
2324.564,306,-160,16328,-2168,-42,-45,-5
2329.2540000000004,306,-160,16328,-2168,-42,-45,-5
2331.478,306,-160,16328,-2168,-42,-45,-5
2333.487,307,-160,16328,-2168,-42,-45,-5
2335.495,306,-160,16328,-2168,-42,-45,-5
2340.516,307,-200,16320,-2136,-55,-30,-18
2356.514,306,-200,16320,-2136,-55,-30,-18
2363.399,307,-200,16320,-2136,-55,-30,-18
2363.399,305,-200,16320,-2136,-55,-30,-18
2363.399,307,-200,16320,-2136,-55,-30,-18
2363.399,306,-200,16320,-2136,-55,-30,-18
2363.399,307,-200,16320,-2136,-55,-30,-18
2363.399,307,-236,16360,-2100,-10,-28,-15
2363.399,307,-236,16360,-2100,-10,-28,-15
2363.399,306,-236,16360,-2100,-10,-28,-15
2370.5009999999997,307,-236,16360,-2100,-10,-28,-15
2372.5,307,-236,16360,-2100,-10,-28,-15
2372.5,307,-236,16360,-2100,-10,-28,-15
2377.461,307,-236,16360,-2100,-10,-28,-15
2381.98,307,-228,16336,-2160,-40,-31,-2
2386.017,307,-228,16336,-2160,-40,-31,-2
2387.6059999999998,306,-228,16336,-2160,-40,-31,-2
2390.248,306,-228,16336,-2160,-40,-31,-2
2391.2270000000003,307,-228,16336,-2160,-40,-31,-2
2396.317,307,-228,16336,-2160,-40,-31,-2
2396.317,307,-228,16336,-2160,-40,-31,-2
2400.629,308,-220,16308,-2140,-49,-40,-18
2400.629,307,-220,16308,-2140,-49,-40,-18
2400.629,306,-220,16308,-2140,-49,-40,-18
2409.0600000000004,306,-220,16308,-2140,-49,-40,-18
2414.71,307,-220,16308,-2140,-49,-40,-18
2416.694,307,-220,16308,-2140,-49,-40,-18
2416.694,307,-220,16308,-2140,-49,-40,-18
2416.694,307,-172,16392,-2120,-13,-28,-11
2425.634,307,-172,16392,-2120,-13,-28,-11
2425.634,306,-172,16392,-2120,-13,-28,-11
2431.045,306,-172,16392,-2120,-13,-28,-11
2434.9590000000003,307,-172,16392,-2120,-13,-28,-11
2436.08,308,-172,16392,-2120,-13,-28,-11
2436.08,307,-216,16384,-2124,-36,-37,-5
2442.2999999999997,307,-216,16384,-2124,-36,-37,-5
2442.2999999999997,306,-216,16384,-2124,-36,-37,-5
2447.987,306,-216,16384,-2124,-36,-37,-5
2449.287,307,-216,16384,-2124,-36,-37,-5
2449.287,307,-216,16384,-2124,-36,-37,-5
2457.17,307,-216,16384,-2124,-36,-37,-5
2458.428,307,-220,16380,-2136,-40,-38,-21
2463.255,306,-220,16380,-2136,-40,-38,-21
2463.255,307,-220,16380,-2136,-40,-38,-21
2463.255,307,-220,16380,-2136,-40,-38,-21
2471.9950000000003,307,-220,16380,-2136,-40,-38,-21
2472.75,307,-220,16380,-2136,-40,-38,-21
2475.378,308,-220,16380,-2136,-40,-38,-21
2480.5640000000003,307,-208,16356,-2100,-49,-37,-3
2480.5640000000003,307,-208,16356,-2100,-49,-37,-3
2480.5640000000003,307,-208,16356,-2100,-49,-37,-3
2489.066,307,-208,16356,-2100,-49,-37,-3
2492.337,307,-208,16356,-2100,-49,-37,-3
2492.337,307,-208,16356,-2100,-49,-37,-3
2496.8590000000004,307,-208,16356,-2100,-49,-37,-3
2500.479,307,-204,16312,-2144,-14,-37,-12
2503.433,306,-204,16312,-2144,-14,-37,-12
2505.916,307,-204,16312,-2144,-14,-37,-12
2508.761,306,-204,16312,-2144,-14,-37,-12
2512.679,307,-204,16312,-2144,-14,-37,-12
2514.8109999999997,307,-204,16312,-2144,-14,-37,-12
2514.8109999999997,307,-204,16312,-2144,-14,-37,-12
2521.71,307,-168,16416,-2120,-29,-44,-2
2522.296,306,-168,16416,-2120,-29,-44,-2
2522.296,306,-168,16416,-2120,-29,-44,-2
2528.5,307,-168,16416,-2120,-29,-44,-2
2532.067,306,-168,16416,-2120,-29,-44,-2
2532.725,307,-168,16416,-2120,-29,-44,-2
2536.5299999999997,307,-168,16416,-2120,-29,-44,-2
2540.951,307,-200,16308,-2096,-46,-38,-19
2542.11,307,-200,16308,-2096,-46,-38,-19
2546.3779999999997,307,-200,16308,-2096,-46,-38,-19
2550.0699999999997,307,-200,16308,-2096,-46,-38,-19
2551.0679999999998,306,-200,16308,-2096,-46,-38,-19
2553.271,307,-200,16308,-2096,-46,-38,-19
2557.781,307,-200,16308,-2096,-46,-38,-19
2561.8089999999997,307,-168,16360,-2132,-72,-44,-8
2563.101,308,-168,16360,-2132,-72,-44,-8
2566.9010000000003,307,-168,16360,-2132,-72,-44,-8
2570.293,307,-168,16360,-2132,-72,-44,-8
2570.293,307,-168,16360,-2132,-72,-44,-8
2574.6730000000002,307,-168,16360,-2132,-72,-44,-8
2578.464,307,-168,16360,-2132,-72,-44,-8
2578.464,307,-184,16380,-2124,-4,-35,0
2578.464,307,-184,16380,-2124,-4,-35,0
2586.85,307,-184,16380,-2124,-4,-35,0
2589.338,307,-184,16380,-2124,-4,-35,0
2591.806,307,-184,16380,-2124,-4,-35,0
2594.996,307,-184,16380,-2124,-4,-35,0
2596.3650000000002,307,-184,16380,-2124,-4,-35,0
2596.3650000000002,307,-184,16380,-2124,-4,-35,0
2603.074,307,-216,16348,-2160,-22,-36,-6
2603.074,307,-216,16348,-2160,-22,-36,-6
2607.999,306,-216,16348,-2160,-22,-36,-6
2611.161,307,-216,16348,-2160,-22,-36,-6
2613.796,307,-216,16348,-2160,-22,-36,-6
2615.891,308,-216,16348,-2160,-22,-36,-6
2619.446,308,-216,16348,-2160,-22,-36,-6
2619.446,307,-200,16324,-2136,-67,-65,-21
2624.066,306,-200,16324,-2136,-67,-65,-21
2627.645,306,-200,16324,-2136,-67,-65,-21
2632.008,307,-200,16324,-2136,-67,-65,-21
2632.008,307,-200,16324,-2136,-67,-65,-21
2636.002,307,-200,16324,-2136,-67,-65,-21
2640.819,307,-200,16324,-2136,-67,-65,-21
2641.9190000000003,307,-244,16360,-2112,3,-25,-7
2644.364,306,-244,16360,-2112,3,-25,-7
2644.364,306,-244,16360,-2112,3,-25,-7
2650.623,307,-244,16360,-2112,3,-25,-7
2652.1659999999997,307,-244,16360,-2112,3,-25,-7
2652.1659999999997,307,-244,16360,-2112,3,-25,-7
2658.852,307,-244,16360,-2112,3,-25,-7
2660.59,307,-216,16336,-2168,-10,-32,-22
2664.626,306,-216,16336,-2168,-10,-32,-22
2668.327,307,-216,16336,-2168,-10,-32,-22
2668.327,307,-216,16336,-2168,-10,-32,-22
2668.327,306,-216,16336,-2168,-10,-32,-22
2675.742,307,-216,16336,-2168,-10,-32,-22
2678.4880000000003,306,-216,16336,-2168,-10,-32,-22
2680.212,306,-208,16368,-2132,-84,-33,-14
2685.1349999999998,306,-208,16368,-2132,-84,-33,-14
2686.8720000000003,306,-208,16368,-2132,-84,-33,-14
2689.092,306,-208,16368,-2132,-84,-33,-14
2692.3210000000004,307,-208,16368,-2132,-84,-33,-14
2695.9719999999998,307,-208,16368,-2132,-84,-33,-14
2695.9719999999998,306,-208,16368,-2132,-84,-33,-14
2702.1510000000003,306,-212,16388,-2104,-28,-39,-8
2703.2419999999997,307,-212,16388,-2104,-28,-39,-8
2703.2419999999997,307,-212,16388,-2104,-28,-39,-8
2710.555,306,-212,16388,-2104,-28,-39,-8
2712.8540000000003,307,-212,16388,-2104,-28,-39,-8
2712.8540000000003,306,-212,16388,-2104,-28,-39,-8
2712.8540000000003,307,-212,16388,-2104,-28,-39,-8
2721.889,307,-160,16388,-2136,3,-32,-3
2721.889,306,-160,16388,-2136,3,-32,-3
2721.889,306,-160,16388,-2136,3,-32,-3
2730.039,306,-160,16388,-2136,3,-32,-3
2730.039,307,-160,16388,-2136,3,-32,-3
2734.137,306,-160,16388,-2136,3,-32,-3
2738.4590000000003,307,-160,16388,-2136,3,-32,-3
2738.862,307,-180,16348,-2140,-71,-36,-18
2742.036,306,-180,16348,-2140,-71,-36,-18
2746.8720000000003,306,-180,16348,-2140,-71,-36,-18
2746.8720000000003,306,-180,16348,-2140,-71,-36,-18
2746.8720000000003,307,-180,16348,-2140,-71,-36,-18
2754.642,307,-180,16348,-2140,-71,-36,-18
2758.1150000000002,306,-180,16348,-2140,-71,-36,-18
2760.14,307,-216,16368,-2088,-39,-26,-11
2762.631,306,-216,16368,-2088,-39,-26,-11
2762.631,307,-216,16368,-2088,-39,-26,-11
2771.059,307,-216,16368,-2088,-39,-26,-11
2771.059,306,-216,16368,-2088,-39,-26,-11
2771.059,307,-216,16368,-2088,-39,-26,-11
2778.96,307,-216,16368,-2088,-39,-26,-11
2778.96,306,-224,16324,-2144,-1,-38,-10
2778.96,307,-224,16324,-2144,-1,-38,-10
2787.418,306,-224,16324,-2144,-1,-38,-10
2790.779,306,-224,16324,-2144,-1,-38,-10
2793.319,306,-224,16324,-2144,-1,-38,-10
2795.3320000000003,306,-224,16324,-2144,-1,-38,-10
2799.698,307,-224,16324,-2144,-1,-38,-10
2801.207,306,-224,16312,-2160,-76,-25,4
2803.792,306,-224,16312,-2160,-76,-25,4
2807.532,307,-224,16312,-2160,-76,-25,4
2807.532,306,-224,16312,-2160,-76,-25,4
2809.286,306,-224,16312,-2160,-76,-25,4
2814.466,307,-224,16312,-2160,-76,-25,4
2814.466,307,-224,16312,-2160,-76,-25,4
2818.497,306,-232,16368,-2108,-30,-32,-9
2818.497,306,-232,16368,-2108,-30,-32,-9
2818.497,306,-232,16368,-2108,-30,-32,-9
2829.1719999999996,306,-232,16368,-2108,-30,-32,-9
2832.395,306,-232,16368,-2108,-30,-32,-9
2833.936,306,-232,16368,-2108,-30,-32,-9
2836.8340000000003,307,-232,16368,-2108,-30,-32,-9
2839.5640000000003,307,-220,16336,-2128,11,-46,-12
2842.645,307,-220,16336,-2128,11,-46,-12
2842.645,306,-220,16336,-2128,11,-46,-12
2846.568,306,-220,16336,-2128,11,-46,-12
2852.955,306,-220,16336,-2128,11,-46,-12
2852.955,307,-220,16336,-2128,11,-46,-12
2852.955,306,-220,16336,-2128,11,-46,-12
2860.824,307,-172,16336,-2152,-68,-49,1
2862.756,307,-172,16336,-2152,-68,-49,1
2864.646,306,-172,16336,-2152,-68,-49,1
2867.322,306,-172,16336,-2152,-68,-49,1
2867.322,307,-172,16336,-2152,-68,-49,1
2867.322,307,-172,16336,-2152,-68,-49,1
2875.415,307,-172,16336,-2152,-68,-49,1
2879.102,308,-172,16336,-2152,-68,-49,1
2881.109,307,-176,16320,-2136,-73,-24,-27
2885.7819999999997,306,-176,16320,-2136,-73,-24,-27
2889.77,307,-176,16320,-2136,-73,-24,-27
2889.77,307,-176,16320,-2136,-73,-24,-27
2891.991,306,-176,16320,-2136,-73,-24,-27
2896.033,307,-176,16320,-2136,-73,-24,-27
2896.033,307,-176,16320,-2136,-73,-24,-27
2901.4829999999997,307,-268,16320,-2124,-19,-38,-33
2906.19,306,-268,16320,-2124,-19,-38,-33
2908.572,307,-268,16320,-2124,-19,-38,-33
2912.627,306,-268,16320,-2124,-19,-38,-33
2914.221,307,-268,16320,-2124,-19,-38,-33
2918.488,306,-268,16320,-2124,-19,-38,-33
2918.488,306,-236,16392,-2128,3,-28,-10
2922.565,306,-236,16392,-2128,3,-28,-10
2926.895,307,-236,16392,-2128,3,-28,-10
2926.895,307,-236,16392,-2128,3,-28,-10
2930.2709999999997,307,-236,16392,-2128,3,-28,-10
2930.2709999999997,306,-236,16392,-2128,3,-28,-10
2935.3120000000004,306,-236,16392,-2128,3,-28,-10
2938.9759999999997,307,-236,16392,-2128,3,-28,-10
2943.6200000000003,306,-164,16360,-2140,-77,-48,-30
2947.0499999999997,307,-164,16360,-2140,-77,-48,-30
2947.592,306,-164,16360,-2140,-77,-48,-30
2951.281,307,-164,16360,-2140,-77,-48,-30
2953.811,307,-164,16360,-2140,-77,-48,-30
2953.811,307,-164,16360,-2140,-77,-48,-30
2959.663,307,-164,16360,-2140,-77,-48,-30
2963.737,307,-196,16372,-2088,-41,-22,-21
2964.9,307,-196,16372,-2088,-41,-22,-21
2967.999,307,-196,16372,-2088,-41,-22,-21
2971.7090000000003,306,-196,16372,-2088,-41,-22,-21
2975.357,307,-196,16372,-2088,-41,-22,-21
2976.3799999999997,306,-196,16372,-2088,-41,-22,-21
2979.2740000000003,307,-236,16344,-2120,-21,-41,0
2984.0049999999997,307,-236,16344,-2120,-21,-41,0
2984.0049999999997,307,-236,16344,-2120,-21,-41,0
2988.096,306,-236,16344,-2120,-21,-41,0
2992.488,307,-236,16344,-2120,-21,-41,0
2994.494,307,-236,16344,-2120,-21,-41,0
2996.826,307,-236,16344,-2120,-21,-41,0
3000.3940000000002,307,-236,16344,-2120,-21,-41,0
3002.13,307,-212,16360,-2128,-26,-44,-14
3004.465,306,-212,16360,-2128,-26,-44,-14
3009.083,306,-212,16360,-2128,-26,-44,-14
3011.6580000000004,307,-212,16360,-2128,-26,-44,-14
3013.866,307,-212,16360,-2128,-26,-44,-14
3016.779,307,-212,16360,-2128,-26,-44,-14
3019.0299999999997,308,-212,16360,-2128,-26,-44,-14
3021.77,306,-236,16344,-2096,-78,-36,-15
3025.185,307,-236,16344,-2096,-78,-36,-15
3029.209,306,-236,16344,-2096,-78,-36,-15
3033.305,307,-236,16344,-2096,-78,-36,-15
3033.8120000000004,307,-236,16344,-2096,-78,-36,-15
3035.972,307,-236,16344,-2096,-78,-36,-15
3041.3709999999996,307,-196,16376,-2088,-68,-57,-5
3042.205,307,-196,16376,-2088,-68,-57,-5
3044.211,307,-196,16376,-2088,-68,-57,-5
3049.802,307,-196,16376,-2088,-68,-57,-5
3049.802,307,-196,16376,-2088,-68,-57,-5
3049.802,306,-196,16376,-2088,-68,-57,-5
3057.747,307,-196,16376,-2088,-68,-57,-5
3061.902,307,-196,16376,-2088,-68,-57,-5
3062.828,307,-224,16316,-2108,7,-36,-11
3065.922,307,-224,16316,-2108,7,-36,-11
3067.6299999999997,306,-224,16316,-2108,7,-36,-11
3067.6299999999997,306,-224,16316,-2108,7,-36,-11
3074.287,307,-224,16316,-2108,7,-36,-11
3075.44,307,-224,16316,-2108,7,-36,-11
3079.85,307,-224,16316,-2108,7,-36,-11
3082.3019999999997,307,-200,16360,-2108,-115,-39,7
3082.3019999999997,306,-200,16360,-2108,-115,-39,7
3082.3019999999997,307,-200,16360,-2108,-115,-39,7
3090.482,306,-200,16360,-2108,-115,-39,7
3094.04,307,-200,16360,-2108,-115,-39,7
3095.8770000000004,307,-200,16360,-2108,-115,-39,7
3098.718,307,-200,16360,-2108,-115,-39,7
3102.807,307,-144,16372,-2148,-20,-27,-5
3106.893,307,-144,16372,-2148,-20,-27,-5
3106.893,306,-144,16372,-2148,-20,-27,-5
3110.3469999999998,307,-144,16372,-2148,-20,-27,-5
3115.027,308,-144,16372,-2148,-20,-27,-5
3115.027,307,-144,16372,-2148,-20,-27,-5
3119.2039999999997,307,-144,16372,-2148,-20,-27,-5
3123.283,306,-168,16436,-2168,-3,-33,8
3123.283,307,-168,16436,-2168,-3,-33,8
3127.4950000000003,307,-168,16436,-2168,-3,-33,8
3131.719,307,-168,16436,-2168,-3,-33,8
3131.719,307,-168,16436,-2168,-3,-33,8
3131.719,307,-168,16436,-2168,-3,-33,8
3131.719,307,-168,16436,-2168,-3,-33,8
3140.226,307,-188,16320,-2160,-69,-58,-18
3144.136,307,-188,16320,-2160,-69,-58,-18
3146.2659999999996,307,-188,16320,-2160,-69,-58,-18
3148.323,307,-188,16320,-2160,-69,-58,-18
3149.642,307,-188,16320,-2160,-69,-58,-18
3149.642,307,-188,16320,-2160,-69,-58,-18
3158.716,308,-188,16320,-2160,-69,-58,-18
3161.72,307,-184,16368,-2088,-67,-48,12
3163.185,307,-184,16368,-2088,-67,-48,12
3163.185,307,-184,16368,-2088,-67,-48,12
3163.185,307,-184,16368,-2088,-67,-48,12
3172.396,307,-184,16368,-2088,-67,-48,12
3172.396,307,-184,16368,-2088,-67,-48,12
3177.87,307,-184,16368,-2088,-67,-48,12
3180.292,307,-236,16372,-2116,3,-45,-6
3184.701,307,-236,16372,-2116,3,-45,-6
3186.212,307,-236,16372,-2116,3,-45,-6
3188.783,307,-236,16372,-2116,3,-45,-6
3192.084,307,-236,16372,-2116,3,-45,-6
3194.419,308,-236,16372,-2116,3,-45,-6
3197.2999999999997,308,-236,16372,-2116,3,-45,-6
3201.1,308,-236,16372,-2116,3,-45,-6
3201.1,307,-200,16400,-2180,-46,-33,3
3205.1639999999998,307,-200,16400,-2180,-46,-33,3
3208.747,307,-200,16400,-2180,-46,-33,3
3210.868,308,-200,16400,-2180,-46,-33,3
3213.529,307,-200,16400,-2180,-46,-33,3
3217.4719999999998,307,-200,16400,-2180,-46,-33,3
3217.4719999999998,307,-200,16400,-2180,-46,-33,3
3220.174,308,-216,16316,-2124,-92,-66,-17
3220.174,307,-216,16316,-2124,-92,-66,-17
3229.4230000000002,307,-216,16316,-2124,-92,-66,-17
3230.0719999999997,307,-216,16316,-2124,-92,-66,-17
3230.0719999999997,307,-216,16316,-2124,-92,-66,-17
3237.9500000000003,307,-216,16316,-2124,-92,-66,-17
3237.9500000000003,307,-216,16316,-2124,-92,-66,-17
3241.3880000000004,308,-172,16384,-2112,32,-29,-17
3245.939,307,-172,16384,-2112,32,-29,-17
3246.858,307,-172,16384,-2112,32,-29,-17
3247.267,308,-172,16384,-2112,32,-29,-17
3254.314,307,-172,16384,-2112,32,-29,-17
3257.805,308,-172,16384,-2112,32,-29,-17
3257.805,307,-172,16384,-2112,32,-29,-17
3262.792,308,-232,16372,-2140,-19,-39,-1
3265.6969999999997,307,-232,16372,-2140,-19,-39,-1
3265.6969999999997,307,-232,16372,-2140,-19,-39,-1
3270.699,307,-232,16372,-2140,-19,-39,-1
3274.4,308,-232,16372,-2140,-19,-39,-1
3274.4,308,-232,16372,-2140,-19,-39,-1
3277.0730000000003,308,-232,16372,-2140,-19,-39,-1
3282.9860000000003,307,-176,16380,-2168,-104,-31,3
3282.9860000000003,307,-176,16380,-2168,-104,-31,3
3285.3940000000002,307,-176,16380,-2168,-104,-31,3
3291.285,308,-176,16380,-2168,-104,-31,3
3293.4809999999998,307,-176,16380,-2168,-104,-31,3
3296.114,308,-176,16380,-2168,-104,-31,3
3296.114,308,-176,16380,-2168,-104,-31,3
3303.479,308,-240,16316,-2136,-20,-33,-6
3303.479,308,-240,16316,-2136,-20,-33,-6
3303.479,307,-240,16316,-2136,-20,-33,-6
3311.473,307,-240,16316,-2136,-20,-33,-6
3311.473,307,-240,16316,-2136,-20,-33,-6
3313.796,307,-240,16316,-2136,-20,-33,-6
3319.893,307,-240,16316,-2136,-20,-33,-6
3319.893,307,-236,16368,-2140,13,-38,-2
3319.893,307,-236,16368,-2140,13,-38,-2
3325.939,308,-236,16368,-2140,13,-38,-2
3329.6220000000003,307,-236,16368,-2140,13,-38,-2
3329.6220000000003,307,-236,16368,-2140,13,-38,-2
3334.531,307,-236,16368,-2140,13,-38,-2
3334.531,307,-236,16368,-2140,13,-38,-2
3340.3559999999998,307,-244,16464,-2160,-43,-32,8
3344.567,307,-244,16464,-2160,-43,-32,8
3348.486,307,-244,16464,-2160,-43,-32,8
3349.164,307,-244,16464,-2160,-43,-32,8
3352.157,307,-244,16464,-2160,-43,-32,8
3352.157,308,-244,16464,-2160,-43,-32,8
3352.157,308,-244,16464,-2160,-43,-32,8
3360.3869999999997,308,-244,16464,-2160,-43,-32,8
3362.996,308,-192,16296,-2148,-92,-42,9
3362.996,307,-192,16296,-2148,-92,-42,9
3369.051,307,-192,16296,-2148,-92,-42,9
3372.4829999999997,307,-192,16296,-2148,-92,-42,9
3372.4829999999997,307,-192,16296,-2148,-92,-42,9
3378.357,308,-192,16296,-2148,-92,-42,9
3378.7980000000002,308,-192,16296,-2148,-92,-42,9
3378.7980000000002,307,-252,16332,-2104,27,-38,4
3385.415,306,-252,16332,-2104,27,-38,4
3388.441,306,-252,16332,-2104,27,-38,4
3388.441,306,-252,16332,-2104,27,-38,4
3391.9049999999997,308,-252,16332,-2104,27,-38,4
3391.9049999999997,308,-252,16332,-2104,27,-38,4
3395.571,307,-252,16332,-2104,27,-38,4
3401.786,307,-252,16332,-2104,27,-38,4
3401.786,307,-200,16320,-2144,-25,-32,-6
3403.928,307,-200,16320,-2144,-25,-32,-6
3408.665,306,-200,16320,-2144,-25,-32,-6
3412.823,307,-200,16320,-2144,-25,-32,-6
3412.823,307,-200,16320,-2144,-25,-32,-6
3416.201,308,-200,16320,-2144,-25,-32,-6
3422.287,307,-200,16320,-2144,-25,-32,-6
3422.287,307,-208,16404,-2160,-87,-38,-9
3424.5429999999997,307,-208,16404,-2160,-87,-38,-9
3430.107,307,-208,16404,-2160,-87,-38,-9
3430.107,307,-208,16404,-2160,-87,-38,-9
3432.9559999999997,307,-208,16404,-2160,-87,-38,-9
3438.665,308,-208,16404,-2160,-87,-38,-9
3438.665,307,-208,16404,-2160,-87,-38,-9
3443.805,307,-156,16344,-2096,-31,-43,14
3447.003,307,-156,16344,-2096,-31,-43,14
3449.459,308,-156,16344,-2096,-31,-43,14
3449.459,308,-156,16344,-2096,-31,-43,14
3455.051,307,-156,16344,-2096,-31,-43,14
3458.829,308,-156,16344,-2096,-31,-43,14
3460.8819999999996,308,-156,16344,-2096,-31,-43,14
3462.848,307,-224,16352,-2120,-23,-44,20
3467.2239999999997,307,-224,16352,-2120,-23,-44,20
3467.2239999999997,307,-224,16352,-2120,-23,-44,20
3467.2239999999997,307,-224,16352,-2120,-23,-44,20
3475.426,308,-224,16352,-2120,-23,-44,20
3479.177,307,-224,16352,-2120,-23,-44,20
3479.177,307,-224,16352,-2120,-23,-44,20
3483.714,307,-244,16372,-2132,-29,-34,-6
3483.714,307,-244,16372,-2132,-29,-34,-6
3483.714,308,-244,16372,-2132,-29,-34,-6
3491.9139999999998,307,-244,16372,-2132,-29,-34,-6
3495.453,308,-244,16372,-2132,-29,-34,-6
3497.298,308,-244,16372,-2132,-29,-34,-6
3500.096,308,-244,16372,-2132,-29,-34,-6
3504.0499999999997,308,-220,16376,-2092,-40,-34,-21
3504.0499999999997,307,-220,16376,-2092,-40,-34,-21
3508.2810000000004,307,-220,16376,-2092,-40,-34,-21
3512.172,307,-220,16376,-2092,-40,-34,-21
3516.4970000000003,307,-220,16376,-2092,-40,-34,-21
3516.4970000000003,307,-220,16376,-2092,-40,-34,-21
3516.4970000000003,308,-220,16376,-2092,-40,-34,-21
3524.6209999999996,308,-200,16340,-2164,-46,-27,-5
3525.937,307,-200,16340,-2164,-46,-27,-5
3528.67,308,-200,16340,-2164,-46,-27,-5
3532.862,308,-200,16340,-2164,-46,-27,-5
3532.862,307,-200,16340,-2164,-46,-27,-5
3532.862,307,-200,16340,-2164,-46,-27,-5
3541.038,307,-200,16340,-2164,-46,-27,-5
3543.39,307,-208,16324,-2104,-43,-31,-8
3546.636,308,-208,16324,-2104,-43,-31,-8
3549.264,307,-208,16324,-2104,-43,-31,-8
3549.264,307,-208,16324,-2104,-43,-31,-8
3549.264,307,-208,16324,-2104,-43,-31,-8
3557.438,307,-208,16324,-2104,-43,-31,-8
3557.438,307,-208,16324,-2104,-43,-31,-8
3562.413,307,-192,16356,-2080,-5,-39,-16
3565.599,306,-192,16356,-2080,-5,-39,-16
3569.5899999999997,307,-192,16356,-2080,-5,-39,-16
3573.83,308,-192,16356,-2080,-5,-39,-16
3573.83,307,-192,16356,-2080,-5,-39,-16
3573.83,307,-192,16356,-2080,-5,-39,-16
3581.997,307,-192,16356,-2080,-5,-39,-16
3581.997,307,-224,16356,-2120,-48,-36,-18
3581.997,308,-224,16356,-2120,-48,-36,-18
3590.538,306,-224,16356,-2120,-48,-36,-18
3590.538,307,-224,16356,-2120,-48,-36,-18
3592.225,307,-224,16356,-2120,-48,-36,-18
3598.4069999999997,307,-224,16356,-2120,-48,-36,-18
3600.565,307,-224,16356,-2120,-48,-36,-18
3602.5719999999997,307,-204,16348,-2152,-85,-38,8
3606.5710000000004,307,-204,16348,-2152,-85,-38,8
3606.5710000000004,306,-204,16348,-2152,-85,-38,8
3606.5710000000004,307,-204,16348,-2152,-85,-38,8
3614.204,307,-204,16348,-2152,-85,-38,8
3618.89,307,-204,16348,-2152,-85,-38,8
3618.89,307,-204,16348,-2152,-85,-38,8
3622.958,306,-164,16316,-2156,-21,-43,-26
3624.714,307,-164,16316,-2156,-21,-43,-26
3627.6000000000004,306,-164,16316,-2156,-21,-43,-26
3630.563,307,-164,16316,-2156,-21,-43,-26
3635.299,307,-164,16316,-2156,-21,-43,-26
3639.35,307,-164,16316,-2156,-21,-43,-26
3640.315,307,-164,16316,-2156,-21,-43,-26
3643.234,307,-208,16368,-2132,-11,-60,-3
3647.4570000000003,306,-208,16368,-2132,-11,-60,-3
3647.4570000000003,307,-208,16368,-2132,-11,-60,-3
3647.4570000000003,307,-208,16368,-2132,-11,-60,-3
3655.841,307,-208,16368,-2132,-11,-60,-3
3657.87,307,-208,16368,-2132,-11,-60,-3
3658.645,307,-208,16368,-2132,-11,-60,-3
3664.076,307,-204,16340,-2192,-76,-32,-12
3665.8309999999997,307,-204,16340,-2192,-76,-32,-12
3665.8309999999997,307,-204,16340,-2192,-76,-32,-12
3672.306,307,-204,16340,-2192,-76,-32,-12
3675.417,306,-204,16340,-2192,-76,-32,-12
3677.866,307,-204,16340,-2192,-76,-32,-12
3680.691,307,-204,16340,-2192,-76,-32,-12
3683.9919999999997,307,-240,16376,-2092,-60,-25,-12
3688.1490000000003,307,-240,16376,-2092,-60,-25,-12
3689.1699999999996,306,-240,16376,-2092,-60,-25,-12
3692.1020000000003,306,-240,16376,-2092,-60,-25,-12
3695.25,306,-240,16376,-2092,-60,-25,-12
3700.7870000000003,307,-240,16376,-2092,-60,-25,-12
3700.7870000000003,308,-240,16376,-2092,-60,-25,-12
3700.7870000000003,307,-276,16324,-2112,0,-47,-26
3708.7720000000004,307,-276,16324,-2112,0,-47,-26
3710.5299999999997,307,-276,16324,-2112,0,-47,-26
3712.3360000000002,307,-276,16324,-2112,0,-47,-26
3717.187,307,-276,16324,-2112,0,-47,-26
3717.187,307,-276,16324,-2112,0,-47,-26
3717.187,307,-276,16324,-2112,0,-47,-26
3724.4069999999997,307,-244,16372,-2160,-62,-46,0
3724.4069999999997,307,-244,16372,-2160,-62,-46,0
3728.798,307,-244,16372,-2160,-62,-46,0
3728.798,306,-244,16372,-2160,-62,-46,0
3728.798,307,-244,16372,-2160,-62,-46,0
3735.3900000000003,307,-244,16372,-2160,-62,-46,0
3735.3900000000003,307,-244,16372,-2160,-62,-46,0
3743.408,307,-220,16428,-2132,-89,-42,-1
3746.2219999999998,306,-220,16428,-2132,-89,-42,-1
3746.2219999999998,306,-220,16428,-2132,-89,-42,-1
3746.2219999999998,306,-220,16428,-2132,-89,-42,-1
3752.591,307,-220,16428,-2132,-89,-42,-1
3756.4129999999996,307,-220,16428,-2132,-89,-42,-1
3758.8210000000004,307,-220,16428,-2132,-89,-42,-1
3762.9199999999996,307,-228,16296,-2140,-26,-43,-14
3764.098,307,-228,16296,-2140,-26,-43,-14
3768.747,307,-228,16296,-2140,-26,-43,-14
3768.747,307,-228,16296,-2140,-26,-43,-14
3773.911,307,-228,16296,-2140,-26,-43,-14
3778.5099999999998,307,-228,16296,-2140,-26,-43,-14
3779.726,308,-228,16296,-2140,-26,-43,-14
3780.3520000000003,307,-184,16384,-2116,-9,-31,-18
3786.801,306,-184,16384,-2116,-9,-31,-18
3790.056,307,-184,16384,-2116,-9,-31,-18
3790.056,306,-184,16384,-2116,-9,-31,-18
3795.502,307,-184,16384,-2116,-9,-31,-18
3795.502,307,-184,16384,-2116,-9,-31,-18
3795.502,307,-184,16384,-2116,-9,-31,-18
3803.175,307,-220,16420,-2100,-27,-25,-2
3806.846,307,-220,16420,-2100,-27,-25,-2
3806.846,307,-220,16420,-2100,-27,-25,-2
3811.75,307,-220,16420,-2100,-27,-25,-2
3815.484,307,-220,16420,-2100,-27,-25,-2
3815.484,307,-220,16420,-2100,-27,-25,-2
3819.567,307,-220,16420,-2100,-27,-25,-2
3823.263,307,-252,16392,-2100,-35,-44,-12
3825.45,307,-252,16392,-2100,-35,-44,-12
3829.593,307,-252,16392,-2100,-35,-44,-12
3829.593,307,-252,16392,-2100,-35,-44,-12
3833.61,307,-252,16392,-2100,-35,-44,-12
3833.61,307,-252,16392,-2100,-35,-44,-12
3840.0319999999997,307,-252,16392,-2100,-35,-44,-12
3843.313,307,-220,16340,-2100,-37,-50,-31
3845.542,306,-220,16340,-2100,-37,-50,-31
3849.168,307,-220,16340,-2100,-37,-50,-31
3851.1769999999997,307,-220,16340,-2100,-37,-50,-31
3855.19,307,-220,16340,-2100,-37,-50,-31
3857.197,307,-220,16340,-2100,-37,-50,-31
3861.593,308,-220,16340,-2100,-37,-50,-31
3863.6020000000003,307,-212,16348,-2152,-42,-32,-17
3867.617,306,-212,16348,-2152,-42,-32,-17
3867.617,307,-212,16348,-2152,-42,-32,-17
3873.139,308,-212,16348,-2152,-42,-32,-17
3878.2329999999997,308,-212,16348,-2152,-42,-32,-17
3878.2329999999997,307,-212,16348,-2152,-42,-32,-17
3881.012,307,-212,16348,-2152,-42,-32,-17
3883.02,307,-204,16336,-2140,-43,-63,-13
3889.113,306,-204,16336,-2140,-43,-63,-13
3889.113,307,-204,16336,-2140,-43,-63,-13
3892.126,308,-204,16336,-2140,-43,-63,-13
3897.575,307,-204,16336,-2140,-43,-63,-13
3897.575,307,-204,16336,-2140,-43,-63,-13
3897.575,308,-204,16336,-2140,-43,-63,-13
3905.7400000000002,307,-200,16340,-2092,-30,-26,-16
3908.77,307,-200,16340,-2092,-30,-26,-16
3908.77,307,-200,16340,-2092,-30,-26,-16
3914.062,307,-200,16340,-2092,-30,-26,-16
3914.062,308,-200,16340,-2092,-30,-26,-16
3919.658,308,-200,16340,-2092,-30,-26,-16
3920.7900000000004,307,-212,16368,-2152,-45,-42,-21
3922.8900000000003,307,-212,16368,-2152,-45,-42,-21
3929.409,308,-212,16368,-2152,-45,-42,-21
3931.223,307,-212,16368,-2152,-45,-42,-21
3931.223,308,-212,16368,-2152,-45,-42,-21
3931.223,307,-212,16368,-2152,-45,-42,-21
3939.551,307,-212,16368,-2152,-45,-42,-21
3940.398,308,-228,16344,-2088,-33,-44,-1
3945.783,307,-228,16344,-2088,-33,-44,-1
3948.451,307,-228,16344,-2088,-33,-44,-1
3948.451,307,-228,16344,-2088,-33,-44,-1
3948.451,307,-228,16344,-2088,-33,-44,-1
3957.871,308,-228,16344,-2088,-33,-44,-1
3957.871,308,-228,16344,-2088,-33,-44,-1
3962.454,307,-216,16324,-2116,-63,-31,-25
3965.8959999999997,308,-216,16324,-2116,-63,-31,-25
3965.8959999999997,307,-216,16324,-2116,-63,-31,-25
3965.8959999999997,307,-216,16324,-2116,-63,-31,-25
3974.931,307,-216,16324,-2116,-63,-31,-25
3977.002,307,-216,16324,-2116,-63,-31,-25
3979.844,307,-216,16324,-2116,-63,-31,-25
3983.552,307,-204,16356,-2104,-32,-27,-2
3986.8100000000004,306,-204,16356,-2104,-32,-27,-2
3990.0449999999996,307,-204,16356,-2104,-32,-27,-2
3992.382,307,-204,16356,-2104,-32,-27,-2
3992.382,307,-204,16356,-2104,-32,-27,-2
3999.634,308,-204,16356,-2104,-32,-27,-2
3999.634,307,-204,16356,-2104,-32,-27,-2
3999.634,308,-216,16324,-2140,-23,-33,-14
4007.956,307,-216,16324,-2140,-23,-33,-14
4009.544,307,-216,16324,-2140,-23,-33,-14
4012.5960000000005,308,-216,16324,-2140,-23,-33,-14
4016.3799999999997,307,-216,16324,-2140,-23,-33,-14
4017.208,307,-216,16324,-2140,-23,-33,-14
4017.208,308,-216,16324,-2140,-23,-33,-14
4024.2120000000004,307,-252,16320,-2140,-63,-35,2
4025.7870000000003,308,-252,16320,-2140,-63,-35,2
4030.41,307,-252,16320,-2140,-63,-35,2
4032.568,307,-252,16320,-2140,-63,-35,2
4036.084,307,-252,16320,-2140,-63,-35,2
4037.7000000000003,308,-252,16320,-2140,-63,-35,2
4040.764,308,-252,16320,-2140,-63,-35,2
4040.764,307,-192,16408,-2120,-31,-38,2
4046.511,307,-192,16408,-2120,-31,-38,2
4048.798,307,-192,16408,-2120,-31,-38,2
4053.2209999999995,307,-192,16408,-2120,-31,-38,2
4053.789,307,-192,16408,-2120,-31,-38,2
4057.126,308,-192,16408,-2120,-31,-38,2
4060.7709999999997,308,-192,16408,-2120,-31,-38,2
4063.606,307,-192,16408,-2120,-31,-38,2
4066.0769999999998,307,-196,16352,-2108,-24,-47,-4
4067.9449999999997,308,-196,16352,-2108,-24,-47,-4
4067.9449999999997,307,-196,16352,-2108,-24,-47,-4
4067.9449999999997,307,-196,16352,-2108,-24,-47,-4
4075.652,307,-196,16352,-2108,-24,-47,-4
4075.652,308,-196,16352,-2108,-24,-47,-4
4081.872,307,-196,16352,-2108,-24,-47,-4
4083.8929999999996,307,-220,16296,-2160,-82,-23,-14
4083.8929999999996,307,-220,16296,-2160,-82,-23,-14
4083.8929999999996,307,-220,16296,-2160,-82,-23,-14
4094.555,307,-220,16296,-2160,-82,-23,-14
4097.505,308,-220,16296,-2160,-82,-23,-14
4097.505,308,-220,16296,-2160,-82,-23,-14
4102.279,308,-220,16296,-2160,-82,-23,-14
4102.279,308,-220,16356,-2140,-19,-40,4
4107.265,307,-220,16356,-2140,-19,-40,4
4110.8589999999995,307,-220,16356,-2140,-19,-40,4
4113.411,307,-220,16356,-2140,-19,-40,4
4113.411,308,-220,16356,-2140,-19,-40,4
4113.411,308,-220,16356,-2140,-19,-40,4
4122.494,308,-220,16356,-2140,-19,-40,4
4125.546,308,-192,16384,-2096,-15,-23,-5
4125.546,307,-192,16384,-2096,-15,-23,-5
4130.867,307,-192,16384,-2096,-15,-23,-5
4130.867,307,-192,16384,-2096,-15,-23,-5
4130.867,307,-192,16384,-2096,-15,-23,-5
4138.929,307,-192,16384,-2096,-15,-23,-5
4142.081,308,-192,16384,-2096,-15,-23,-5
4143.849999999999,307,-212,16280,-2112,-97,-33,-28
4148.423,307,-212,16280,-2112,-97,-33,-28
4149.39,307,-212,16280,-2112,-97,-33,-28
4155.527,307,-212,16280,-2112,-97,-33,-28
4155.527,307,-212,16280,-2112,-97,-33,-28
4158.734,307,-212,16280,-2112,-97,-33,-28
4160.545,307,-212,16280,-2112,-97,-33,-28
4164.017000000001,308,-216,16320,-2144,-34,-36,7
4167.821,307,-216,16320,-2144,-34,-36,7
4170.880999999999,307,-216,16320,-2144,-34,-36,7
4172.392000000001,307,-216,16320,-2144,-34,-36,7
4175.437,307,-216,16320,-2144,-34,-36,7
4180.46,308,-216,16320,-2144,-34,-36,7
4182.821,307,-216,16320,-2144,-34,-36,7
4183.973,307,-244,16304,-2164,18,-41,-12
4188.281,307,-244,16304,-2164,18,-41,-12
4188.281,307,-244,16304,-2164,18,-41,-12
4192.3769999999995,307,-244,16304,-2164,18,-41,-12
4196.146,308,-244,16304,-2164,18,-41,-12
4200.401,307,-244,16304,-2164,18,-41,-12
4200.401,307,-244,16304,-2164,18,-41,-12
4204.111,307,-272,16388,-2160,-104,-35,-8
4209.039,307,-272,16388,-2160,-104,-35,-8
4209.039,307,-272,16388,-2160,-104,-35,-8
4212.148,308,-272,16388,-2160,-104,-35,-8
4216.651,308,-272,16388,-2160,-104,-35,-8
4221.004,307,-272,16388,-2160,-104,-35,-8
4221.004,307,-272,16388,-2160,-104,-35,-8
4225.034,307,-224,16404,-2092,-36,-44,-5
4228.818,307,-224,16404,-2092,-36,-44,-5
4228.818,307,-224,16404,-2092,-36,-44,-5
4228.818,308,-224,16404,-2092,-36,-44,-5
4237.336,307,-224,16404,-2092,-36,-44,-5
4237.336,308,-224,16404,-2092,-36,-44,-5
4237.336,307,-224,16404,-2092,-36,-44,-5
4245.321,307,-232,16316,-2108,48,-29,-6
4247.35,308,-232,16316,-2108,48,-29,-6
4249.652,307,-232,16316,-2108,48,-29,-6
4253.838,308,-232,16316,-2108,48,-29,-6
4253.838,307,-232,16316,-2108,48,-29,-6
4257.169,308,-232,16316,-2108,48,-29,-6
4261.907,308,-232,16316,-2108,48,-29,-6
4266.006,308,-176,16324,-2176,-79,-47,-13
4266.006,307,-176,16324,-2176,-79,-47,-13
4270.039,307,-176,16324,-2176,-79,-47,-13
4270.039,307,-176,16324,-2176,-79,-47,-13
4270.039,307,-176,16324,-2176,-79,-47,-13
4279.004,308,-176,16324,-2176,-79,-47,-13
4279.482,307,-176,16324,-2176,-79,-47,-13
4284.377,307,-220,16360,-2084,-69,-49,-14
4284.377,307,-220,16360,-2084,-69,-49,-14
4284.377,307,-220,16360,-2084,-69,-49,-14
4294.104,307,-220,16360,-2084,-69,-49,-14
4295.765,307,-220,16360,-2084,-69,-49,-14
4297.812000000001,308,-220,16360,-2084,-69,-49,-14
4300.923,307,-220,16360,-2084,-69,-49,-14
4306.954,307,-228,16384,-2136,22,-42,-7
4306.954,307,-228,16384,-2136,22,-42,-7
4308.97,307,-228,16384,-2136,22,-42,-7
4315.171,308,-228,16384,-2136,22,-42,-7
4315.171,307,-228,16384,-2136,22,-42,-7
4318.829,308,-228,16384,-2136,22,-42,-7
4318.829,308,-228,16384,-2136,22,-42,-7
4318.829,307,-212,16356,-2132,-27,-49,1
4327.05,307,-212,16356,-2132,-27,-49,1
4328.853999999999,307,-212,16356,-2132,-27,-49,1
4328.853999999999,307,-212,16356,-2132,-27,-49,1
4335.6630000000005,307,-212,16356,-2132,-27,-49,1
4335.6630000000005,308,-212,16356,-2132,-27,-49,1
4335.6630000000005,308,-212,16356,-2132,-27,-49,1
4343.552,307,-228,16328,-2116,-113,-36,-15
4345.576999999999,307,-228,16328,-2116,-113,-36,-15
4345.576999999999,307,-228,16328,-2116,-113,-36,-15
4352.04,308,-228,16328,-2116,-113,-36,-15
4355.405,307,-228,16328,-2116,-113,-36,-15
4360.509999999999,308,-228,16328,-2116,-113,-36,-15
4360.509999999999,307,-228,16328,-2116,-113,-36,-15
4364.215999999999,308,-236,16332,-2076,-10,-35,4
4368.465999999999,307,-236,16332,-2076,-10,-35,4
4368.465999999999,307,-236,16332,-2076,-10,-35,4
4372.526,307,-236,16332,-2076,-10,-35,4
4376.934,307,-236,16332,-2076,-10,-35,4
4378.9439999999995,307,-236,16332,-2076,-10,-35,4
4380.659,307,-236,16332,-2076,-10,-35,4
4384.83,307,-184,16292,-2120,-2,-37,-8
4386.023,308,-184,16292,-2120,-2,-37,-8
4389.011,307,-184,16292,-2120,-2,-37,-8
4392.671,308,-184,16292,-2120,-2,-37,-8
4392.671,307,-184,16292,-2120,-2,-37,-8
4396.78,309,-184,16292,-2120,-2,-37,-8
4401.284000000001,307,-184,16292,-2120,-2,-37,-8
4402.4169999999995,308,-184,16292,-2120,-2,-37,-8
4405.275,307,-200,16396,-2096,-79,-31,-10
4409.5779999999995,307,-200,16396,-2096,-79,-31,-10
4409.5779999999995,308,-200,16396,-2096,-79,-31,-10
4409.5779999999995,307,-200,16396,-2096,-79,-31,-10
4418.354,308,-200,16396,-2096,-79,-31,-10
4418.947,307,-200,16396,-2096,-79,-31,-10
4418.947,307,-200,16396,-2096,-79,-31,-10
4425.923,307,-192,16376,-2132,-26,-36,-16
4429.83,307,-192,16376,-2132,-26,-36,-16
4433.985,307,-192,16376,-2132,-26,-36,-16
4433.985,307,-192,16376,-2132,-26,-36,-16
4433.985,308,-192,16376,-2132,-26,-36,-16
4442.040000000001,308,-192,16376,-2132,-26,-36,-16
4445.759,307,-200,16344,-2144,-29,-45,-14
4446.374,307,-200,16344,-2144,-29,-45,-14
4446.374,308,-200,16344,-2144,-29,-45,-14
4454.424,307,-200,16344,-2144,-29,-45,-14
4454.424,308,-200,16344,-2144,-29,-45,-14
4460.033,308,-200,16344,-2144,-29,-45,-14
4462.63,307,-200,16344,-2144,-29,-45,-14
4463.0650000000005,307,-216,16376,-2120,-56,-43,2
4466.743,307,-216,16376,-2120,-56,-43,2
4470.813999999999,308,-216,16376,-2120,-56,-43,2
4470.813999999999,308,-216,16376,-2120,-56,-43,2
4474.268999999999,308,-216,16376,-2120,-56,-43,2
4478.298,308,-216,16376,-2120,-56,-43,2
4480.385,308,-216,16376,-2120,-56,-43,2
4484.287,308,-180,16448,-2096,-51,-57,-3
4486.796,308,-180,16448,-2096,-51,-57,-3
4490.481,307,-180,16448,-2096,-51,-57,-3
4497.802,307,-180,16448,-2096,-51,-57,-3
4498.344,308,-180,16448,-2096,-51,-57,-3
4502.358,308,-180,16448,-2096,-51,-57,-3
4503.345,308,-180,16448,-2096,-51,-57,-3
4504.857999999999,308,-180,16448,-2096,-51,-57,-3
4508.154,307,-192,16404,-2116,-21,-44,1
4512.098,307,-192,16404,-2116,-21,-44,1
4513.108,307,-192,16404,-2116,-21,-44,1
4515.116,308,-192,16404,-2116,-21,-44,1
4517.708,307,-192,16404,-2116,-21,-44,1
4520.512,308,-192,16404,-2116,-21,-44,1
4522.3820000000005,308,-192,16404,-2116,-21,-44,1
4522.3820000000005,307,-196,16352,-2168,3,-35,-17
4527.539,307,-196,16352,-2168,3,-35,-17
4530.8,307,-196,16352,-2168,3,-35,-17
4530.8,307,-196,16352,-2168,3,-35,-17
4530.8,308,-196,16352,-2168,3,-35,-17
4540.277,307,-196,16352,-2168,3,-35,-17
4540.277,307,-196,16352,-2168,3,-35,-17
4544.9310000000005,306,-180,16328,-2108,-130,-48,-16
4546.657,307,-180,16328,-2108,-130,-48,-16
4549.768,307,-180,16328,-2108,-130,-48,-16
4549.768,307,-180,16328,-2108,-130,-48,-16
4556.378,307,-180,16328,-2108,-130,-48,-16
4561.119,307,-180,16328,-2108,-130,-48,-16
4563.384,307,-180,16328,-2108,-130,-48,-16
4563.384,307,-204,16364,-2108,34,-33,-17
4563.384,307,-204,16364,-2108,34,-33,-17
4570.959,307,-204,16364,-2108,34,-33,-17
4570.959,307,-204,16364,-2108,34,-33,-17
4578.088,307,-204,16364,-2108,34,-33,-17
4579.710999999999,307,-204,16364,-2108,34,-33,-17
4579.710999999999,307,-204,16364,-2108,34,-33,-17
4579.710999999999,307,-216,16292,-2124,-46,-47,-10
4589.303,307,-216,16292,-2124,-46,-47,-10
4593.954,307,-216,16292,-2124,-46,-47,-10
4594.346,307,-216,16292,-2124,-46,-47,-10
4595.74,307,-216,16292,-2124,-46,-47,-10
4595.74,307,-216,16292,-2124,-46,-47,-10
4595.74,307,-216,16292,-2124,-46,-47,-10
4604.481,306,-188,16340,-2104,-82,-38,-19
4609.4,306,-188,16340,-2104,-82,-38,-19
4613.083,307,-188,16340,-2104,-82,-38,-19
4613.083,306,-188,16340,-2104,-82,-38,-19
4613.083,305,-188,16340,-2104,-82,-38,-19
4622.554,305,-188,16340,-2104,-82,-38,-19
4623.088,304,-220,16376,-2120,4,-38,-20
4626.96,303,-220,16376,-2120,4,-38,-20
4629.382,303,-220,16376,-2120,4,-38,-20
4629.382,301,-220,16376,-2120,4,-38,-20
4633.365000000001,299,-220,16376,-2120,4,-38,-20
4633.365000000001,298,-220,16376,-2120,4,-38,-20
4633.365000000001,298,-220,16376,-2120,4,-38,-20
4644.17,297,-220,16376,-2120,4,-38,-20
4646.07,296,-228,16436,-2176,-9,-31,-27
4649.308,295,-228,16436,-2176,-9,-31,-27
4649.308,294,-228,16436,-2176,-9,-31,-27
4649.308,291,-228,16436,-2176,-9,-31,-27
4659.328,288,-228,16436,-2176,-9,-31,-27
4662.239,286,-228,16436,-2176,-9,-31,-27
4662.676,285,-228,16436,-2176,-9,-31,-27
4665.006,285,-200,16440,-2132,-58,-30,-35
4665.006,284,-200,16440,-2132,-58,-30,-35
4670.923,283,-200,16440,-2132,-58,-30,-35
4676.264,283,-200,16440,-2132,-58,-30,-35
4679.67,283,-200,16440,-2132,-58,-30,-35
4681.421,284,-200,16440,-2132,-58,-30,-35
4683.7429999999995,286,-200,16440,-2132,-58,-30,-35
4687.925,286,-200,16284,-2128,-114,-58,-12
4687.925,285,-200,16284,-2128,-114,-58,-12
4694.201999999999,283,-200,16284,-2128,-114,-58,-12
4696.213,281,-200,16284,-2128,-114,-58,-12
4698.581,281,-200,16284,-2128,-114,-58,-12
4700.592000000001,282,-200,16284,-2128,-114,-58,-12
4703.117,283,-204,16392,-2044,55,-44,4
4706.456,285,-204,16392,-2044,55,-44,4
4711.205,285,-204,16392,-2044,55,-44,4
4713.215,284,-204,16392,-2044,55,-44,4
4716.232,283,-204,16392,-2044,55,-44,4
4716.232,283,-204,16392,-2044,55,-44,4
4720.9349999999995,283,-204,16392,-2044,55,-44,4
4724.691,282,-204,16392,-2044,55,-44,4
4724.691,284,-204,16404,-2204,-8,-39,-14
4728.707,287,-204,16404,-2204,-8,-39,-14
4732.494,289,-204,16404,-2204,-8,-39,-14
4733.2390000000005,290,-204,16404,-2204,-8,-39,-14
4737.253,292,-204,16404,-2204,-8,-39,-14
4741.303,291,-204,16404,-2204,-8,-39,-14
4741.303,289,-204,16404,-2204,-8,-39,-14
4745.292,288,-200,16284,-2148,-208,-45,-6
4748.339,286,-200,16284,-2148,-208,-45,-6
4752.356,286,-200,16284,-2148,-208,-45,-6
4754.228,290,-200,16284,-2148,-208,-45,-6
4757.167,293,-200,16284,-2148,-208,-45,-6
4763.015,296,-200,16284,-2148,-208,-45,-6
4764.991,296,-200,16284,-2148,-208,-45,-6
4765.973,298,-208,16356,-2076,59,-25,-15
4769.363,298,-208,16356,-2076,59,-25,-15
4772.383,299,-208,16356,-2076,59,-25,-15
4774.39,300,-208,16356,-2076,59,-25,-15
4777.009999999999,300,-208,16356,-2076,59,-25,-15
4780.764999999999,300,-208,16356,-2076,59,-25,-15
4782.972,301,-208,16356,-2076,59,-25,-15
4784.981,302,-208,16392,-2172,66,-46,-17
4789.002,302,-208,16392,-2172,66,-46,-17
4791.007,302,-208,16392,-2172,66,-46,-17
4795.107,302,-208,16392,-2172,66,-46,-17
4797.122,302,-208,16392,-2172,66,-46,-17
4799.131,302,-208,16392,-2172,66,-46,-17
4803.237,302,-208,16392,-2172,66,-46,-17
4805.036,302,-164,16356,-2172,-149,-45,6
4809.058,302,-164,16356,-2172,-149,-45,6
4811.0689999999995,303,-164,16356,-2172,-149,-45,6
4814.73,303,-164,16356,-2172,-149,-45,6
4818.743,304,-164,16356,-2172,-149,-45,6
4820.75,305,-164,16356,-2172,-149,-45,6
4822.758000000001,305,-164,16356,-2172,-149,-45,6
4826.781999999999,306,-232,16308,-2108,-84,-27,-10
4826.781999999999,305,-232,16308,-2108,-84,-27,-10
4830.803000000001,304,-232,16308,-2108,-84,-27,-10
4834.817,306,-232,16308,-2108,-84,-27,-10
4838.963,306,-232,16308,-2108,-84,-27,-10
4840.161,306,-232,16308,-2108,-84,-27,-10
4843.302000000001,304,-232,16308,-2108,-84,-27,-10
4843.302000000001,304,-228,16364,-2084,81,-30,-5
4843.302000000001,302,-228,16364,-2084,81,-30,-5
4851.657999999999,302,-228,16364,-2084,81,-30,-5
4851.657999999999,301,-228,16364,-2084,81,-30,-5
4851.657999999999,300,-228,16364,-2084,81,-30,-5
4859.772000000001,302,-228,16364,-2084,81,-30,-5
4859.772000000001,301,-228,16364,-2084,81,-30,-5
4859.772000000001,302,-220,16436,-2216,-39,-31,-17
4868.072,302,-220,16436,-2216,-39,-31,-17
4872.471,303,-220,16436,-2216,-39,-31,-17
4876.476000000001,304,-220,16436,-2216,-39,-31,-17
4876.476000000001,304,-220,16436,-2216,-39,-31,-17
4879.258,303,-220,16436,-2216,-39,-31,-17
4883.29,302,-220,16436,-2216,-39,-31,-17
4884.802,302,-220,16368,-2156,-146,-55,2
4887.951,302,-220,16368,-2156,-146,-55,2
4890.1050000000005,303,-220,16368,-2156,-146,-55,2
4893.165,305,-220,16368,-2156,-146,-55,2
4893.165,305,-220,16368,-2156,-146,-55,2
4893.165,305,-220,16368,-2156,-146,-55,2
4904.803,305,-220,16368,-2156,-146,-55,2
4905.865000000001,305,-208,16336,-2076,-11,-49,-12
4909.295,304,-208,16336,-2076,-11,-49,-12
4912.827,305,-208,16336,-2076,-11,-49,-12
4912.827,305,-208,16336,-2076,-11,-49,-12
4917.437,305,-208,16336,-2076,-11,-49,-12
4917.437,307,-208,16336,-2076,-11,-49,-12
4925.6140000000005,307,-208,16336,-2076,-11,-49,-12
4925.6140000000005,307,-204,16392,-2140,52,-37,-6
4928.227,305,-204,16392,-2140,52,-37,-6
4933.803,304,-204,16392,-2140,52,-37,-6
4933.803,304,-204,16392,-2140,52,-37,-6
4933.803,305,-204,16392,-2140,52,-37,-6
4941.958,306,-204,16392,-2140,52,-37,-6
4941.958,305,-204,16392,-2140,52,-37,-6
4945.903,305,-236,16392,-2152,-84,-45,-15
4949.929,306,-236,16392,-2152,-84,-45,-15
4949.929,305,-236,16392,-2152,-84,-45,-15
4953.098,304,-236,16392,-2152,-84,-45,-15
4958.185,306,-236,16392,-2152,-84,-45,-15
4959.479,307,-236,16392,-2152,-84,-45,-15
4959.479,307,-236,16392,-2152,-84,-45,-15
4966.646,307,-240,16284,-2112,-98,-50,-1
4966.646,307,-240,16284,-2112,-98,-50,-1
4966.646,309,-240,16284,-2112,-98,-50,-1
4966.646,308,-240,16284,-2112,-98,-50,-1
4976.814,308,-240,16284,-2112,-98,-50,-1
4976.814,309,-240,16284,-2112,-98,-50,-1
4976.814,306,-240,16284,-2112,-98,-50,-1
4983.361999999999,302,-208,16416,-2152,41,-16,-2
4983.361999999999,305,-208,16416,-2152,41,-16,-2
4991.724999999999,306,-208,16416,-2152,41,-16,-2
4993.745,307,-208,16416,-2152,41,-16,-2
4995.758000000001,307,-208,16416,-2152,41,-16,-2
4999.791,309,-208,16416,-2152,41,-16,-2
4999.791,309,-208,16416,-2152,41,-16,-2
4999.791,308,-208,16356,-2148,-13,-20,-9
5009.388999999999,308,-208,16356,-2148,-13,-20,-9
5009.388999999999,309,-208,16356,-2148,-13,-20,-9
5009.388999999999,309,-208,16356,-2148,-13,-20,-9
5015.959,308,-208,16356,-2148,-13,-20,-9
5015.959,309,-208,16356,-2148,-13,-20,-9
5015.959,309,-208,16356,-2148,-13,-20,-9
5025.895,308,-224,16348,-2120,-162,-32,-11
5025.895,309,-224,16348,-2120,-162,-32,-11
5025.895,310,-224,16348,-2120,-162,-32,-11
5032.661,310,-224,16348,-2120,-162,-32,-11
5032.661,311,-224,16348,-2120,-162,-32,-11
5032.661,311,-224,16348,-2120,-162,-32,-11
5040.831,310,-224,16348,-2120,-162,-32,-11
5045.858,310,-228,16328,-2100,-6,-27,-1
5048.9,309,-228,16328,-2100,-6,-27,-1
5048.9,308,-228,16328,-2100,-6,-27,-1
5048.9,309,-228,16328,-2100,-6,-27,-1
5057.1,310,-228,16328,-2100,-6,-27,-1
5057.1,309,-228,16328,-2100,-6,-27,-1
5063.16,310,-228,16328,-2100,-6,-27,-1
5065.181,310,-216,16396,-2176,36,-36,-2
5065.181,310,-216,16396,-2176,36,-36,-2
5065.181,311,-216,16396,-2176,36,-36,-2
5074.242,310,-216,16396,-2176,36,-36,-2
5074.242,311,-216,16396,-2176,36,-36,-2
5074.242,311,-216,16396,-2176,36,-36,-2
5081.754,310,-216,16396,-2176,36,-36,-2
5081.754,310,-216,16396,-2176,36,-36,-2
5081.754,310,-248,16340,-2124,-83,-51,-14
5089.923,311,-248,16340,-2124,-83,-51,-14
5093.958,310,-248,16340,-2124,-83,-51,-14
5097.9890000000005,311,-248,16340,-2124,-83,-51,-14
5097.9890000000005,311,-248,16340,-2124,-83,-51,-14
5097.9890000000005,311,-248,16340,-2124,-83,-51,-14
5097.9890000000005,312,-228,16380,-2104,-58,-33,-32
5109.439,311,-228,16380,-2104,-58,-33,-32
5109.439,311,-228,16380,-2104,-58,-33,-32
5109.439,310,-228,16380,-2104,-58,-33,-32
5117.917,309,-228,16380,-2104,-58,-33,-32
5117.917,310,-228,16380,-2104,-58,-33,-32
5122.795,311,-228,16380,-2104,-58,-33,-32
5126.797,310,-180,16320,-2136,-65,-56,8
5126.797,310,-180,16320,-2136,-65,-56,8
5130.982,311,-180,16320,-2136,-65,-56,8
5130.982,311,-180,16320,-2136,-65,-56,8
5130.982,311,-180,16320,-2136,-65,-56,8
5139.039000000001,311,-180,16320,-2136,-65,-56,8
5139.039000000001,311,-180,16320,-2136,-65,-56,8
5143.603,312,-180,16320,-2136,-65,-56,8
5147.069,311,-240,16352,-2120,-26,-49,3
5150.616999999999,311,-240,16352,-2120,-26,-49,3
5155.341,311,-240,16352,-2120,-26,-49,3
5155.341,311,-240,16352,-2120,-26,-49,3
5157.838,311,-240,16352,-2120,-26,-49,3
5160.5,311,-240,16352,-2120,-26,-49,3
5164.612,311,-240,16352,-2120,-26,-49,3
5164.612,311,-232,16384,-2128,10,-37,-14
5171.888,311,-232,16384,-2128,10,-37,-14
5171.888,311,-232,16384,-2128,10,-37,-14
5171.888,310,-232,16384,-2128,10,-37,-14
5178.73,311,-232,16384,-2128,10,-37,-14
5180.258,311,-232,16384,-2128,10,-37,-14
5180.258,311,-232,16384,-2128,10,-37,-14
5180.258,310,-216,16364,-2136,-80,-54,-9
5191.679,311,-216,16364,-2136,-80,-54,-9
5192.808999999999,310,-216,16364,-2136,-80,-54,-9
5196.5070000000005,312,-216,16364,-2136,-80,-54,-9
5199.858,312,-216,16364,-2136,-80,-54,-9
5199.858,312,-216,16364,-2136,-80,-54,-9
5204.563,311,-216,16364,-2136,-80,-54,-9
5208.0019999999995,310,-228,16380,-2112,-74,-35,-11
5210.431,310,-228,16380,-2112,-74,-35,-11
5212.886,310,-228,16380,-2112,-74,-35,-11
5212.886,310,-228,16380,-2112,-74,-35,-11
5212.886,310,-228,16380,-2112,-74,-35,-11
5223.289000000001,311,-228,16380,-2112,-74,-35,-11
5225.939,311,-228,16380,-2112,-74,-35,-11
5229.017,311,-180,16324,-2148,26,-39,-9
5229.017,310,-180,16324,-2148,26,-39,-9
5232.023,310,-180,16324,-2148,26,-39,-9
5237.179,310,-180,16324,-2148,26,-39,-9
5237.179,311,-180,16324,-2148,26,-39,-9
5240.482,312,-180,16324,-2148,26,-39,-9
5244.152,312,-180,16324,-2148,26,-39,-9
5245.668000000001,311,-168,16380,-2192,-33,-39,-14
5248.701,312,-168,16380,-2192,-33,-39,-14
5250.696,311,-168,16380,-2192,-33,-39,-14
5254.052,312,-168,16380,-2192,-33,-39,-14
5259.648,313,-168,16380,-2192,-33,-39,-14
5262.053,313,-168,16380,-2192,-33,-39,-14
5264.076,312,-168,16380,-2192,-33,-39,-14
5268.057,311,-248,16320,-2088,-78,-60,-15
5270.073,310,-248,16320,-2088,-78,-60,-15
5270.073,310,-248,16320,-2088,-78,-60,-15
5276.976000000001,311,-248,16320,-2088,-78,-60,-15
5278.616,312,-248,16320,-2088,-78,-60,-15
5278.616,312,-248,16320,-2088,-78,-60,-15
5278.616,312,-248,16320,-2088,-78,-60,-15
5286.804,311,-228,16324,-2120,-8,-49,-6
5286.804,311,-228,16324,-2120,-8,-49,-6
5293.274,311,-228,16324,-2120,-8,-49,-6
5295.094,312,-228,16324,-2120,-8,-49,-6
5295.094,312,-228,16324,-2120,-8,-49,-6
5295.094,313,-228,16324,-2120,-8,-49,-6
5303.221,312,-228,16324,-2120,-8,-49,-6
5303.221,311,-216,16328,-2156,-36,-49,8
5310.045,312,-216,16328,-2156,-36,-49,8
5311.576,312,-216,16328,-2156,-36,-49,8
5313.5960000000005,312,-216,16328,-2156,-36,-49,8
5313.5960000000005,312,-216,16328,-2156,-36,-49,8
5320.924,314,-216,16328,-2156,-36,-49,8
5322.941,312,-216,16328,-2156,-36,-49,8
5327.200000000001,311,-200,16416,-2164,-61,-19,-3
5329.445,310,-200,16416,-2164,-61,-19,-3
5329.445,310,-200,16416,-2164,-61,-19,-3
5335.575000000001,312,-200,16416,-2164,-61,-19,-3
5337.589999999999,312,-200,16416,-2164,-61,-19,-3
5337.589999999999,312,-200,16416,-2164,-61,-19,-3
5343.9,312,-200,16416,-2164,-61,-19,-3
5345.9130000000005,311,-172,16368,-2076,-39,-44,-32
5347.922,311,-172,16368,-2076,-39,-44,-32
5351.941,311,-172,16368,-2076,-39,-44,-32
5355.581,311,-172,16368,-2076,-39,-44,-32
5358.619,312,-172,16368,-2076,-39,-44,-32
5360.375999999999,312,-172,16368,-2076,-39,-44,-32
5368.415,311,-172,16368,-2076,-39,-44,-32
5378.463,312,-204,16340,-2160,-20,-27,-9
5378.463,312,-204,16340,-2160,-20,-27,-9
5380.471,312,-204,16340,-2160,-20,-27,-9
5380.471,311,-204,16340,-2160,-20,-27,-9
5380.471,311,-204,16340,-2160,-20,-27,-9
5382.478,311,-204,16340,-2160,-20,-27,-9
5384.486,311,-204,16340,-2160,-20,-27,-9
5386.496,310,-180,16356,-2108,-51,-18,2
5388.504,311,-180,16356,-2108,-51,-18,2
5392.502,312,-180,16356,-2108,-51,-18,2
5392.502,312,-180,16356,-2108,-51,-18,2
5392.502,311,-180,16356,-2108,-51,-18,2
5400.5419999999995,312,-180,16356,-2108,-51,-18,2
5404.56,312,-180,16356,-2108,-51,-18,2
5404.56,311,-180,16356,-2108,-51,-18,2
5408.572999999999,311,-180,16392,-2136,-31,-23,-11
5412.619000000001,311,-180,16392,-2136,-31,-23,-11
5412.619000000001,311,-180,16392,-2136,-31,-23,-11
5417.2390000000005,311,-180,16392,-2136,-31,-23,-11
5419.768999999999,311,-180,16392,-2136,-31,-23,-11
5425.114,311,-180,16392,-2136,-31,-23,-11
5427.129,311,-180,16392,-2136,-31,-23,-11
5429.142,311,-224,16396,-2140,-62,-35,-15
5433.156999999999,312,-224,16396,-2140,-62,-35,-15
5433.156999999999,312,-224,16396,-2140,-62,-35,-15
5433.156999999999,312,-224,16396,-2140,-62,-35,-15
5441.369,311,-224,16396,-2140,-62,-35,-15
5443.387000000001,311,-224,16396,-2140,-62,-35,-15
5443.387000000001,310,-176,16412,-2112,-39,-51,3
5449.643,309,-176,16412,-2112,-39,-51,3
5453.884,310,-176,16412,-2112,-39,-51,3
5454.162,310,-176,16412,-2112,-39,-51,3
5457.468000000001,311,-176,16412,-2112,-39,-51,3
5457.468000000001,311,-176,16412,-2112,-39,-51,3
5457.468000000001,310,-176,16412,-2112,-39,-51,3
5466.014,309,-176,16412,-2112,-39,-51,3
5466.014,310,-212,16344,-2140,0,-44,-14
5466.014,310,-212,16344,-2140,0,-44,-14
5474.135,310,-212,16344,-2140,0,-44,-14
5474.135,309,-212,16344,-2140,0,-44,-14
5474.135,310,-212,16344,-2140,0,-44,-14
5482.446999999999,308,-212,16344,-2140,0,-44,-14
5482.446999999999,308,-212,16344,-2140,0,-44,-14
5482.446999999999,309,-276,16292,-2124,-43,-40,-11
5490.87,309,-276,16292,-2124,-43,-40,-11
5493.546,310,-276,16292,-2124,-43,-40,-11
5493.546,310,-276,16292,-2124,-43,-40,-11
5498.964,310,-276,16292,-2124,-43,-40,-11
5500.764,309,-276,16292,-2124,-43,-40,-11
5507.335999999999,310,-276,16292,-2124,-43,-40,-11
5507.335999999999,310,-148,16400,-2104,-75,-21,-3
5510.176,311,-148,16400,-2104,-75,-21,-3
5510.176,311,-148,16400,-2104,-75,-21,-3
5515.93,310,-148,16400,-2104,-75,-21,-3
5515.93,310,-148,16400,-2104,-75,-21,-3
5515.93,310,-148,16400,-2104,-75,-21,-3
5524.179,310,-148,16400,-2104,-75,-21,-3
5526.911,310,-272,16320,-2100,-44,-35,-19
5532.39,310,-272,16320,-2100,-44,-35,-19
5535.753,309,-272,16320,-2100,-44,-35,-19
5536.508000000001,309,-272,16320,-2100,-44,-35,-19
5540.503000000001,309,-272,16320,-2100,-44,-35,-19
5540.503000000001,310,-272,16320,-2100,-44,-35,-19
5540.503000000001,310,-272,16320,-2100,-44,-35,-19
5548.546,310,-192,16348,-2124,9,-44,-19
5552.129,309,-192,16348,-2124,9,-44,-19
5552.129,308,-192,16348,-2124,9,-44,-19
5556.638000000001,309,-192,16348,-2124,9,-44,-19
5560.4839999999995,309,-192,16348,-2124,9,-44,-19
5560.4839999999995,309,-192,16348,-2124,9,-44,-19
5564.994000000001,309,-192,16348,-2124,9,-44,-19
5564.994000000001,310,-236,16340,-2168,-53,-42,-8
5564.994000000001,309,-236,16340,-2168,-53,-42,-8
5573.115,310,-236,16340,-2168,-53,-42,-8
5573.115,309,-236,16340,-2168,-53,-42,-8
5581.224,309,-236,16340,-2168,-53,-42,-8
5581.224,309,-236,16340,-2168,-53,-42,-8
5581.224,308,-236,16340,-2168,-53,-42,-8
5589.43,309,-212,16356,-2116,-75,-44,-19
5589.874,310,-212,16356,-2116,-75,-44,-19
5589.874,309,-212,16356,-2116,-75,-44,-19
5597.569,309,-212,16356,-2116,-75,-44,-19
5597.569,310,-212,16356,-2116,-75,-44,-19
5597.569,309,-212,16356,-2116,-75,-44,-19
5605.755,309,-212,16356,-2116,-75,-44,-19
5605.755,307,-268,16420,-2144,48,-28,-5
5610.681,308,-268,16420,-2144,48,-28,-5
5614.184,308,-268,16420,-2144,48,-28,-5
5616.199,308,-268,16420,-2144,48,-28,-5
5616.199,308,-268,16420,-2144,48,-28,-5
5622.2919999999995,308,-268,16420,-2144,48,-28,-5
5622.2919999999995,309,-268,16420,-2144,48,-28,-5
5627.132,308,-228,16336,-2120,-47,-38,-8
5630.559,309,-228,16336,-2120,-47,-38,-8
5630.559,308,-228,16336,-2120,-47,-38,-8
5630.559,308,-228,16336,-2120,-47,-38,-8
5638.9,308,-228,16336,-2120,-47,-38,-8
5638.9,309,-228,16336,-2120,-47,-38,-8
5638.9,308,-228,16336,-2120,-47,-38,-8
5647.125,308,-204,16324,-2148,-110,-35,-19
5647.125,308,-204,16324,-2148,-110,-35,-19
5647.125,308,-204,16324,-2148,-110,-35,-19
5655.533,308,-204,16324,-2148,-110,-35,-19
5660.465,308,-204,16324,-2148,-110,-35,-19
5664.024,308,-204,16324,-2148,-110,-35,-19
5664.024,308,-204,16324,-2148,-110,-35,-19
5664.024,307,-216,16328,-2128,9,-48,-3
5664.024,307,-216,16328,-2128,9,-48,-3
5672.355,309,-216,16328,-2128,9,-48,-3
5672.355,309,-216,16328,-2128,9,-48,-3
5672.355,308,-216,16328,-2128,9,-48,-3
5683.255,307,-216,16328,-2128,9,-48,-3
5683.9839999999995,308,-216,16328,-2128,9,-48,-3
5683.9839999999995,308,-220,16404,-2192,1,-48,-15
5691.373,309,-220,16404,-2192,1,-48,-15
5694.062,309,-220,16404,-2192,1,-48,-15
5694.062,308,-220,16404,-2192,1,-48,-15
5697.411,309,-220,16404,-2192,1,-48,-15
5697.411,309,-220,16404,-2192,1,-48,-15
5697.411,308,-220,16404,-2192,1,-48,-15
5705.817,308,-220,16404,-2192,1,-48,-15
5710.304,308,-180,16312,-2144,-104,-33,-10
5714.276,307,-180,16312,-2144,-104,-33,-10
5716.097000000001,308,-180,16312,-2144,-104,-33,-10
5717.2660000000005,307,-180,16312,-2144,-104,-33,-10
5717.2660000000005,308,-180,16312,-2144,-104,-33,-10
5722.7480000000005,308,-180,16312,-2144,-104,-33,-10
5727.197,308,-160,16312,-2112,-37,-40,-13
5731.161,308,-160,16312,-2112,-37,-40,-13
5731.161,309,-160,16312,-2112,-37,-40,-13
5731.161,308,-160,16312,-2112,-37,-40,-13
5739.339,309,-160,16312,-2112,-37,-40,-13
5739.339,308,-160,16312,-2112,-37,-40,-13
5739.339,308,-160,16312,-2112,-37,-40,-13
5747.763,308,-240,16396,-2164,33,-40,-10
5747.763,309,-240,16396,-2164,33,-40,-10
5747.763,308,-240,16396,-2164,33,-40,-10
5756.995,308,-240,16396,-2164,33,-40,-10
5756.995,310,-240,16396,-2164,33,-40,-10
5756.995,308,-240,16396,-2164,33,-40,-10
5764.663,308,-240,16396,-2164,33,-40,-10
5764.663,307,-196,16352,-2148,-93,-41,1
5764.663,308,-196,16352,-2148,-93,-41,1
5773.096,308,-196,16352,-2148,-93,-41,1
5777.9220000000005,308,-196,16352,-2148,-93,-41,1
5777.9220000000005,309,-196,16352,-2148,-93,-41,1
5781.34,309,-196,16352,-2148,-93,-41,1
5781.34,308,-196,16352,-2148,-93,-41,1
5781.34,308,-200,16352,-2124,-50,-39,9
5789.527,309,-200,16352,-2124,-50,-39,9
5794.203,309,-200,16352,-2124,-50,-39,9
5795.45,308,-200,16352,-2124,-50,-39,9
5797.728,309,-200,16352,-2124,-50,-39,9
5801.622,309,-200,16352,-2124,-50,-39,9
5801.622,309,-200,16352,-2124,-50,-39,9
5805.9890000000005,309,-200,16352,-2124,-50,-39,9
5810.359,309,-248,16360,-2144,13,-56,-1
5810.359,309,-248,16360,-2144,13,-56,-1
5814.222,308,-248,16360,-2144,13,-56,-1
5814.222,309,-248,16360,-2144,13,-56,-1
5814.222,307,-248,16360,-2144,13,-56,-1
5822.969999999999,308,-248,16360,-2144,13,-56,-1
5826.360000000001,308,-248,16360,-2144,13,-56,-1
5826.360000000001,308,-244,16396,-2164,-70,-33,8
5830.636,308,-244,16396,-2164,-70,-33,8
5830.636,308,-244,16396,-2164,-70,-33,8
5830.636,309,-244,16396,-2164,-70,-33,8
5838.848,308,-244,16396,-2164,-70,-33,8
5843.134,309,-244,16396,-2164,-70,-33,8
5843.134,309,-244,16396,-2164,-70,-33,8
5846.945,310,-224,16336,-2144,-59,-43,2
5850.505,310,-224,16336,-2144,-59,-43,2
5850.505,310,-224,16336,-2144,-59,-43,2
5855.254999999999,310,-224,16336,-2144,-59,-43,2
5856.471,310,-224,16336,-2144,-59,-43,2
5860.691,310,-224,16336,-2144,-59,-43,2
5863.714,310,-224,16336,-2144,-59,-43,2
5863.714,310,-224,16336,-2144,-59,-43,2
5863.714,309,-228,16340,-2164,18,-40,-16
5872.217,309,-228,16340,-2164,18,-40,-16
5872.217,309,-228,16340,-2164,18,-40,-16
5876.552000000001,310,-228,16340,-2164,18,-40,-16
5881.175,310,-228,16340,-2164,18,-40,-16
5884.4039999999995,310,-228,16340,-2164,18,-40,-16
5884.4039999999995,310,-228,16340,-2164,18,-40,-16
5888.697999999999,310,-212,16376,-2124,-50,-30,3
5888.697999999999,309,-212,16376,-2124,-50,-30,3
5893.737,309,-212,16376,-2124,-50,-30,3
5896.757,310,-212,16376,-2124,-50,-30,3
5900.084,311,-212,16376,-2124,-50,-30,3
5900.084,310,-212,16376,-2124,-50,-30,3
5904.835,310,-212,16376,-2124,-50,-30,3
5906.466,310,-212,16340,-2128,-74,-33,-3
5910.478999999999,309,-212,16340,-2128,-74,-33,-3
5913.474,309,-212,16340,-2128,-74,-33,-3
5913.474,309,-212,16340,-2128,-74,-33,-3
5913.474,310,-212,16340,-2128,-74,-33,-3
5924.922,309,-212,16340,-2128,-74,-33,-3
5926.621,310,-212,16340,-2128,-74,-33,-3
5928.666,310,-208,16352,-2108,10,-51,-9
5932.604,310,-208,16352,-2108,10,-51,-9
5933.775,310,-208,16352,-2108,10,-51,-9
5937.3189999999995,310,-208,16352,-2108,10,-51,-9
5941.244000000001,309,-208,16352,-2108,10,-51,-9
5941.244000000001,310,-208,16352,-2108,10,-51,-9
5945.398,310,-208,16352,-2108,10,-51,-9
5949.479,309,-236,16460,-2164,-6,-43,2
5949.479,310,-236,16460,-2164,-6,-43,2
5953.5419999999995,309,-236,16460,-2164,-6,-43,2
5954.503,310,-236,16460,-2164,-6,-43,2
5954.503,310,-236,16460,-2164,-6,-43,2
5961.947999999999,310,-236,16460,-2164,-6,-43,2
5961.947999999999,311,-236,16460,-2164,-6,-43,2
5961.947999999999,310,-236,16460,-2164,-6,-43,2
5970.081999999999,311,-260,16304,-2164,-110,-37,-9
5970.081999999999,310,-260,16304,-2164,-110,-37,-9
5970.081999999999,310,-260,16304,-2164,-110,-37,-9
5978.419,311,-260,16304,-2164,-110,-37,-9
5978.419,311,-260,16304,-2164,-110,-37,-9
5978.419,311,-260,16304,-2164,-110,-37,-9
5986.543000000001,311,-260,16304,-2164,-110,-37,-9
5987.723,310,-232,16424,-2112,-19,-42,-6
5993.44,311,-232,16424,-2112,-19,-42,-6
5996.12,311,-232,16424,-2112,-19,-42,-6
5998.764999999999,310,-232,16424,-2112,-19,-42,-6
5998.764999999999,310,-232,16424,-2112,-19,-42,-6
6003.356,311,-232,16424,-2112,-19,-42,-6
6007.375,310,-232,16424,-2112,-19,-42,-6
6011.405,310,-196,16372,-2140,-2,-38,-17
6011.405,310,-196,16372,-2140,-2,-38,-17
6011.405,309,-196,16372,-2140,-2,-38,-17
6019.525,310,-196,16372,-2140,-2,-38,-17
6023.141,309,-196,16372,-2140,-2,-38,-17
6023.141,308,-196,16372,-2140,-2,-38,-17
6023.141,309,-196,16372,-2140,-2,-38,-17
6030.67,308,-196,16308,-2108,-84,-41,-7
6030.67,309,-196,16308,-2108,-84,-41,-7
6035.427000000001,310,-196,16308,-2108,-84,-41,-7
6035.427000000001,310,-196,16308,-2108,-84,-41,-7
6035.427000000001,310,-196,16308,-2108,-84,-41,-7
6043.642,309,-196,16308,-2108,-84,-41,-7
6043.642,310,-196,16308,-2108,-84,-41,-7
6043.642,310,-236,16364,-2088,-38,-49,-7
6051.852,310,-236,16364,-2088,-38,-49,-7
6051.852,309,-236,16364,-2088,-38,-49,-7
6059.843,310,-236,16364,-2088,-38,-49,-7
6059.843,309,-236,16364,-2088,-38,-49,-7
6064.378,309,-236,16364,-2088,-38,-49,-7
6067.973,309,-236,16364,-2088,-38,-49,-7
6067.973,308,-264,16332,-2140,-30,-36,4
6067.973,309,-264,16332,-2140,-30,-36,4
6076.397,309,-264,16332,-2140,-30,-36,4
6078.411,309,-264,16332,-2140,-30,-36,4
6080.669,309,-264,16332,-2140,-30,-36,4
6084.582,310,-264,16332,-2140,-30,-36,4
6084.582,309,-264,16332,-2140,-30,-36,4
6084.582,309,-180,16432,-2112,-72,-39,-15
6092.8060000000005,309,-180,16432,-2112,-72,-39,-15
6092.8060000000005,309,-180,16432,-2112,-72,-39,-15
6095.9890000000005,309,-180,16432,-2112,-72,-39,-15
6100.991,309,-180,16432,-2112,-72,-39,-15
6100.991,309,-180,16432,-2112,-72,-39,-15
6100.991,309,-180,16432,-2112,-72,-39,-15
6110.291,309,-220,16332,-2128,-21,-29,-11
6110.291,309,-220,16332,-2128,-21,-29,-11
6110.291,309,-220,16332,-2128,-21,-29,-11
6117.429999999999,309,-220,16332,-2128,-21,-29,-11
6118.291,309,-220,16332,-2128,-21,-29,-11
6125.796,309,-220,16332,-2128,-21,-29,-11
6125.796,308,-220,16332,-2128,-21,-29,-11
6129.659000000001,309,-232,16352,-2152,-11,-31,-6
6129.659000000001,309,-232,16352,-2152,-11,-31,-6
6134.251,309,-232,16352,-2152,-11,-31,-6
6135.848,309,-232,16352,-2152,-11,-31,-6
6142.265,309,-232,16352,-2152,-11,-31,-6
6142.265,309,-232,16352,-2152,-11,-31,-6
6146.2880000000005,309,-232,16352,-2152,-11,-31,-6
6150.469,309,-172,16428,-2112,-74,-50,-5
6154.255,310,-172,16428,-2112,-74,-50,-5
6154.255,309,-172,16428,-2112,-74,-50,-5
6158.943,309,-172,16428,-2112,-74,-50,-5
6158.943,310,-172,16428,-2112,-74,-50,-5
6158.943,309,-172,16428,-2112,-74,-50,-5
6166.667,309,-172,16428,-2112,-74,-50,-5
6167.393,308,-228,16388,-2100,-16,-29,0
6167.393,307,-228,16388,-2100,-16,-29,0
6174.686000000001,309,-228,16388,-2100,-16,-29,0
6176.859,309,-228,16388,-2100,-16,-29,0
6180.359,309,-228,16388,-2100,-16,-29,0
6182.884999999999,308,-228,16388,-2100,-16,-29,0
6185.761,308,-228,16388,-2100,-16,-29,0
6187.77,309,-184,16344,-2128,-11,-49,9
6191.299,308,-184,16344,-2128,-11,-49,9
6192.483,308,-184,16344,-2128,-11,-49,9
6196.537,308,-184,16344,-2128,-11,-49,9
6199.277,309,-184,16344,-2128,-11,-49,9
6199.277,308,-184,16344,-2128,-11,-49,9
6199.277,308,-184,16344,-2128,-11,-49,9
6207.455000000001,308,-184,16344,-2128,-11,-49,9
6211.337,308,-228,16336,-2172,-83,-44,-5
6215.676,309,-228,16336,-2172,-83,-44,-5
6215.676,308,-228,16336,-2172,-83,-44,-5
6219.775000000001,309,-228,16336,-2172,-83,-44,-5
6223.861999999999,309,-228,16336,-2172,-83,-44,-5
6223.861999999999,308,-228,16336,-2172,-83,-44,-5
6228.37,308,-228,16336,-2172,-83,-44,-5
6232.077,308,-220,16356,-2088,-36,-42,-15
6232.077,308,-220,16356,-2088,-36,-42,-15
6236.150000000001,308,-220,16356,-2088,-36,-42,-15
6240.501,308,-220,16356,-2088,-36,-42,-15
6242.512,308,-220,16356,-2088,-36,-42,-15
6242.512,308,-220,16356,-2088,-36,-42,-15
6248.77,308,-264,16328,-2132,-30,-35,-18
6252.508,308,-264,16328,-2132,-30,-35,-18
6252.508,307,-264,16328,-2132,-30,-35,-18
6256.8910000000005,308,-264,16328,-2132,-30,-35,-18
6260.022,308,-264,16328,-2132,-30,-35,-18
6260.022,307,-264,16328,-2132,-30,-35,-18
6265.2210000000005,308,-264,16328,-2132,-30,-35,-18
6268.896,307,-240,16388,-2116,-40,-17,-22
6268.896,307,-240,16388,-2116,-40,-17,-22
6273.569,308,-240,16388,-2116,-40,-17,-22
6277.746999999999,308,-240,16388,-2116,-40,-17,-22
6279.757,308,-240,16388,-2116,-40,-17,-22
6282.54,308,-240,16388,-2116,-40,-17,-22
6282.54,308,-240,16388,-2116,-40,-17,-22
6282.54,307,-244,16356,-2136,-42,-34,-14
6291.7699999999995,307,-244,16356,-2136,-42,-34,-14
6291.7699999999995,308,-244,16356,-2136,-42,-34,-14
6291.7699999999995,308,-244,16356,-2136,-42,-34,-14
6301.667,308,-244,16356,-2136,-42,-34,-14
6305.617,308,-244,16356,-2136,-42,-34,-14
6305.617,307,-244,16356,-2136,-42,-34,-14
6310.213,308,-232,16396,-2148,-17,-44,-12
6313.944,308,-232,16396,-2148,-17,-44,-12
6314.955,308,-232,16396,-2148,-17,-44,-12
6314.955,309,-232,16396,-2148,-17,-44,-12
6314.955,308,-232,16396,-2148,-17,-44,-12
6325.431,308,-232,16396,-2148,-17,-44,-12
6328.05,308,-232,16396,-2148,-17,-44,-12
6330.349,308,-244,16280,-2164,-65,-42,4
6331.361,308,-244,16280,-2164,-65,-42,4
6331.361,308,-244,16280,-2164,-65,-42,4
6331.361,309,-244,16280,-2164,-65,-42,4
6342.29,308,-244,16280,-2164,-65,-42,4
6344.299,308,-244,16280,-2164,-65,-42,4
6346.3060000000005,308,-244,16280,-2164,-65,-42,4
6348.081999999999,308,-236,16364,-2100,-10,-17,-16
6348.081999999999,308,-236,16364,-2100,-10,-17,-16
6348.081999999999,308,-236,16364,-2100,-10,-17,-16
6356.119,309,-236,16364,-2100,-10,-17,-16
6360.4890000000005,309,-236,16364,-2100,-10,-17,-16
6360.4890000000005,308,-236,16364,-2100,-10,-17,-16
6364.308,308,-236,16364,-2100,-10,-17,-16
6364.308,307,-244,16316,-2144,-9,-38,4
6364.308,308,-244,16316,-2144,-9,-38,4
6372.37,308,-244,16316,-2144,-9,-38,4
6377.193,308,-244,16316,-2144,-9,-38,4
6377.193,307,-244,16316,-2144,-9,-38,4
6380.518,308,-244,16316,-2144,-9,-38,4
6380.518,307,-244,16316,-2144,-9,-38,4
6388.87,308,-188,16360,-2116,-96,-35,1
6388.87,307,-188,16360,-2116,-96,-35,1
6393.568,308,-188,16360,-2116,-96,-35,1
6397.0070000000005,308,-188,16360,-2116,-96,-35,1
6400.244,309,-188,16360,-2116,-96,-35,1
6402.163,308,-188,16360,-2116,-96,-35,1
6402.163,307,-188,16360,-2116,-96,-35,1
6405.5,308,-188,16360,-2116,-96,-35,1
6410.481,308,-216,16384,-2132,-28,-10,-9
6410.481,308,-216,16384,-2132,-28,-10,-9
6413.735,308,-216,16384,-2132,-28,-10,-9
6416.654,308,-216,16384,-2132,-28,-10,-9
6416.654,308,-216,16384,-2132,-28,-10,-9
6424.158,308,-216,16384,-2132,-28,-10,-9
6427.798,308,-216,16384,-2132,-28,-10,-9
6430.2339999999995,308,-220,16376,-2132,44,-38,-6
6432.754,308,-220,16376,-2132,44,-38,-6
6435.7699999999995,308,-220,16376,-2132,44,-38,-6
6437.687000000001,308,-220,16376,-2132,44,-38,-6
6442.521,308,-220,16376,-2132,44,-38,-6
6444.554,307,-220,16376,-2132,44,-38,-6
6445.592000000001,307,-220,16376,-2132,44,-38,-6
6447.885,307,-232,16404,-2124,-72,-51,-3
6451.553,308,-232,16404,-2124,-72,-51,-3
6457.304,308,-232,16404,-2124,-72,-51,-3
6457.304,308,-232,16404,-2124,-72,-51,-3
6460.392,308,-232,16404,-2124,-72,-51,-3
6465.535,308,-232,16404,-2124,-72,-51,-3
6465.535,309,-232,16404,-2124,-72,-51,-3
6465.535,308,-244,16348,-2132,-79,-36,-19
6470.9039999999995,308,-244,16348,-2132,-79,-36,-19
6470.9039999999995,308,-244,16348,-2132,-79,-36,-19
6477.498,308,-244,16348,-2132,-79,-36,-19
6479.237,309,-244,16348,-2132,-79,-36,-19
6479.237,308,-244,16348,-2132,-79,-36,-19
6479.237,308,-244,16348,-2132,-79,-36,-19
6489.545,308,-196,16376,-2120,23,-35,-1
6493.561,308,-196,16376,-2120,23,-35,-1
6495.57,307,-196,16376,-2120,23,-35,-1
6498.317,308,-196,16376,-2120,23,-35,-1
6498.317,308,-196,16376,-2120,23,-35,-1
6498.317,309,-196,16376,-2120,23,-35,-1
6506.482,308,-196,16376,-2120,23,-35,-1
6510.6,307,-204,16368,-2160,-20,-48,-4
6512.11,307,-204,16368,-2160,-20,-48,-4
6515.2429999999995,307,-204,16368,-2160,-20,-48,-4
6515.2429999999995,307,-204,16368,-2160,-20,-48,-4
6522.855,307,-204,16368,-2160,-20,-48,-4
6522.855,307,-204,16368,-2160,-20,-48,-4
6527.174,307,-204,16368,-2160,-20,-48,-4
6531.013,307,-212,16356,-2136,-114,-48,5
6531.013,308,-212,16356,-2136,-114,-48,5
6531.013,308,-212,16356,-2136,-114,-48,5
6539.266,308,-212,16356,-2136,-114,-48,5
6539.266,308,-212,16356,-2136,-114,-48,5
6543.86,308,-212,16356,-2136,-114,-48,5
6546.997,308,-212,16356,-2136,-114,-48,5
6546.997,308,-176,16360,-2092,5,-26,-16
6546.997,308,-176,16360,-2092,5,-26,-16
6553.295999999999,307,-176,16360,-2092,5,-26,-16
6553.295999999999,308,-176,16360,-2092,5,-26,-16
6560.517,308,-176,16360,-2092,5,-26,-16
6563.803,308,-176,16360,-2092,5,-26,-16
6563.803,308,-176,16360,-2092,5,-26,-16
6563.803,308,-176,16360,-2092,5,-26,-16
6572.046,308,-228,16384,-2180,34,-39,-8
6572.046,307,-228,16384,-2180,34,-39,-8
6577.171,308,-228,16384,-2180,34,-39,-8
6580.2339999999995,307,-228,16384,-2180,34,-39,-8
6583.342,308,-228,16384,-2180,34,-39,-8
6583.342,308,-228,16384,-2180,34,-39,-8
6588.3859999999995,307,-228,16384,-2180,34,-39,-8
6592.0779999999995,307,-208,16320,-2132,-106,-35,-18
6593.8369999999995,306,-208,16320,-2132,-106,-35,-18
6596.4710000000005,307,-208,16320,-2132,-106,-35,-18
6596.4710000000005,307,-208,16320,-2132,-106,-35,-18
6602.875,307,-208,16320,-2132,-106,-35,-18
6602.875,307,-208,16320,-2132,-106,-35,-18
6602.875,307,-208,16320,-2132,-106,-35,-18
6612.946,308,-212,16360,-2144,-46,-38,-15
6612.946,307,-212,16360,-2144,-46,-38,-15
6617.064,308,-212,16360,-2144,-46,-38,-15
6621.158,308,-212,16360,-2144,-46,-38,-15
6624.386,307,-212,16360,-2144,-46,-38,-15
6628.381,307,-212,16360,-2144,-46,-38,-15
6628.381,307,-244,16344,-2108,46,-38,-8
6633.449,307,-244,16344,-2108,46,-38,-8
6633.449,307,-244,16344,-2108,46,-38,-8
6637.506,308,-244,16344,-2108,46,-38,-8
6641.446,308,-244,16344,-2108,46,-38,-8
6643.484,309,-244,16344,-2108,46,-38,-8
6645.493,308,-244,16344,-2108,46,-38,-8
6648.802,308,-244,16344,-2108,46,-38,-8
6648.802,308,-204,16332,-2140,-92,-37,6
6653.943,308,-204,16332,-2140,-92,-37,6
6657.952,308,-204,16332,-2140,-92,-37,6
6657.952,309,-204,16332,-2140,-92,-37,6
6662.751,309,-204,16332,-2140,-92,-37,6
6664.23,308,-204,16332,-2140,-92,-37,6
6664.23,307,-204,16332,-2140,-92,-37,6
6670.26,308,-204,16332,-2136,-93,-41,-12
6673.241,307,-204,16332,-2136,-93,-41,-12
6676.274,308,-204,16332,-2136,-93,-41,-12
6676.274,308,-204,16332,-2136,-93,-41,-12
6676.274,307,-204,16332,-2136,-93,-41,-12
6686.636,307,-204,16332,-2136,-93,-41,-12
6686.636,307,-204,16332,-2136,-93,-41,-12
6686.636,307,-248,16356,-2104,42,-40,1
6694.665,308,-248,16356,-2104,42,-40,1
6696.273,308,-248,16356,-2104,42,-40,1
6697.468,308,-248,16356,-2104,42,-40,1
6702.06,308,-248,16356,-2104,42,-40,1
6704.627,308,-248,16356,-2104,42,-40,1
6704.627,307,-248,16356,-2104,42,-40,1
6710.919,307,-176,16348,-2164,-47,-38,-19
6710.919,308,-176,16348,-2164,-47,-38,-19
6715.392,308,-176,16348,-2164,-47,-38,-19
6719.446,308,-176,16348,-2164,-47,-38,-19
6719.446,308,-176,16348,-2164,-47,-38,-19
6719.446,307,-176,16348,-2164,-47,-38,-19
6725.575,307,-176,16348,-2164,-47,-38,-19
6725.575,306,-236,16380,-2144,-95,-35,-1
6725.575,307,-236,16380,-2144,-95,-35,-1
6735.769,308,-236,16380,-2144,-95,-35,-1
6739.080999999999,309,-236,16380,-2144,-95,-35,-1
6739.080999999999,308,-236,16380,-2144,-95,-35,-1
6742.112,308,-236,16380,-2144,-95,-35,-1
6745.634,307,-236,16380,-2144,-95,-35,-1
6745.634,307,-180,16364,-2116,3,-33,-12
6752.469999999999,307,-180,16364,-2116,3,-33,-12
6756.353,308,-180,16364,-2116,3,-33,-12
6756.353,308,-180,16364,-2116,3,-33,-12
6758.6630000000005,308,-180,16364,-2116,3,-33,-12
6762.008,308,-180,16364,-2116,3,-33,-12
6766.713000000001,308,-180,16364,-2116,3,-33,-12
6766.713000000001,307,-180,16364,-2116,3,-33,-12
6766.713000000001,307,-232,16324,-2132,-29,-28,-9
6777.046,308,-232,16324,-2132,-29,-28,-9
6777.046,307,-232,16324,-2132,-29,-28,-9
6777.046,308,-232,16324,-2132,-29,-28,-9
6785.024,308,-232,16324,-2132,-29,-28,-9
6785.024,308,-232,16324,-2132,-29,-28,-9
6788.437,307,-232,16324,-2132,-29,-28,-9
6791.728,308,-160,16348,-2116,-91,-42,-17
6794.326,307,-160,16348,-2116,-91,-42,-17
6794.326,307,-160,16348,-2116,-91,-42,-17
6801.387,307,-160,16348,-2116,-91,-42,-17
6801.387,307,-160,16348,-2116,-91,-42,-17
6801.387,307,-160,16348,-2116,-91,-42,-17
6809.224999999999,307,-160,16348,-2116,-91,-42,-17
6813.691000000001,307,-244,16380,-2128,-2,-38,-13
6813.691000000001,307,-244,16380,-2128,-2,-38,-13
6816.715,308,-244,16380,-2128,-2,-38,-13
6816.715,307,-244,16380,-2128,-2,-38,-13
6816.715,308,-244,16380,-2128,-2,-38,-13
6825.040999999999,308,-244,16380,-2128,-2,-38,-13
6829.58,307,-244,16380,-2128,-2,-38,-13
6833.112,307,-196,16316,-2132,9,-55,-9
6833.112,307,-196,16316,-2132,9,-55,-9
6833.112,307,-196,16316,-2132,9,-55,-9
6833.112,307,-196,16316,-2132,9,-55,-9
6841.281,308,-196,16316,-2132,9,-55,-9
6846.335,308,-196,16316,-2132,9,-55,-9
6846.335,308,-196,16316,-2132,9,-55,-9
6850.572999999999,307,-196,16308,-2188,-97,-34,3
6850.572999999999,307,-196,16308,-2188,-97,-34,3
6850.572999999999,307,-196,16308,-2188,-97,-34,3
6858.745,308,-196,16308,-2188,-97,-34,3
6860.7570000000005,307,-196,16308,-2188,-97,-34,3
6863.428,307,-196,16308,-2188,-97,-34,3
6866.925,307,-196,16308,-2188,-97,-34,3
6868.045999999999,307,-252,16376,-2100,-31,-53,4
6868.045999999999,308,-252,16376,-2100,-31,-53,4
6875.067,308,-252,16376,-2100,-31,-53,4
6877.077,307,-252,16376,-2100,-31,-53,4
6882.876,307,-252,16376,-2100,-31,-53,4
6883.755,307,-252,16376,-2100,-31,-53,4
6885.7609999999995,307,-252,16376,-2100,-31,-53,4
6890.450000000001,307,-252,16376,-2100,-31,-53,4
6890.450000000001,307,-224,16348,-2148,7,-11,-16
6894.701,307,-224,16348,-2148,7,-11,-16
6898.441,307,-224,16348,-2148,7,-11,-16
6898.441,307,-224,16348,-2148,7,-11,-16
6901.638,308,-224,16348,-2148,7,-11,-16
6906.869000000001,308,-224,16348,-2148,7,-11,-16
6907.8099999999995,307,-224,16348,-2148,7,-11,-16
6911.554,308,-208,16332,-2136,-68,-39,-22
6914.917,308,-208,16332,-2136,-68,-39,-22
6916.196,308,-208,16332,-2136,-68,-39,-22
6916.974999999999,309,-208,16332,-2136,-68,-39,-22
6923.348,309,-208,16332,-2136,-68,-39,-22
6927.601000000001,308,-208,16332,-2136,-68,-39,-22
6927.601000000001,307,-208,16332,-2136,-68,-39,-22
6932.45,308,-188,16328,-2092,-31,-35,-10
6936.568,308,-188,16328,-2092,-31,-35,-10
6936.568,308,-188,16328,-2092,-31,-35,-10
6940.126,308,-188,16328,-2092,-31,-35,-10
6943.978,307,-188,16328,-2092,-31,-35,-10
6948.512,307,-188,16328,-2092,-31,-35,-10
6949.407,306,-188,16328,-2092,-31,-35,-10
6949.407,307,-240,16372,-2116,13,-23,-18
6956.795,307,-240,16372,-2116,13,-23,-18
6956.795,307,-240,16372,-2116,13,-23,-18
6960.527,308,-240,16372,-2116,13,-23,-18
6965.268,308,-240,16372,-2116,13,-23,-18
6966.236999999999,306,-240,16372,-2116,13,-23,-18
6969.64,306,-240,16372,-2116,13,-23,-18
6973.75,307,-172,16364,-2188,-56,-43,-14
6973.75,308,-172,16364,-2188,-56,-43,-14
6973.75,307,-172,16364,-2188,-56,-43,-14
6981.778,308,-172,16364,-2188,-56,-43,-14
6985.691,307,-172,16364,-2188,-56,-43,-14
6985.691,307,-172,16364,-2188,-56,-43,-14
6989.831999999999,307,-252,16396,-2112,-70,-22,-15
6989.831999999999,307,-252,16396,-2112,-70,-22,-15
6998.022,307,-252,16396,-2112,-70,-22,-15
6998.022,308,-252,16396,-2112,-70,-22,-15
7002.096,307,-252,16396,-2112,-70,-22,-15
7005.979,307,-252,16396,-2112,-70,-22,-15
7005.979,308,-252,16396,-2112,-70,-22,-15
7011.559,307,-152,16368,-2168,14,-35,-6
7013.567,307,-152,16368,-2168,14,-35,-6
7014.704,307,-152,16368,-2168,14,-35,-6
7018.167,308,-152,16368,-2168,14,-35,-6
7021.925,307,-152,16368,-2168,14,-35,-6
7021.925,308,-152,16368,-2168,14,-35,-6
7025.939,306,-152,16368,-2168,14,-35,-6
7030.336,306,-152,16368,-2168,14,-35,-6
7036.526,307,-176,16352,-2148,-66,-39,-17
7038.275,307,-176,16352,-2148,-66,-39,-17
7038.275,308,-176,16352,-2148,-66,-39,-17
7042.29,308,-176,16352,-2148,-66,-39,-17
7044.487,308,-176,16352,-2148,-66,-39,-17
7046.495,308,-176,16352,-2148,-66,-39,-17
7050.509,308,-176,16352,-2148,-66,-39,-17
7050.509,308,-168,16396,-2124,-57,-49,-11
7054.558,308,-168,16396,-2124,-57,-49,-11
7058.4619999999995,308,-168,16396,-2124,-57,-49,-11
7062.486,309,-168,16396,-2124,-57,-49,-11
7062.486,308,-168,16396,-2124,-57,-49,-11
7067.589,307,-168,16396,-2124,-57,-49,-11
7070.666,307,-236,16380,-2144,17,-48,-9
7072.191,308,-236,16380,-2144,17,-48,-9
7076.196000000001,308,-236,16380,-2144,17,-48,-9
7078.281,308,-236,16380,-2144,17,-48,-9
7078.281,308,-236,16380,-2144,17,-48,-9
7078.281,308,-236,16380,-2144,17,-48,-9
7086.808999999999,307,-236,16380,-2144,17,-48,-9
7086.808999999999,308,-236,16380,-2144,17,-48,-9
7086.808999999999,308,-180,16348,-2120,-25,-49,-3
7096.165,308,-180,16348,-2120,-25,-49,-3
7097.004,308,-180,16348,-2120,-25,-49,-3
7097.004,308,-180,16348,-2120,-25,-49,-3
7103.641,308,-180,16348,-2120,-25,-49,-3
7103.641,307,-180,16348,-2120,-25,-49,-3
7110.288,307,-180,16348,-2120,-25,-49,-3
7111.878,307,-220,16336,-2088,-108,-49,-15
7111.878,307,-220,16336,-2088,-108,-49,-15
7111.878,308,-220,16336,-2088,-108,-49,-15
7120.001,307,-220,16336,-2088,-108,-49,-15
7120.001,307,-220,16336,-2088,-108,-49,-15
7128.548000000001,306,-220,16336,-2088,-108,-49,-15
7128.548000000001,307,-200,16396,-2108,1,-21,-15
7131.642,307,-200,16396,-2108,1,-21,-15
7136.756,307,-200,16396,-2108,1,-21,-15
7136.756,308,-200,16396,-2108,1,-21,-15
7136.756,308,-200,16396,-2108,1,-21,-15
7145.196,307,-200,16396,-2108,1,-21,-15
7145.196,307,-200,16396,-2108,1,-21,-15
7148.139999999999,307,-200,16396,-2108,1,-21,-15
7153.681,307,-204,16372,-2160,-8,-43,-12
7153.681,307,-204,16372,-2160,-8,-43,-12
7153.681,308,-204,16372,-2160,-8,-43,-12
7161.788,307,-204,16372,-2160,-8,-43,-12
7165.7789999999995,307,-204,16372,-2160,-8,-43,-12
7167.429,306,-204,16372,-2160,-8,-43,-12
7169.815,307,-204,16372,-2160,-8,-43,-12
7169.815,308,-220,16304,-2156,-82,-41,9
7176.217000000001,308,-220,16304,-2156,-82,-41,9
7178.153,308,-220,16304,-2156,-82,-41,9
7178.153,308,-220,16304,-2156,-82,-41,9
7178.153,308,-220,16304,-2156,-82,-41,9
7186.317,307,-220,16304,-2156,-82,-41,9
7187.624,307,-220,16304,-2156,-82,-41,9
7193.731,307,-220,16396,-2100,-13,-41,8
7194.839,308,-220,16396,-2100,-13,-41,8
7194.839,307,-220,16396,-2100,-13,-41,8
7194.839,308,-220,16396,-2100,-13,-41,8
7203.027999999999,307,-220,16396,-2100,-13,-41,8
7206.891,307,-220,16396,-2100,-13,-41,8
7209.11,307,-220,16396,-2100,-13,-41,8
7211.364,307,-232,16340,-2184,-11,-31,-5
7215.531,308,-232,16340,-2184,-11,-31,-5
7215.531,307,-232,16340,-2184,-11,-31,-5
7219.658,308,-232,16340,-2184,-11,-31,-5
7223.246999999999,308,-232,16340,-2184,-11,-31,-5
7223.246999999999,307,-232,16340,-2184,-11,-31,-5
7227.802,307,-232,16340,-2184,-11,-31,-5
7227.802,307,-236,16332,-2132,-86,-24,-16
7227.802,307,-236,16332,-2132,-86,-24,-16
7236.0740000000005,308,-236,16332,-2132,-86,-24,-16
7236.0740000000005,307,-236,16332,-2132,-86,-24,-16
7243.224999999999,307,-236,16332,-2132,-86,-24,-16
7244.32,307,-236,16332,-2132,-86,-24,-16
7244.32,307,-236,16332,-2132,-86,-24,-16
7252.383,307,-192,16380,-2088,-14,-27,-14
7256.019,307,-192,16380,-2088,-14,-27,-14
7256.019,307,-192,16380,-2088,-14,-27,-14
7260.554,307,-192,16380,-2088,-14,-27,-14
7260.554,306,-192,16380,-2088,-14,-27,-14
7260.554,306,-192,16380,-2088,-14,-27,-14
7268.799999999999,307,-192,16380,-2088,-14,-27,-14
7268.799999999999,306,-224,16428,-2132,-9,-44,-2
7275.713,307,-224,16428,-2132,-9,-44,-2
7277.32,307,-224,16428,-2132,-9,-44,-2
7277.32,307,-224,16428,-2132,-9,-44,-2
7277.32,307,-224,16428,-2132,-9,-44,-2
7286.368,306,-224,16428,-2132,-9,-44,-2
7287.413,306,-224,16428,-2132,-9,-44,-2
7287.413,307,-232,16348,-2188,-88,-23,-26
7293.597,308,-232,16348,-2188,-88,-23,-26
7293.597,307,-232,16348,-2188,-88,-23,-26
7293.597,307,-232,16348,-2188,-88,-23,-26
7303.429999999999,307,-232,16348,-2188,-88,-23,-26
7303.429999999999,307,-232,16348,-2188,-88,-23,-26
7309.446999999999,307,-232,16348,-2188,-88,-23,-26
7312.057000000001,307,-212,16368,-2096,-45,-18,-7
7312.057000000001,307,-212,16368,-2096,-45,-18,-7
7312.057000000001,306,-212,16368,-2096,-45,-18,-7
7321.55,307,-212,16368,-2096,-45,-18,-7
7321.55,307,-212,16368,-2096,-45,-18,-7
7326.781000000001,306,-212,16368,-2096,-45,-18,-7
7326.781000000001,306,-212,16368,-2096,-45,-18,-7
7330.515,307,-208,16340,-2128,46,-27,-6
7334.967,308,-208,16340,-2128,46,-27,-6
7334.967,308,-208,16340,-2128,46,-27,-6
7334.967,308,-208,16340,-2128,46,-27,-6
7343.098999999999,308,-208,16340,-2128,46,-27,-6
7345.121,307,-208,16340,-2128,46,-27,-6
7348.719,306,-208,16340,-2128,46,-27,-6
7352.192999999999,306,-212,16340,-2152,-74,-56,-1
7352.192999999999,307,-212,16340,-2152,-74,-56,-1
7357.892,308,-212,16340,-2152,-74,-56,-1
7360.3589999999995,308,-212,16340,-2152,-74,-56,-1
7360.3589999999995,309,-212,16340,-2152,-74,-56,-1
7360.3589999999995,308,-212,16340,-2152,-74,-56,-1
7368.59,307,-212,16340,-2152,-74,-56,-1
7371.314,307,-212,16340,-2152,-74,-56,-1
7375.558,308,-208,16392,-2152,-45,-49,-13
7375.558,306,-208,16392,-2152,-45,-49,-13
7375.558,307,-208,16392,-2152,-45,-49,-13
7375.558,307,-208,16392,-2152,-45,-49,-13
7383.799,307,-208,16392,-2152,-45,-49,-13
7383.799,307,-208,16392,-2152,-45,-49,-13
7392.278,306,-260,16332,-2144,10,-37,-13
7392.932,308,-260,16332,-2144,10,-37,-13
7392.932,307,-260,16332,-2144,10,-37,-13
7392.932,307,-260,16332,-2144,10,-37,-13
7402.494,308,-260,16332,-2144,10,-37,-13
7406.51,308,-260,16332,-2144,10,-37,-13
7408.521000000001,307,-260,16332,-2144,10,-37,-13
7412.153,307,-264,16344,-2144,-69,-38,2
7412.731,308,-264,16344,-2144,-69,-38,2
7417.406,308,-264,16344,-2144,-69,-38,2
7417.406,308,-264,16344,-2144,-69,-38,2
7422.432,308,-264,16344,-2144,-69,-38,2
7426.275000000001,308,-264,16344,-2144,-69,-38,2
7426.687,308,-264,16344,-2144,-69,-38,2
7426.687,307,-264,16344,-2144,-69,-38,2
7432.704000000001,308,-200,16364,-2096,-58,-34,-18
7432.704000000001,308,-200,16364,-2096,-58,-34,-18
7439.148999999999,308,-200,16364,-2096,-58,-34,-18
7440.9039999999995,308,-200,16364,-2096,-58,-34,-18
7440.9039999999995,308,-200,16364,-2096,-58,-34,-18
7449.295,307,-200,16364,-2096,-58,-34,-18
7452.694,307,-200,16364,-2096,-58,-34,-18
7453.7880000000005,307,-224,16372,-2128,19,-24,-16
7457.392,308,-224,16372,-2128,19,-24,-16
7457.392,308,-224,16372,-2128,19,-24,-16
7461.894,307,-224,16372,-2128,19,-24,-16
7465.671,307,-224,16372,-2128,19,-24,-16
7465.671,307,-224,16372,-2128,19,-24,-16
7465.671,308,-224,16372,-2128,19,-24,-16
7474.4130000000005,307,-204,16380,-2172,-29,-54,11
7477.9710000000005,308,-204,16380,-2172,-29,-54,11
7481.078,307,-204,16380,-2172,-29,-54,11
7483.360000000001,307,-204,16380,-2172,-29,-54,11
7484.072,307,-204,16380,-2172,-29,-54,11
7488.011,307,-204,16380,-2172,-29,-54,11
7490.373,307,-204,16380,-2172,-29,-54,11
7494.42,307,-184,16388,-2152,-85,-36,0
7497.248,307,-184,16388,-2152,-85,-36,0
7498.781,307,-184,16388,-2152,-85,-36,0
7501.633,307,-184,16388,-2152,-85,-36,0
7501.633,308,-184,16388,-2152,-85,-36,0
7506.832,307,-184,16388,-2152,-85,-36,0
7509.688999999999,307,-184,16388,-2152,-85,-36,0
7512.303,307,-172,16388,-2084,-16,-50,-9
7515.79,307,-172,16388,-2084,-16,-50,-9
7515.79,307,-172,16388,-2084,-16,-50,-9
7515.79,307,-172,16388,-2084,-16,-50,-9
7523.1539999999995,307,-172,16388,-2084,-16,-50,-9
7527.047,306,-172,16388,-2084,-16,-50,-9
7527.047,307,-172,16388,-2084,-16,-50,-9
7534.541,306,-292,16364,-2124,2,-41,-6
7534.541,306,-292,16364,-2124,2,-41,-6
7534.541,307,-292,16364,-2124,2,-41,-6
7539.603999999999,307,-292,16364,-2124,2,-41,-6
7543.609,307,-292,16364,-2124,2,-41,-6
7543.609,306,-292,16364,-2124,2,-41,-6
7547.6720000000005,306,-292,16364,-2124,2,-41,-6
7547.6720000000005,305,-292,16364,-2124,2,-41,-6
7547.6720000000005,306,-232,16368,-2144,-48,-48,10
7556.056,307,-232,16368,-2144,-48,-48,10
7556.056,306,-232,16368,-2144,-48,-48,10
7564.082,307,-232,16368,-2144,-48,-48,10
7564.082,306,-232,16368,-2144,-48,-48,10
7564.082,306,-232,16368,-2144,-48,-48,10
7572.24,306,-232,16368,-2144,-48,-48,10
7572.24,307,-232,16324,-2148,-25,-17,6
7576.837,308,-232,16324,-2148,-25,-17,6
7580.446,307,-232,16324,-2148,-25,-17,6
7580.446,308,-232,16324,-2148,-25,-17,6
7580.446,307,-232,16324,-2148,-25,-17,6
7586.2429999999995,306,-232,16324,-2148,-25,-17,6
7588.829,306,-232,16324,-2148,-25,-17,6
7593.457,306,-220,16408,-2136,-38,-43,-13
7596.848,306,-220,16408,-2136,-38,-43,-13
7599.663,307,-220,16408,-2136,-38,-43,-13
7599.663,306,-220,16408,-2136,-38,-43,-13
7605.012000000001,307,-220,16408,-2136,-38,-43,-13
7605.012000000001,307,-220,16408,-2136,-38,-43,-13
7613.245,306,-220,16408,-2136,-38,-43,-13
7613.245,307,-196,16396,-2104,-33,-30,-2
7616.29,307,-196,16396,-2104,-33,-30,-2
7616.29,307,-196,16396,-2104,-33,-30,-2
7622.263,306,-196,16396,-2104,-33,-30,-2
7622.263,306,-196,16396,-2104,-33,-30,-2
7628.898,306,-196,16396,-2104,-33,-30,-2
7629.914000000001,306,-196,16396,-2104,-33,-30,-2
7629.914000000001,306,-204,16328,-2100,-63,-35,-3
7629.914000000001,306,-204,16328,-2100,-63,-35,-3
7637.964,306,-204,16328,-2100,-63,-35,-3
7637.964,306,-204,16328,-2100,-63,-35,-3
7646.038,306,-204,16328,-2100,-63,-35,-3
7649.06,306,-204,16328,-2100,-63,-35,-3
7649.06,307,-204,16328,-2100,-63,-35,-3
7649.06,307,-268,16328,-2164,-24,-29,-24
7655.070000000001,307,-268,16328,-2164,-24,-29,-24
7659.269,307,-268,16328,-2164,-24,-29,-24
7662.311,307,-268,16328,-2164,-24,-29,-24
7665.7029999999995,308,-268,16328,-2164,-24,-29,-24
7669.632,307,-268,16328,-2164,-24,-29,-24
7670.644,306,-268,16328,-2164,-24,-29,-24
7670.644,308,-204,16348,-2152,-61,-36,-10
7677.176,307,-204,16348,-2152,-61,-36,-10
7678.912,307,-204,16348,-2152,-61,-36,-10
7678.912,307,-204,16348,-2152,-61,-36,-10
7685.281,306,-204,16348,-2152,-61,-36,-10
7689.991,307,-204,16348,-2152,-61,-36,-10
7689.991,307,-204,16348,-2152,-61,-36,-10
7692.905,306,-244,16352,-2108,-46,-43,-15
7697.813,307,-244,16352,-2108,-46,-43,-15
7697.813,307,-244,16352,-2108,-46,-43,-15
7703.108,307,-244,16352,-2108,-46,-43,-15
7703.108,306,-244,16352,-2108,-46,-43,-15
7703.108,306,-244,16352,-2108,-46,-43,-15
7711.456,307,-244,16312,-2096,-42,-33,-19
7712.465,307,-244,16312,-2096,-42,-33,-19
7712.465,307,-244,16312,-2096,-42,-33,-19
7719.865000000001,307,-244,16312,-2096,-42,-33,-19
7719.865000000001,307,-244,16312,-2096,-42,-33,-19
7726.581,307,-244,16312,-2096,-42,-33,-19
7728.495,306,-244,16312,-2096,-42,-33,-19
7728.495,306,-184,16352,-2172,-52,-37,-3
7728.495,306,-184,16352,-2172,-52,-37,-3
7737.887,307,-184,16352,-2172,-52,-37,-3
7739.9,307,-184,16352,-2172,-52,-37,-3
7743.258,307,-184,16352,-2172,-52,-37,-3
7745.063,307,-184,16352,-2172,-52,-37,-3
7745.063,307,-184,16352,-2172,-52,-37,-3
7753.318,307,-228,16316,-2076,-31,-39,-18
7753.318,306,-228,16316,-2076,-31,-39,-18
7753.318,307,-228,16316,-2076,-31,-39,-18
7761.860000000001,308,-228,16316,-2076,-31,-39,-18
7764.053,307,-228,16316,-2076,-31,-39,-18
7764.9400000000005,307,-228,16316,-2076,-31,-39,-18
7770.874,306,-228,16316,-2076,-31,-39,-18
7770.874,307,-168,16344,-2088,-32,-40,-5
7770.874,307,-168,16344,-2088,-32,-40,-5
7778.317999999999,306,-168,16344,-2088,-32,-40,-5
7778.317999999999,307,-168,16344,-2088,-32,-40,-5
7778.317999999999,307,-168,16344,-2088,-32,-40,-5
7786.778,306,-168,16344,-2088,-32,-40,-5
7786.778,306,-168,16344,-2088,-32,-40,-5
7786.778,307,-236,16356,-2128,-11,-46,-11
7796.665,307,-236,16356,-2128,-11,-46,-11
7797.6089999999995,307,-236,16356,-2128,-11,-46,-11
7797.6089999999995,308,-236,16356,-2128,-11,-46,-11
7805.011,307,-236,16356,-2128,-11,-46,-11
7805.011,306,-236,16356,-2128,-11,-46,-11
7812.582,306,-236,16356,-2128,-11,-46,-11
7812.582,306,-200,16368,-2132,-52,-40,-14
7815.967,307,-200,16368,-2132,-52,-40,-14
7819.734,308,-200,16368,-2132,-52,-40,-14
7821.744,306,-200,16368,-2132,-52,-40,-14
7825.762,307,-200,16368,-2132,-52,-40,-14
7827.363,307,-200,16368,-2132,-52,-40,-14
7827.363,306,-200,16368,-2132,-52,-40,-14
7827.363,306,-236,16340,-2116,-62,-32,-21
7835.615,307,-236,16340,-2116,-62,-32,-21
7835.615,307,-236,16340,-2116,-62,-32,-21
7835.615,307,-236,16340,-2116,-62,-32,-21
7845.928,307,-236,16340,-2116,-62,-32,-21
7847.704000000001,306,-236,16340,-2116,-62,-32,-21
7847.704000000001,306,-236,16340,-2116,-62,-32,-21
7852.019,307,-244,16408,-2124,-44,-53,2
7852.019,307,-244,16408,-2124,-44,-53,2
7859.793,307,-244,16408,-2124,-44,-53,2
7861.93,308,-244,16408,-2124,-44,-53,2
7866.321,307,-244,16408,-2124,-44,-53,2
7866.321,307,-244,16408,-2124,-44,-53,2
7871.416,308,-244,16408,-2124,-44,-53,2
7871.416,308,-224,16332,-2160,2,-30,-22
7876.365,308,-224,16332,-2160,2,-30,-22
7876.365,308,-224,16332,-2160,2,-30,-22
7882.195000000001,307,-224,16332,-2160,2,-30,-22
7882.195000000001,308,-224,16332,-2160,2,-30,-22
7884.204000000001,307,-224,16332,-2160,2,-30,-22
7884.204000000001,308,-224,16332,-2160,2,-30,-22
7892.698,308,-264,16336,-2144,-51,-41,-16
7892.698,307,-264,16336,-2144,-51,-41,-16
7892.698,307,-264,16336,-2144,-51,-41,-16
7903.076999999999,307,-264,16336,-2144,-51,-41,-16
7903.076999999999,307,-264,16336,-2144,-51,-41,-16
7903.076999999999,307,-264,16336,-2144,-51,-41,-16
7909.404,307,-264,16336,-2144,-51,-41,-16
7909.404,307,-196,16320,-2112,-90,-50,2
7914.371,307,-196,16320,-2112,-90,-50,2
7919.481,307,-196,16320,-2112,-90,-50,2
7920.505999999999,307,-196,16320,-2112,-90,-50,2
7923.558,308,-196,16320,-2112,-90,-50,2
7926.999000000001,308,-196,16320,-2112,-90,-50,2
7929.192,307,-196,16320,-2112,-90,-50,2
7929.192,307,-196,16336,-2068,14,-48,-17
7935.973,307,-196,16336,-2068,14,-48,-17
7937.441,307,-196,16336,-2068,14,-48,-17
7937.441,307,-196,16336,-2068,14,-48,-17
7942.700000000001,307,-196,16336,-2068,14,-48,-17
7942.700000000001,307,-196,16336,-2068,14,-48,-17
7949.101,308,-196,16336,-2068,14,-48,-17
7949.101,308,-224,16360,-2156,-24,-43,-19
7949.101,309,-224,16360,-2156,-24,-43,-19
7957.6089999999995,309,-224,16360,-2156,-24,-43,-19
7961.218,308,-224,16360,-2156,-24,-43,-19
7964.637,308,-224,16360,-2156,-24,-43,-19
7965.618,308,-224,16360,-2156,-24,-43,-19
7965.618,308,-224,16360,-2156,-24,-43,-19
7965.618,308,-228,16376,-2104,-109,-42,-21
7976.885,308,-228,16376,-2104,-109,-42,-21
7976.885,309,-228,16376,-2104,-109,-42,-21
7981.849,309,-228,16376,-2104,-109,-42,-21
7985.105,307,-228,16376,-2104,-109,-42,-21
7985.105,307,-228,16376,-2104,-109,-42,-21
7993.1630000000005,307,-228,16376,-2104,-109,-42,-21
7993.1630000000005,308,-240,16372,-2080,14,-26,-4
7993.1630000000005,308,-240,16372,-2080,14,-26,-4
8001.488,308,-240,16372,-2080,14,-26,-4
8001.488,309,-240,16372,-2080,14,-26,-4
8001.488,308,-240,16372,-2080,14,-26,-4
8009.219,307,-240,16372,-2080,14,-26,-4
8011.233000000001,307,-240,16372,-2080,14,-26,-4
8014.058,309,-196,16372,-2132,21,-41,-22
8016.578,308,-196,16372,-2132,21,-41,-22
8019.226,309,-196,16372,-2132,21,-41,-22
8022.973,308,-196,16372,-2132,21,-41,-22
8025.734,308,-196,16372,-2132,21,-41,-22
8025.734,307,-196,16372,-2132,21,-41,-22
8029.076999999999,308,-196,16372,-2132,21,-41,-22
8033.8060000000005,308,-196,16332,-2132,-116,-42,-16
8035.977000000001,309,-196,16332,-2132,-116,-42,-16
8039.213999999999,308,-196,16332,-2132,-116,-42,-16
8043.0779999999995,308,-196,16332,-2132,-116,-42,-16
8044.218000000001,308,-196,16332,-2132,-116,-42,-16
8047.143,308,-196,16332,-2132,-116,-42,-16
8050.627,308,-196,16332,-2132,-116,-42,-16
8050.627,308,-200,16372,-2100,-51,-28,-6
8058.7300000000005,308,-200,16372,-2100,-51,-28,-6
8059.822999999999,308,-200,16372,-2100,-51,-28,-6
8059.822999999999,308,-200,16372,-2100,-51,-28,-6
8064.495000000001,309,-200,16372,-2100,-51,-28,-6
8064.495000000001,308,-200,16372,-2100,-51,-28,-6
8064.495000000001,308,-200,16372,-2100,-51,-28,-6
8075.263,309,-184,16352,-2140,41,-55,10
8075.263,308,-184,16352,-2140,41,-55,10
8079.962,309,-184,16352,-2140,41,-55,10
8079.962,308,-184,16352,-2140,41,-55,10
8079.962,308,-184,16352,-2140,41,-55,10
8088.043000000001,308,-184,16352,-2140,41,-55,10
8088.043000000001,307,-184,16352,-2140,41,-55,10
8093.450000000001,308,-224,16336,-2112,-84,-46,-9
8095.678,308,-224,16336,-2112,-84,-46,-9
8095.678,308,-224,16336,-2112,-84,-46,-9
8102.429000000001,309,-224,16336,-2112,-84,-46,-9
8104.277,309,-224,16336,-2112,-84,-46,-9
8104.277,308,-224,16336,-2112,-84,-46,-9
8109.883999999999,309,-224,16336,-2112,-84,-46,-9
8112.907999999999,308,-208,16372,-2104,-85,-54,-21
8112.907999999999,308,-208,16372,-2104,-85,-54,-21
8112.907999999999,309,-208,16372,-2104,-85,-54,-21
8123.112000000001,308,-208,16372,-2104,-85,-54,-21
8123.112000000001,308,-208,16372,-2104,-85,-54,-21
8129.094999999999,308,-208,16372,-2104,-85,-54,-21
8132.534,308,-208,16372,-2104,-85,-54,-21
8132.534,308,-216,16372,-2124,8,-25,-7
8135.414000000001,307,-216,16372,-2124,8,-25,-7
8137.271,308,-216,16372,-2124,8,-25,-7
8143.219,308,-216,16372,-2124,8,-25,-7
8145.740999999999,308,-216,16372,-2124,8,-25,-7
8148.932000000001,308,-216,16372,-2124,8,-25,-7
8148.932000000001,308,-216,16372,-2124,8,-25,-7
8148.932000000001,307,-216,16372,-2124,8,-25,-7
8155.958999999999,307,-276,16384,-2164,-71,-31,-19
8157.966,307,-276,16384,-2164,-71,-31,-19
8160.304999999999,307,-276,16384,-2164,-71,-31,-19
8162.061,308,-276,16384,-2164,-71,-31,-19
8162.061,307,-276,16384,-2164,-71,-31,-19
8170.291000000001,308,-276,16384,-2164,-71,-31,-19
8170.291000000001,308,-276,16384,-2164,-71,-31,-19
8176.577,308,-204,16272,-2132,-68,-48,9
8178.324,308,-204,16272,-2132,-68,-48,9
8178.324,309,-204,16272,-2132,-68,-48,9
8178.324,309,-204,16272,-2132,-68,-48,9
8186.436000000001,307,-204,16272,-2132,-68,-48,9
8189.901000000001,308,-204,16272,-2132,-68,-48,9
8189.901000000001,307,-204,16272,-2132,-68,-48,9
8194.592,308,-260,16428,-2168,17,-30,-1
8195.743,307,-260,16428,-2168,17,-30,-1
8195.743,309,-260,16428,-2168,17,-30,-1
8202.906,308,-260,16428,-2168,17,-30,-1
8202.906,308,-260,16428,-2168,17,-30,-1
8202.906,307,-260,16428,-2168,17,-30,-1
8210.804,308,-260,16428,-2168,17,-30,-1
8212.819,308,-224,16392,-2152,-53,-41,-1
8212.819,308,-224,16392,-2152,-53,-41,-1
8219.161,308,-224,16392,-2152,-53,-41,-1
8219.161,309,-224,16392,-2152,-53,-41,-1
8226.42,308,-224,16392,-2152,-53,-41,-1
8227.475999999999,308,-224,16392,-2152,-53,-41,-1
8227.475999999999,308,-224,16392,-2152,-53,-41,-1
8227.475999999999,307,-176,16324,-2116,-80,-45,-21
8239.051,307,-176,16324,-2116,-80,-45,-21
8239.051,307,-176,16324,-2116,-80,-45,-21
8242.984999999999,309,-176,16324,-2116,-80,-45,-21
8244.624,308,-176,16324,-2116,-80,-45,-21
8244.624,308,-176,16324,-2116,-80,-45,-21
8244.624,307,-176,16324,-2116,-80,-45,-21
8253.124,308,-276,16364,-2104,7,-37,-5
8253.124,309,-276,16364,-2104,7,-37,-5
8259.702000000001,308,-276,16364,-2104,7,-37,-5
8263.929,308,-276,16364,-2104,7,-37,-5
8263.929,307,-276,16364,-2104,7,-37,-5
8265.614,308,-276,16364,-2104,7,-37,-5
8271.988000000001,307,-276,16364,-2104,7,-37,-5
8272.58,308,-208,16396,-2124,-19,-37,-16
8272.58,308,-208,16396,-2124,-19,-37,-16
8277.795,308,-208,16396,-2124,-19,-37,-16
8277.795,308,-208,16396,-2124,-19,-37,-16
8285.953,308,-208,16396,-2124,-19,-37,-16
8285.953,308,-208,16396,-2124,-19,-37,-16
8285.953,307,-208,16396,-2124,-19,-37,-16
8294.085000000001,307,-208,16368,-2116,-115,-57,-20
8295.971,307,-208,16368,-2116,-115,-57,-20
8297.201,308,-208,16368,-2116,-115,-57,-20
8302.113000000001,308,-208,16368,-2116,-115,-57,-20
8302.113000000001,308,-208,16368,-2116,-115,-57,-20
8310.432,308,-208,16368,-2116,-115,-57,-20
8312.92,308,-208,16368,-2116,-115,-57,-20
8316.875,308,-200,16364,-2116,20,-37,-38
8318.51,308,-200,16364,-2116,20,-37,-38
8318.51,308,-200,16364,-2116,20,-37,-38
8322.592999999999,308,-200,16364,-2116,20,-37,-38
8326.933,308,-200,16364,-2116,20,-37,-38
8326.933,307,-200,16364,-2116,20,-37,-38
8326.933,307,-200,16364,-2116,20,-37,-38
8326.933,307,-216,16364,-2124,-12,-34,-18
8337.353000000001,307,-216,16364,-2124,-12,-34,-18
8337.353000000001,308,-216,16364,-2124,-12,-34,-18
8343.322,308,-216,16364,-2124,-12,-34,-18
8345.963,307,-216,16364,-2124,-12,-34,-18
8349.631000000001,307,-216,16364,-2124,-12,-34,-18
8353.712,307,-216,16364,-2124,-12,-34,-18
8353.712,308,-228,16328,-2140,-89,-34,-14
8353.712,307,-228,16328,-2140,-89,-34,-14
8361.095000000001,307,-228,16328,-2140,-89,-34,-14
8366.028999999999,307,-228,16328,-2140,-89,-34,-14
8366.028999999999,307,-228,16328,-2140,-89,-34,-14
8368.151,307,-228,16328,-2140,-89,-34,-14
8368.151,307,-228,16328,-2140,-89,-34,-14
8376.511,307,-264,16376,-2136,-45,-33,12
8376.511,308,-264,16376,-2136,-45,-33,12
8376.511,308,-264,16376,-2136,-45,-33,12
8376.511,307,-264,16376,-2136,-45,-33,12
8386.502999999999,307,-264,16376,-2136,-45,-33,12
8386.502999999999,307,-264,16376,-2136,-45,-33,12
8392.937,308,-264,16376,-2136,-45,-33,12
8394.955,308,-196,16400,-2108,47,-29,-9
8398.797999999999,308,-196,16400,-2108,47,-29,-9
8402.873,307,-196,16400,-2108,47,-29,-9
8402.873,308,-196,16400,-2108,47,-29,-9
8406.976999999999,308,-196,16400,-2108,47,-29,-9
8411.367,308,-196,16400,-2108,47,-29,-9
8411.367,307,-196,16400,-2108,47,-29,-9
8412.944,308,-212,16384,-2216,-68,-36,-14
8417.61,307,-212,16384,-2216,-68,-36,-14
8417.61,308,-212,16384,-2216,-68,-36,-14
8417.61,307,-212,16384,-2216,-68,-36,-14
8427.424,308,-212,16384,-2216,-68,-36,-14
8428.089,308,-212,16384,-2216,-68,-36,-14
8428.089,307,-212,16384,-2216,-68,-36,-14
8435.63,307,-244,16376,-2124,-55,-35,2
8435.63,308,-244,16376,-2124,-55,-35,2
8435.63,309,-244,16376,-2124,-55,-35,2
8443.439,308,-244,16376,-2124,-55,-35,2
8443.439,308,-244,16376,-2124,-55,-35,2
8443.439,307,-244,16376,-2124,-55,-35,2
8452.015,307,-244,16376,-2124,-55,-35,2
8452.015,308,-252,16376,-2112,18,-42,1
8452.015,308,-252,16376,-2112,18,-42,1
8460.293,308,-252,16376,-2112,18,-42,1
8462.306999999999,308,-252,16376,-2112,18,-42,1
8462.306999999999,308,-252,16376,-2112,18,-42,1
8466.419,307,-252,16376,-2112,18,-42,1
8466.419,307,-252,16376,-2112,18,-42,1
8466.419,307,-252,16376,-2112,18,-42,1
8476.784,308,-152,16376,-2172,-6,-44,-18
8480.059000000001,309,-152,16376,-2172,-6,-44,-18
8481.707999999999,309,-152,16376,-2172,-6,-44,-18
8483.815,308,-152,16376,-2172,-6,-44,-18
8483.815,308,-152,16376,-2172,-6,-44,-18
8483.815,307,-152,16376,-2172,-6,-44,-18
8494.079,308,-152,16376,-2172,-6,-44,-18
8495.294,308,-216,16332,-2136,-115,-67,-14
8499.359,308,-216,16332,-2136,-115,-67,-14
8499.359,308,-216,16332,-2136,-115,-67,-14
8499.359,307,-216,16332,-2136,-115,-67,-14
8509.617,308,-216,16332,-2136,-115,-67,-14
8511.063,308,-216,16332,-2136,-115,-67,-14
8513.923999999999,308,-196,16360,-2128,-9,-29,-8
8515.836,308,-196,16360,-2128,-9,-29,-8
8515.836,308,-196,16360,-2128,-9,-29,-8
8515.836,308,-196,16360,-2128,-9,-29,-8
8526.236,307,-196,16360,-2128,-9,-29,-8
8529.444,307,-196,16360,-2128,-9,-29,-8
8530.725999999999,308,-196,16360,-2128,-9,-29,-8
8534.114000000001,307,-196,16360,-2128,-9,-29,-8
8534.802000000001,308,-192,16380,-2148,2,-41,-22
8534.802000000001,308,-192,16380,-2148,2,-41,-22
8540.243999999999,307,-192,16380,-2148,2,-41,-22
8540.243999999999,307,-192,16380,-2148,2,-41,-22
8546.789999999999,307,-192,16380,-2148,2,-41,-22
8550.347,307,-192,16380,-2148,2,-41,-22
8554.312,307,-192,16380,-2148,2,-41,-22
8555.121,308,-228,16268,-2108,-103,-34,-11
8559.276,308,-228,16268,-2108,-103,-34,-11
8561.484999999999,307,-228,16268,-2108,-103,-34,-11
8563.507,307,-228,16268,-2108,-103,-34,-11
8566.67,307,-228,16268,-2108,-103,-34,-11
8566.67,307,-228,16268,-2108,-103,-34,-11
8575.116,307,-228,16268,-2108,-103,-34,-11
8576.286,307,-232,16404,-2072,-25,-56,4
8576.286,308,-232,16404,-2072,-25,-56,4
8576.286,308,-232,16404,-2072,-25,-56,4
8583.615,308,-232,16404,-2072,-25,-56,4
8583.615,308,-232,16404,-2072,-25,-56,4
8588.506000000001,307,-232,16404,-2072,-25,-56,4
8591.742999999999,307,-232,16404,-2072,-25,-56,4
8594.587000000001,308,-208,16344,-2148,13,-40,-13
8599.522,308,-208,16344,-2148,13,-40,-13
8599.522,308,-208,16344,-2148,13,-40,-13
8603.616,308,-208,16344,-2148,13,-40,-13
8607.872000000001,307,-208,16344,-2148,13,-40,-13
8609.887,307,-208,16344,-2148,13,-40,-13
8612.619,308,-208,16344,-2148,13,-40,-13
8616.326000000001,306,-220,16304,-2176,-83,-39,-20
8619.630000000001,308,-220,16304,-2176,-83,-39,-20
8621.064,308,-220,16304,-2176,-83,-39,-20
8624.384,307,-220,16304,-2176,-83,-39,-20
8626.395,307,-220,16304,-2176,-83,-39,-20
8631.563999999998,307,-220,16304,-2176,-83,-39,-20
8632.579,308,-220,16304,-2176,-83,-39,-20
8632.579,307,-184,16348,-2084,-52,-28,-18
8640.603000000001,308,-184,16348,-2084,-52,-28,-18
8640.603000000001,308,-184,16348,-2084,-52,-28,-18
8643.662,308,-184,16348,-2084,-52,-28,-18
8648.661,308,-184,16348,-2084,-52,-28,-18
8648.661,307,-184,16348,-2084,-52,-28,-18
8648.661,308,-184,16348,-2084,-52,-28,-18
8657.012999999999,308,-220,16356,-2144,21,-31,-1
8659.595,307,-220,16356,-2144,21,-31,-1
8661.659,306,-220,16356,-2144,21,-31,-1
8665.127,307,-220,16356,-2144,21,-31,-1
8665.933,308,-220,16356,-2144,21,-31,-1
8665.933,307,-220,16356,-2144,21,-31,-1
8673.15,307,-220,16356,-2144,21,-31,-1
8675.99,307,-148,16368,-2212,-42,-28,-25
8678.027,308,-148,16368,-2212,-42,-28,-25
8681.542,308,-148,16368,-2212,-42,-28,-25
8685.556999999999,307,-148,16368,-2212,-42,-28,-25
8689.57,308,-148,16368,-2212,-42,-28,-25
8689.57,307,-148,16368,-2212,-42,-28,-25
8692.421,307,-148,16368,-2212,-42,-28,-25
8697.234999999999,308,-248,16320,-2172,-84,-44,-20
8697.234999999999,308,-248,16320,-2172,-84,-44,-20
8701.249,309,-248,16320,-2172,-84,-44,-20
8705.263,308,-248,16320,-2172,-84,-44,-20
8709.919,307,-248,16320,-2172,-84,-44,-20
8709.919,307,-248,16320,-2172,-84,-44,-20
8714.024,307,-248,16320,-2172,-84,-44,-20
8718.216,308,-232,16304,-2136,-1,-39,0
8718.216,308,-232,16304,-2136,-1,-39,0
8722.229000000001,307,-232,16304,-2136,-1,-39,0
8723.739,307,-232,16304,-2136,-1,-39,0
8723.739,307,-232,16304,-2136,-1,-39,0
8730.632,307,-232,16304,-2136,-1,-39,0
8733.186,307,-232,16304,-2136,-1,-39,0
8735.196,307,-260,16388,-2172,12,-33,-26
8737.204,308,-260,16388,-2172,12,-33,-26
8742.693,308,-260,16388,-2172,12,-33,-26
8742.693,308,-260,16388,-2172,12,-33,-26
8747.045,307,-260,16388,-2172,12,-33,-26
8747.045,307,-260,16388,-2172,12,-33,-26
8747.045,308,-260,16388,-2172,12,-33,-26
8755.279,308,-196,16368,-2132,-53,-38,1
8757.289,308,-196,16368,-2132,-53,-38,1
8757.289,308,-196,16368,-2132,-53,-38,1
8763.412,308,-196,16368,-2132,-53,-38,1
8763.412,307,-196,16368,-2132,-53,-38,1
8763.412,308,-196,16368,-2132,-53,-38,1
8772.269,307,-196,16368,-2132,-53,-38,1
8775.164,308,-208,16344,-2136,-58,-46,-12
8779.634,307,-208,16344,-2136,-58,-46,-12
8779.634,308,-208,16344,-2136,-58,-46,-12
8779.634,307,-208,16344,-2136,-58,-46,-12
8788.063,307,-208,16344,-2136,-58,-46,-12
8788.886,308,-208,16344,-2136,-58,-46,-12
8793.445,307,-208,16344,-2136,-58,-46,-12
8796.168,308,-152,16352,-2100,17,-36,-22
8796.168,308,-152,16352,-2100,17,-36,-22
8796.168,308,-152,16352,-2100,17,-36,-22
8804.25,308,-152,16352,-2100,17,-36,-22
8806.267,307,-152,16352,-2100,17,-36,-22
8806.267,307,-152,16352,-2100,17,-36,-22
8812.718,308,-152,16352,-2100,17,-36,-22
8814.294,307,-212,16356,-2176,-65,-37,-12
8814.294,308,-212,16356,-2176,-65,-37,-12
8820.804,308,-212,16356,-2176,-65,-37,-12
8820.804,308,-212,16356,-2176,-65,-37,-12
8828.889000000001,307,-212,16356,-2176,-65,-37,-12
8829.831,307,-212,16356,-2176,-65,-37,-12
8829.831,308,-212,16356,-2176,-65,-37,-12
8837.228,308,-224,16328,-2120,-99,-25,-13
8837.228,308,-224,16328,-2120,-99,-25,-13
8837.228,307,-224,16328,-2120,-99,-25,-13
8845.32,307,-224,16328,-2120,-99,-25,-13
8845.32,307,-224,16328,-2120,-99,-25,-13
8845.32,307,-224,16328,-2120,-99,-25,-13
8853.625,307,-224,16328,-2120,-99,-25,-13
8853.625,307,-208,16316,-2160,-9,-44,-1
8853.625,307,-208,16316,-2160,-9,-44,-1
8861.992,308,-208,16316,-2160,-9,-44,-1
8873.097,308,-208,16316,-2160,-9,-44,-1
8877.129,308,-208,16316,-2160,-9,-44,-1
8878.644,308,-208,16316,-2160,-9,-44,-1
8880.598000000002,308,-208,16316,-2160,-9,-44,-1
8882.812,307,-164,16380,-2176,-7,-39,-12
8884.212,308,-164,16380,-2176,-7,-39,-12
8888.241,308,-164,16380,-2176,-7,-39,-12
8889.612,309,-164,16380,-2176,-7,-39,-12
8891.627,307,-164,16380,-2176,-7,-39,-12
8894.694,307,-164,16380,-2176,-7,-39,-12
8898.047999999999,306,-164,16380,-2176,-7,-39,-12
8898.047999999999,306,-236,16320,-2156,-55,-41,5
8900.065,307,-236,16320,-2156,-55,-41,5
8902.081,308,-236,16320,-2156,-55,-41,5
8903.093,308,-236,16320,-2156,-55,-41,5
8903.093,307,-236,16320,-2156,-55,-41,5
8910.421,307,-236,16320,-2156,-55,-41,5
8911.438,307,-236,16320,-2156,-55,-41,5
8914.666000000001,307,-236,16320,-2156,-55,-41,5
8914.666000000001,307,-212,16336,-2080,-37,-42,-10
8919.155999999999,307,-212,16336,-2080,-37,-42,-10
8919.155999999999,306,-212,16336,-2080,-37,-42,-10
8927.388,307,-212,16336,-2080,-37,-42,-10
8927.388,307,-212,16336,-2080,-37,-42,-10
8927.388,308,-212,16336,-2080,-37,-42,-10
8935.888,307,-212,16336,-2080,-37,-42,-10
8939.597,306,-196,16360,-2140,-17,-52,-7
8940.327,308,-196,16360,-2140,-17,-52,-7
8943.591,308,-196,16360,-2140,-17,-52,-7
8943.591,307,-196,16360,-2140,-17,-52,-7
8943.591,307,-196,16360,-2140,-17,-52,-7
8951.869,307,-196,16360,-2140,-17,-52,-7
8951.869,308,-196,16360,-2140,-17,-52,-7
8951.869,307,-172,16360,-2120,-64,-34,-13
8960.276,308,-172,16360,-2120,-64,-34,-13
8960.276,308,-172,16360,-2120,-64,-34,-13
8968.154999999999,307,-172,16360,-2120,-64,-34,-13
8968.154999999999,308,-172,16360,-2120,-64,-34,-13
8968.154999999999,307,-172,16360,-2120,-64,-34,-13
8976.551000000001,308,-224,16340,-2064,-64,-37,-20
8976.551000000001,307,-224,16340,-2064,-64,-37,-20
8976.551000000001,308,-224,16340,-2064,-64,-37,-20
8984.832,307,-224,16340,-2064,-64,-37,-20
8984.832,307,-224,16340,-2064,-64,-37,-20
8984.832,308,-224,16340,-2064,-64,-37,-20
8993.048,307,-224,16340,-2064,-64,-37,-20
8993.048,306,-220,16392,-2124,12,-43,-18
8993.048,307,-220,16392,-2124,12,-43,-18
9001.215,307,-220,16392,-2124,12,-43,-18
9004.964,307,-220,16392,-2124,12,-43,-18
9006.351,308,-220,16392,-2124,12,-43,-18
9010.276,307,-220,16392,-2124,12,-43,-18
9010.276,307,-220,16392,-2124,12,-43,-18
9017.277999999998,307,-184,16384,-2104,-46,-30,-33
9019.042000000001,307,-184,16384,-2104,-46,-30,-33
9021.533,307,-184,16384,-2104,-46,-30,-33
9026.443000000001,308,-184,16384,-2104,-46,-30,-33
9027.011999999999,307,-184,16384,-2104,-46,-30,-33
9030.077000000001,307,-184,16384,-2104,-46,-30,-33
9033.735,307,-184,16384,-2104,-46,-30,-33
9037.764,308,-224,16356,-2140,-76,-37,-11
9038.465,308,-224,16356,-2140,-76,-37,-11
9043.843,308,-224,16356,-2140,-76,-37,-11
9046.134,307,-224,16356,-2140,-76,-37,-11
9048.205,307,-224,16356,-2140,-76,-37,-11
9050.936,307,-224,16356,-2140,-76,-37,-11
9054.565,307,-224,16356,-2140,-76,-37,-11
9058.142,307,-208,16372,-2108,-10,-49,-3
9060.108,307,-208,16372,-2108,-10,-49,-3
9060.108,308,-208,16372,-2108,-10,-49,-3
9066.417,307,-208,16372,-2108,-10,-49,-3
9066.417,307,-208,16372,-2108,-10,-49,-3
9066.417,307,-208,16372,-2108,-10,-49,-3
9074.510999999999,307,-208,16372,-2108,-10,-49,-3
9077.175000000001,307,-172,16416,-2136,-31,-19,-14
9077.175000000001,307,-172,16416,-2136,-31,-19,-14
9082.680999999999,307,-172,16416,-2136,-31,-19,-14
9082.680999999999,306,-172,16416,-2136,-31,-19,-14
9082.680999999999,307,-172,16416,-2136,-31,-19,-14
9091.045,307,-172,16416,-2136,-31,-19,-14
9092.885,307,-172,16416,-2136,-31,-19,-14
9092.885,307,-196,16364,-2128,-54,-35,-12
9099.356,308,-196,16364,-2128,-54,-35,-12
9099.356,307,-196,16364,-2128,-54,-35,-12
9107.512,307,-196,16364,-2128,-54,-35,-12
9107.512,307,-196,16364,-2128,-54,-35,-12
9111.084,307,-196,16364,-2128,-54,-35,-12
9115.023000000001,307,-196,16364,-2128,-54,-35,-12
9115.023000000001,308,-152,16340,-2168,-37,-43,-5
9115.023000000001,308,-152,16340,-2168,-37,-43,-5
9123.222,307,-152,16340,-2168,-37,-43,-5
9127.243,307,-152,16340,-2168,-37,-43,-5
9127.243,306,-152,16340,-2168,-37,-43,-5
9131.323,306,-152,16340,-2168,-37,-43,-5
9136.05,308,-152,16340,-2168,-37,-43,-5
9136.05,307,-172,16364,-2132,-29,-36,-14
9139.341,308,-172,16364,-2132,-29,-36,-14
9139.341,307,-172,16364,-2132,-29,-36,-14
9139.341,307,-172,16364,-2132,-29,-36,-14
9147.831,307,-172,16364,-2132,-29,-36,-14
9149.718,307,-172,16364,-2132,-29,-36,-14
9155.908,307,-172,16364,-2132,-29,-36,-14
9155.908,308,-232,16412,-2148,-39,-29,3
9155.908,307,-232,16412,-2148,-39,-29,3
9164.298999999999,308,-232,16412,-2148,-39,-29,3
9165.43,307,-232,16412,-2148,-39,-29,3
9165.43,308,-232,16412,-2148,-39,-29,3
9172.693000000001,307,-232,16412,-2148,-39,-29,3
9173.524000000001,307,-232,16412,-2148,-39,-29,3
9173.524000000001,308,-196,16384,-2108,-44,-38,-7
9181.041000000001,308,-196,16384,-2108,-44,-38,-7
9181.041000000001,308,-196,16384,-2108,-44,-38,-7
9181.041000000001,307,-196,16384,-2108,-44,-38,-7
9189.178,307,-196,16384,-2108,-44,-38,-7
9189.178,307,-196,16384,-2108,-44,-38,-7
9189.178,307,-196,16384,-2108,-44,-38,-7
9197.483,307,-188,16344,-2124,-31,-39,-16
9197.483,308,-188,16344,-2124,-31,-39,-16
9197.483,307,-188,16344,-2124,-31,-39,-16
9205.838,307,-188,16344,-2124,-31,-39,-16
9206.999,307,-188,16344,-2124,-31,-39,-16
9212.304,307,-188,16344,-2124,-31,-39,-16
9215.049,307,-188,16344,-2124,-31,-39,-16
9215.049,307,-200,16404,-2104,-17,-40,0
9222.219000000001,308,-200,16404,-2104,-17,-40,0
9222.219000000001,307,-200,16404,-2104,-17,-40,0
9226.909,307,-200,16404,-2104,-17,-40,0
9230.276,307,-200,16404,-2104,-17,-40,0
9230.276,307,-200,16404,-2104,-17,-40,0
9230.276,307,-200,16404,-2104,-17,-40,0
9238.600999999999,308,-224,16348,-2124,-19,-42,-17
9238.600999999999,308,-224,16348,-2124,-19,-42,-17
9238.600999999999,308,-224,16348,-2124,-19,-42,-17
9246.940999999999,308,-224,16348,-2124,-19,-42,-17
9247.28,307,-224,16348,-2124,-19,-42,-17
9247.28,307,-224,16348,-2124,-19,-42,-17
9255.107,306,-224,16348,-2124,-19,-42,-17
9258.755000000001,308,-208,16384,-2108,-24,-22,-13
9260.521,308,-208,16384,-2108,-24,-22,-13
9263.58,307,-208,16384,-2108,-24,-22,-13
9267.099999999999,308,-208,16384,-2108,-24,-22,-13
9267.099999999999,307,-208,16384,-2108,-24,-22,-13
9271.62,308,-208,16384,-2108,-24,-22,-13
9275.328,308,-208,16384,-2108,-24,-22,-13
9276.894,308,-280,16384,-2164,-44,-36,8
9279.718,307,-280,16384,-2164,-44,-36,8
9283.476,307,-280,16384,-2164,-44,-36,8
9283.476,307,-280,16384,-2164,-44,-36,8
9288.010999999999,307,-280,16384,-2164,-44,-36,8
9289.278,307,-280,16384,-2164,-44,-36,8
9293.480000000001,307,-280,16384,-2164,-44,-36,8
9296.354,307,-228,16396,-2132,15,-46,0
9299.508,307,-228,16396,-2132,15,-46,0
9299.508,308,-228,16396,-2132,15,-46,0
9304.779,307,-228,16396,-2132,15,-46,0
9307.867,307,-228,16396,-2132,15,-46,0
9311.897,307,-228,16396,-2132,15,-46,0
9312.909,307,-228,16396,-2132,15,-46,0
9316.985,308,-228,16396,-2132,15,-46,0
9316.985,308,-240,16368,-2136,-44,-52,-9
9321.152,307,-240,16368,-2136,-44,-52,-9
9321.152,308,-240,16368,-2136,-44,-52,-9
9326.494999999999,307,-240,16368,-2136,-44,-52,-9
9329.186,308,-240,16368,-2136,-44,-52,-9
9331.163,308,-240,16368,-2136,-44,-52,-9
9331.163,307,-240,16368,-2136,-44,-52,-9
9337.315999999999,307,-232,16372,-2124,-56,-48,-13
9337.315999999999,307,-232,16372,-2124,-56,-48,-13
9343.750999999998,308,-232,16372,-2124,-56,-48,-13
9349.009,307,-232,16372,-2124,-56,-48,-13
9349.009,307,-232,16372,-2124,-56,-48,-13
9349.009,307,-232,16372,-2124,-56,-48,-13
9357.227,307,-232,16372,-2124,-56,-48,-13
9357.227,307,-220,16316,-2124,-33,-38,-11
9362.149000000001,307,-220,16316,-2124,-33,-38,-11
9365.399,307,-220,16316,-2124,-33,-38,-11
9368.365000000002,307,-220,16316,-2124,-33,-38,-11
9370.41,307,-220,16316,-2124,-33,-38,-11
9370.41,307,-220,16316,-2124,-33,-38,-11
9376.557999999999,307,-212,16360,-2076,-39,-44,0
9378.662,306,-212,16360,-2076,-39,-44,0
9378.662,307,-212,16360,-2076,-39,-44,0
9378.662,307,-212,16360,-2076,-39,-44,0
9386.764,307,-212,16360,-2076,-39,-44,0
9387.982,307,-212,16360,-2076,-39,-44,0
9394.171999999999,307,-212,16360,-2076,-39,-44,0
9395.185,307,-212,16360,-2076,-39,-44,0
9398.403999999999,307,-196,16356,-2136,2,-38,-9
9398.403999999999,307,-196,16356,-2136,2,-38,-9
9403.464,308,-196,16356,-2136,2,-38,-9
9403.464,308,-196,16356,-2136,2,-38,-9
