Time (ms),EMG,AccX,AccY,AccZ,GyroX,GyroY,GyroZ
1546.066,0,0,0,0,0,0,0
1546.066,305,0,0,0,0,0,0
1546.066,306,0,0,0,0,0,0
1546.066,305,0,0,0,0,0,0
1554.486,305,0,0,0,0,0,0
1554.486,306,0,0,0,0,0,0
1554.486,306,0,0,0,0,0,0
1554.486,306,0,0,0,0,0,0
1554.486,306,0,0,0,0,0,0
1554.486,306,0,0,0,0,0,0
1562.507,306,0,0,0,0,0,0
1562.507,306,0,0,0,0,0,0
1562.507,306,0,0,0,0,0,0
1562.507,307,0,0,0,0,0,0
1562.507,306,0,0,0,0,0,0
1570.567,306,0,0,0,0,0,0
1570.567,306,0,0,0,0,0,0
1570.567,306,0,0,0,0,0,0
1575.857,306,-140,16272,-2264,-39,-33,-1
1578.8120000000001,306,-140,16272,-2264,-39,-33,-1
1578.8120000000001,306,-140,16272,-2264,-39,-33,-1
1578.8120000000001,307,-140,16272,-2264,-39,-33,-1
1586.982,306,-140,16272,-2264,-39,-33,-1
1588.3100000000002,306,-140,16272,-2264,-39,-33,-1
1588.3100000000002,306,-140,16272,-2264,-39,-33,-1
1595.887,305,-224,16312,-2220,-22,-41,-12
1595.887,307,-224,16312,-2220,-22,-41,-12
1595.887,306,-224,16312,-2220,-22,-41,-12
1603.376,307,-224,16312,-2220,-22,-41,-12
1603.376,307,-224,16312,-2220,-22,-41,-12
1603.376,306,-224,16312,-2220,-22,-41,-12
1611.413,307,-224,16312,-2220,-22,-41,-12
1611.413,307,-232,16420,-2312,-11,-34,-13
1619.7939999999999,307,-232,16420,-2312,-11,-34,-13
1619.7939999999999,306,-232,16420,-2312,-11,-34,-13
1625.3899999999999,307,-232,16420,-2312,-11,-34,-13
1627.918,307,-232,16420,-2312,-11,-34,-13
1627.918,307,-232,16420,-2312,-11,-34,-13
1627.918,306,-232,16420,-2312,-11,-34,-13
1636.069,307,-212,16336,-2252,-108,-28,-11
1641.2420000000002,307,-212,16336,-2252,-108,-28,-11
1641.2420000000002,308,-212,16336,-2252,-108,-28,-11
1645.626,307,-212,16336,-2252,-108,-28,-11
1645.626,307,-212,16336,-2252,-108,-28,-11
1652.664,308,-212,16336,-2252,-108,-28,-11
1652.664,307,-212,16336,-2252,-108,-28,-11
1652.664,308,-216,16364,-2276,-5,-17,-15
1660.725,308,-216,16364,-2276,-5,-17,-15
1662.745,309,-216,16364,-2276,-5,-17,-15
1666.063,308,-216,16364,-2276,-5,-17,-15
1669.03,308,-216,16364,-2276,-5,-17,-15
1669.03,308,-216,16364,-2276,-5,-17,-15
1669.03,308,-216,16364,-2276,-5,-17,-15
1677.179,309,-196,16300,-2312,37,-19,-1
1679.191,309,-196,16300,-2312,37,-19,-1
1682.3539999999998,309,-196,16300,-2312,37,-19,-1
1685.191,309,-196,16300,-2312,37,-19,-1
1689.2069999999999,309,-196,16300,-2312,37,-19,-1
1689.2069999999999,309,-196,16300,-2312,37,-19,-1
1693.54,309,-196,16300,-2312,37,-19,-1
1695.549,309,-188,16360,-2284,-85,-30,-10
1697.556,309,-188,16360,-2284,-85,-30,-10
1701.933,309,-188,16360,-2284,-85,-30,-10
1701.933,310,-188,16360,-2284,-85,-30,-10
1701.933,309,-188,16360,-2284,-85,-30,-10
1710.011,309,-188,16360,-2284,-85,-30,-10
1710.011,310,-188,16360,-2284,-85,-30,-10
1710.011,310,-180,16312,-2228,-61,-33,-11
1718.338,310,-180,16312,-2228,-61,-33,-11
1718.338,310,-180,16312,-2228,-61,-33,-11
1726.7740000000001,311,-180,16312,-2228,-61,-33,-11
1727.6609999999998,311,-180,16312,-2228,-61,-33,-11
1727.6609999999998,310,-180,16312,-2228,-61,-33,-11
1733.9150000000002,310,-180,16312,-2228,-61,-33,-11
1736.247,311,-180,16336,-2228,41,-29,-18
1736.247,311,-180,16336,-2228,41,-29,-18
1742.586,312,-180,16336,-2228,41,-29,-18
1742.586,312,-180,16336,-2228,41,-29,-18
1742.586,311,-180,16336,-2228,41,-29,-18
1750.951,311,-180,16336,-2228,41,-29,-18
1751.756,311,-180,16336,-2228,41,-29,-18
1755.7830000000001,311,-216,16308,-2248,-48,-41,-15
1759.1190000000001,312,-216,16308,-2248,-48,-41,-15
1761.674,311,-216,16308,-2248,-48,-41,-15
1765.692,312,-216,16308,-2248,-48,-41,-15
1767.4399999999998,312,-216,16308,-2248,-48,-41,-15
1771.4540000000002,312,-216,16308,-2248,-48,-41,-15
1775.474,311,-216,16308,-2248,-48,-41,-15
1775.474,312,-200,16324,-2248,-130,-31,-17
1779.493,312,-200,16324,-2248,-130,-31,-17
1783.507,313,-200,16324,-2248,-130,-31,-17
1787.519,312,-200,16324,-2248,-130,-31,-17
1787.519,311,-200,16324,-2248,-130,-31,-17
1791.201,311,-200,16324,-2248,-130,-31,-17
1795.217,311,-204,16348,-2232,-2,-35,-16
1799.23,313,-204,16348,-2232,-2,-35,-16
1799.23,312,-204,16348,-2232,-2,-35,-16
1799.23,312,-204,16348,-2232,-2,-35,-16
1807.59,312,-204,16348,-2232,-2,-35,-16
1809.597,311,-204,16348,-2232,-2,-35,-16
1811.606,311,-204,16348,-2232,-2,-35,-16
1816.3590000000002,311,-176,16288,-2272,25,-44,-14
1816.3590000000002,312,-176,16288,-2272,25,-44,-14
1816.3590000000002,312,-176,16288,-2272,25,-44,-14
1824.048,312,-176,16288,-2272,25,-44,-14
1824.792,312,-176,16288,-2272,25,-44,-14
1824.792,311,-176,16288,-2272,25,-44,-14
1832.554,311,-176,16288,-2272,25,-44,-14
1836.333,312,-196,16320,-2300,-89,-13,-19
1836.333,311,-196,16320,-2300,-89,-13,-19
1841.429,312,-196,16320,-2300,-89,-13,-19
1841.429,311,-196,16320,-2300,-89,-13,-19
1841.429,311,-196,16320,-2300,-89,-13,-19
1850.5259999999998,310,-196,16320,-2300,-89,-13,-19
1850.5259999999998,311,-196,16320,-2300,-89,-13,-19
1854.911,310,-208,16280,-2216,-72,-17,-6
1859.394,310,-208,16280,-2216,-72,-17,-6
1860.4019999999998,310,-208,16280,-2216,-72,-17,-6
1865.795,311,-208,16280,-2216,-72,-17,-6
1867.187,311,-208,16280,-2216,-72,-17,-6
1867.187,310,-208,16280,-2216,-72,-17,-6
1873.9360000000001,310,-208,16280,-2216,-72,-17,-6
1875.566,310,-216,16360,-2288,45,-36,-7
1875.566,311,-216,16360,-2288,45,-36,-7
1882.304,310,-216,16360,-2288,45,-36,-7
1884.316,310,-216,16360,-2288,45,-36,-7
1886.325,310,-216,16360,-2288,45,-36,-7
1890.337,310,-216,16360,-2288,45,-36,-7
1891.625,309,-216,16360,-2288,45,-36,-7
1891.625,310,-216,16360,-2288,45,-36,-7
1898.471,309,-204,16348,-2276,-78,-16,-18
1898.471,309,-204,16348,-2276,-78,-16,-18
1898.471,310,-204,16348,-2276,-78,-16,-18
1906.557,309,-204,16348,-2276,-78,-16,-18
1906.557,309,-204,16348,-2276,-78,-16,-18
1906.557,309,-204,16348,-2276,-78,-16,-18
1914.723,309,-232,16292,-2240,-126,-36,-7
1914.723,309,-232,16292,-2240,-126,-36,-7
1914.723,309,-232,16292,-2240,-126,-36,-7
1923.1309999999999,309,-232,16292,-2240,-126,-36,-7
1923.1309999999999,309,-232,16292,-2240,-126,-36,-7
1931.1490000000001,308,-232,16292,-2240,-126,-36,-7
1931.1490000000001,308,-232,16292,-2240,-126,-36,-7
1931.1490000000001,308,-168,16348,-2244,21,-41,-1
1939.259,308,-168,16348,-2244,21,-41,-1
1939.259,309,-168,16348,-2244,21,-41,-1
1939.259,308,-168,16348,-2244,21,-41,-1
1947.415,309,-168,16348,-2244,21,-41,-1
1949.325,308,-168,16348,-2244,21,-41,-1
1949.325,308,-168,16348,-2244,21,-41,-1
1955.749,308,-168,16348,-2244,21,-41,-1
1955.749,308,-232,16412,-2292,-7,-49,-6
1959.982,308,-232,16412,-2292,-7,-49,-6
1963.835,308,-232,16412,-2292,-7,-49,-6
1963.835,308,-232,16412,-2292,-7,-49,-6
1963.835,308,-232,16412,-2292,-7,-49,-6
1971.9569999999999,308,-232,16412,-2292,-7,-49,-6
1971.9569999999999,307,-232,16412,-2292,-7,-49,-6
1971.9569999999999,307,-244,16340,-2284,-113,-15,-23
1980.432,307,-244,16340,-2284,-113,-15,-23
1981.742,307,-244,16340,-2284,-113,-15,-23
1981.742,307,-244,16340,-2284,-113,-15,-23
1988.4759999999999,308,-244,16340,-2284,-113,-15,-23
1988.4759999999999,306,-244,16340,-2284,-113,-15,-23
1996.826,306,-244,16340,-2284,-113,-15,-23
1996.826,308,-212,16324,-2224,5,-45,-17
1996.826,307,-212,16324,-2224,5,-45,-17
1996.826,308,-212,16324,-2224,5,-45,-17
2005.0970000000002,307,-212,16324,-2224,5,-45,-17
2005.0970000000002,307,-212,16324,-2224,5,-45,-17
2013.2720000000002,307,-212,16324,-2224,5,-45,-17
2013.2720000000002,306,-212,16324,-2224,5,-45,-17
2015.393,306,-256,16396,-2288,33,-36,-18
2021.547,307,-256,16396,-2288,33,-36,-18
2021.547,307,-256,16396,-2288,33,-36,-18
2021.547,307,-256,16396,-2288,33,-36,-18
2029.2880000000002,307,-256,16396,-2288,33,-36,-18
2029.2880000000002,306,-256,16396,-2288,33,-36,-18
2029.2880000000002,306,-256,16396,-2288,33,-36,-18
2037.633,306,-232,16344,-2256,-79,-40,-19
2041.722,307,-232,16344,-2256,-79,-40,-19
2041.722,306,-232,16344,-2256,-79,-40,-19
2045.729,306,-232,16344,-2256,-79,-40,-19
2049.78,307,-232,16344,-2256,-79,-40,-19
2049.78,306,-232,16344,-2256,-79,-40,-19
2054.116,306,-232,16344,-2256,-79,-40,-19
2054.116,306,-176,16380,-2236,-57,-37,-4
2062.136,306,-176,16380,-2236,-57,-37,-4
2062.136,306,-176,16380,-2236,-57,-37,-4
2062.136,307,-176,16380,-2236,-57,-37,-4
2070.258,306,-176,16380,-2236,-57,-37,-4
2070.258,305,-176,16380,-2236,-57,-37,-4
2075.558,306,-176,16380,-2236,-57,-37,-4
2078.261,306,-180,16352,-2284,25,-30,-34
2078.261,306,-180,16352,-2284,25,-30,-34
2078.261,307,-180,16352,-2284,25,-30,-34
2086.659,306,-180,16352,-2284,25,-30,-34
2088.6749999999997,306,-180,16352,-2284,25,-30,-34
2088.6749999999997,305,-180,16352,-2284,25,-30,-34
2095.1349999999998,305,-180,16352,-2284,25,-30,-34
2095.1349999999998,306,-216,16368,-2312,-42,-26,0
2095.1349999999998,305,-216,16368,-2312,-42,-26,0
2103.384,306,-216,16368,-2312,-42,-26,0
2103.384,305,-216,16368,-2312,-42,-26,0
2110.912,306,-216,16368,-2312,-42,-26,0
2113.4849999999997,305,-216,16368,-2312,-42,-26,0
2113.4849999999997,305,-216,16368,-2312,-42,-26,0
2113.4849999999997,306,-244,16352,-2184,-87,-37,-27
2119.249,306,-244,16352,-2184,-87,-37,-27
2123.53,306,-244,16352,-2184,-87,-37,-27
2124.892,306,-244,16352,-2184,-87,-37,-27
2127.6820000000002,305,-244,16352,-2184,-87,-37,-27
2131.6980000000003,306,-244,16352,-2184,-87,-37,-27
2135.518,305,-244,16352,-2184,-87,-37,-27
2136.514,305,-220,16332,-2212,12,-23,-19
2142.096,305,-220,16332,-2212,12,-23,-19
2144.105,305,-220,16332,-2212,12,-23,-19
2144.105,305,-220,16332,-2212,12,-23,-19
2144.105,305,-220,16332,-2212,12,-23,-19
2152.605,305,-220,16332,-2212,12,-23,-19
2152.605,305,-220,16332,-2212,12,-23,-19
2152.605,305,-152,16340,-2312,9,-26,-19
2160.841,305,-152,16340,-2312,9,-26,-19
2160.841,306,-152,16340,-2312,9,-26,-19
2163.0699999999997,306,-152,16340,-2312,9,-26,-19
2163.0699999999997,306,-152,16340,-2312,9,-26,-19
2172.692,305,-152,16340,-2312,9,-26,-19
2174.5570000000002,305,-152,16340,-2312,9,-26,-19
2176.7470000000003,304,-244,16388,-2268,-103,-28,-8
2178.765,305,-244,16388,-2268,-103,-28,-8
2181.872,305,-244,16388,-2268,-103,-28,-8
2184.901,305,-244,16388,-2268,-103,-28,-8
2188.6549999999997,306,-244,16388,-2268,-103,-28,-8
2191.563,305,-244,16388,-2268,-103,-28,-8
2194.124,305,-244,16388,-2268,-103,-28,-8
2194.124,305,-196,16296,-2228,-27,-35,-13
2201.127,305,-196,16296,-2228,-27,-35,-13
2202.808,306,-196,16296,-2228,-27,-35,-13
2202.808,305,-196,16296,-2228,-27,-35,-13
2209.529,306,-196,16296,-2228,-27,-35,-13
2211.546,306,-196,16296,-2228,-27,-35,-13
2214.861,305,-196,16296,-2228,-27,-35,-13
2217.8909999999996,305,-204,16364,-2296,28,-36,-5
2220.101,306,-204,16364,-2296,28,-36,-5
2223.423,306,-204,16364,-2296,28,-36,-5
2227.426,305,-204,16364,-2296,28,-36,-5
2229.44,305,-204,16364,-2296,28,-36,-5
2230.792,304,-204,16364,-2296,28,-36,-5
2233.99,305,-204,16364,-2296,28,-36,-5
2238.2430000000004,305,-180,16348,-2268,-95,-38,-17
2238.2430000000004,305,-180,16348,-2268,-95,-38,-17
2241.425,305,-180,16348,-2268,-95,-38,-17
2243.2180000000003,306,-180,16348,-2268,-95,-38,-17
2243.2180000000003,305,-180,16348,-2268,-95,-38,-17
2250.217,305,-180,16348,-2268,-95,-38,-17
2251.654,305,-180,16348,-2268,-95,-38,-17
2257.029,305,-172,16272,-2224,-70,-38,3
2260.158,305,-172,16272,-2224,-70,-38,3
2260.7870000000003,305,-172,16272,-2224,-70,-38,3
2260.7870000000003,305,-172,16272,-2224,-70,-38,3
2268.416,305,-172,16272,-2224,-70,-38,3
2271.12,305,-172,16272,-2224,-70,-38,3
2274.6240000000003,305,-172,16272,-2224,-70,-38,3
2276.528,305,-260,16328,-2256,51,-44,-13
2278.995,304,-260,16328,-2256,51,-44,-13
2278.995,304,-260,16328,-2256,51,-44,-13
2284.6549999999997,305,-260,16328,-2256,51,-44,-13
2287.303,305,-260,16328,-2256,51,-44,-13
2287.303,305,-260,16328,-2256,51,-44,-13
2292.7490000000003,305,-260,16328,-2256,51,-44,-13
2294.767,304,-176,16340,-2320,-56,-14,-1
2294.767,305,-176,16340,-2320,-56,-14,-1
2300.833,305,-176,16340,-2320,-56,-14,-1
2300.833,306,-176,16340,-2320,-56,-14,-1
2300.833,304,-176,16340,-2320,-56,-14,-1
2308.9680000000003,304,-176,16340,-2320,-56,-14,-1
2308.9680000000003,304,-176,16340,-2320,-56,-14,-1
2308.9680000000003,304,-196,16304,-2228,-125,-35,2
2320.123,305,-196,16304,-2228,-125,-35,2
2320.123,304,-196,16304,-2228,-125,-35,2
2320.123,305,-196,16304,-2228,-125,-35,2
2325.253,305,-196,16304,-2228,-125,-35,2
2325.253,304,-196,16304,-2228,-125,-35,2
2325.253,304,-196,16304,-2228,-125,-35,2
2336.547,304,-196,16304,-2228,-125,-35,2
2336.547,304,-188,16376,-2204,66,-32,-8
2341.859,304,-188,16376,-2204,66,-32,-8
2341.859,305,-188,16376,-2204,66,-32,-8
2341.859,304,-188,16376,-2204,66,-32,-8
2350.225,305,-188,16376,-2204,66,-32,-8
2350.225,304,-188,16376,-2204,66,-32,-8
2350.225,304,-188,16376,-2204,66,-32,-8
2358.3959999999997,304,-220,16324,-2308,8,-19,-3
2358.3959999999997,305,-220,16324,-2308,8,-19,-3
2358.3959999999997,304,-220,16324,-2308,8,-19,-3
2368.007,305,-220,16324,-2308,8,-19,-3
2368.567,305,-220,16324,-2308,8,-19,-3
2368.567,304,-220,16324,-2308,8,-19,-3
2374.962,304,-220,16324,-2308,8,-19,-3
2377.167,304,-188,16300,-2276,-157,-23,-7
2380.818,304,-188,16300,-2276,-157,-23,-7
2383.415,305,-188,16300,-2276,-157,-23,-7
2383.415,305,-188,16300,-2276,-157,-23,-7
2383.415,305,-188,16300,-2276,-157,-23,-7
2391.55,305,-188,16300,-2276,-157,-23,-7
2391.55,304,-188,16300,-2276,-157,-23,-7
2391.55,304,-200,16292,-2256,2,-38,-15
2399.6209999999996,305,-200,16292,-2256,2,-38,-15
2399.6209999999996,304,-200,16292,-2256,2,-38,-15
2399.6209999999996,305,-200,16292,-2256,2,-38,-15
2408.0460000000003,306,-200,16292,-2256,2,-38,-15
2408.0460000000003,304,-200,16292,-2256,2,-38,-15
2408.0460000000003,304,-200,16292,-2256,2,-38,-15
2416.561,305,-220,16336,-2308,47,-22,-4
2418.451,305,-220,16336,-2308,47,-22,-4
2419.842,305,-220,16336,-2308,47,-22,-4
2424.8599999999997,305,-220,16336,-2308,47,-22,-4
2426.891,306,-220,16336,-2308,47,-22,-4
2430.929,305,-220,16336,-2308,47,-22,-4
2432.942,305,-220,16336,-2308,47,-22,-4
2436.598,305,-220,16336,-2308,47,-22,-4
2436.598,305,-192,16364,-2324,-128,-37,-36
2441.486,306,-192,16364,-2324,-128,-37,-36
2441.486,305,-192,16364,-2324,-128,-37,-36
2446.981,306,-192,16364,-2324,-128,-37,-36
2449.3140000000003,305,-192,16364,-2324,-128,-37,-36
2449.3140000000003,305,-192,16364,-2324,-128,-37,-36
2457.49,306,-220,16324,-2232,-74,-28,-5
2458.569,306,-220,16324,-2232,-74,-28,-5
2458.569,306,-220,16324,-2232,-74,-28,-5
2465.7,305,-220,16324,-2232,-74,-28,-5
2465.7,306,-220,16324,-2232,-74,-28,-5
2465.7,306,-220,16324,-2232,-74,-28,-5
2473.885,306,-220,16324,-2232,-74,-28,-5
2473.885,305,-180,16356,-2276,58,-24,-4
2473.885,306,-180,16356,-2276,58,-24,-4
2482.064,306,-180,16356,-2276,58,-24,-4
2483.651,306,-180,16356,-2276,58,-24,-4
2483.651,306,-180,16356,-2276,58,-24,-4
2491.741,306,-180,16356,-2276,58,-24,-4
2491.741,306,-180,16356,-2276,58,-24,-4
2491.741,306,-180,16356,-2276,58,-24,-4
2500.246,306,-196,16380,-2284,-102,-31,-12
2500.246,306,-196,16380,-2284,-102,-31,-12
2500.246,307,-196,16380,-2284,-102,-31,-12
2508.188,306,-196,16380,-2284,-102,-31,-12
2508.188,306,-196,16380,-2284,-102,-31,-12
2515.041,306,-196,16380,-2284,-102,-31,-12
2515.041,307,-232,16324,-2228,-118,-34,-14
2515.041,306,-232,16324,-2228,-118,-34,-14
2523.4770000000003,307,-232,16324,-2228,-118,-34,-14
2525.503,306,-232,16324,-2228,-118,-34,-14
2528.911,306,-232,16324,-2228,-118,-34,-14
2531.739,307,-232,16324,-2228,-118,-34,-14
2531.739,306,-232,16324,-2228,-118,-34,-14
2537.009,307,-220,16352,-2228,47,-13,-20
2541.3250000000003,306,-220,16352,-2228,47,-13,-20
2541.3250000000003,306,-220,16352,-2228,47,-13,-20
2541.3250000000003,307,-220,16352,-2228,47,-13,-20
2549.5009999999997,307,-220,16352,-2228,47,-13,-20
2549.5009999999997,307,-220,16352,-2228,47,-13,-20
2556.132,306,-220,16352,-2228,47,-13,-20
2556.132,306,-156,16380,-2308,-5,-17,-9
2561.604,307,-156,16380,-2308,-5,-17,-9
2561.604,307,-156,16380,-2308,-5,-17,-9
2565.833,307,-156,16380,-2308,-5,-17,-9
2565.833,308,-156,16380,-2308,-5,-17,-9
2572.4649999999997,307,-156,16380,-2308,-5,-17,-9
2574.484,307,-156,16380,-2308,-5,-17,-9
2574.484,307,-212,16332,-2256,-118,-29,-18
2574.484,307,-212,16332,-2256,-118,-29,-18
2582.26,307,-212,16332,-2256,-118,-29,-18
2582.26,307,-212,16332,-2256,-118,-29,-18
2588.9519999999998,307,-212,16332,-2256,-118,-29,-18
2592.204,307,-212,16332,-2256,-118,-29,-18
2594.738,306,-212,16332,-2256,-118,-29,-18
2598.652,307,-168,16288,-2268,-13,-24,-1
2602.744,307,-168,16288,-2268,-13,-24,-1
2602.744,307,-168,16288,-2268,-13,-24,-1
2608.022,307,-168,16288,-2268,-13,-24,-1
2608.909,307,-168,16288,-2268,-13,-24,-1
2608.909,307,-168,16288,-2268,-13,-24,-1
2615.392,306,-168,16288,-2268,-13,-24,-1
2619.134,306,-264,16368,-2272,35,-30,-6
2619.134,306,-264,16368,-2272,35,-30,-6
2624.576,307,-264,16368,-2272,35,-30,-6
2624.946,307,-264,16368,-2272,35,-30,-6
2624.946,307,-264,16368,-2272,35,-30,-6
2631.431,306,-264,16368,-2272,35,-30,-6
2635.533,307,-264,16368,-2272,35,-30,-6
2635.533,307,-200,16316,-2268,-98,-37,-2
2641.6719999999996,308,-200,16316,-2268,-98,-37,-2
2645.112,307,-200,16316,-2268,-98,-37,-2
2645.112,308,-200,16316,-2268,-98,-37,-2
2647.7870000000003,307,-200,16316,-2268,-98,-37,-2
2649.697,307,-200,16316,-2268,-98,-37,-2
2656.0,307,-200,16316,-2268,-98,-37,-2
2656.0,306,-164,16328,-2204,-60,-40,0
2658.6259999999997,307,-164,16328,-2204,-60,-40,0
2664.196,307,-164,16328,-2204,-60,-40,0
2664.196,307,-164,16328,-2204,-60,-40,0
2668.299,307,-164,16328,-2204,-60,-40,0
2668.299,306,-164,16328,-2204,-60,-40,0
2672.669,306,-164,16328,-2204,-60,-40,0
2676.303,306,-164,16328,-2204,-60,-40,0
2676.303,307,-256,16324,-2288,16,-39,-2
2681.061,307,-256,16324,-2288,16,-39,-2
2684.6369999999997,307,-256,16324,-2288,16,-39,-2
2684.6369999999997,307,-256,16324,-2288,16,-39,-2
2689.503,307,-256,16324,-2288,16,-39,-2
2692.552,306,-256,16324,-2288,16,-39,-2
2692.552,307,-256,16324,-2288,16,-39,-2
2697.949,307,-196,16364,-2252,-87,-27,-19
2697.949,308,-196,16364,-2252,-87,-27,-19
2697.949,307,-196,16364,-2252,-87,-27,-19
2708.5840000000003,307,-196,16364,-2252,-87,-27,-19
2710.6059999999998,307,-196,16364,-2252,-87,-27,-19
2710.6059999999998,307,-196,16364,-2252,-87,-27,-19
2714.5060000000003,307,-196,16364,-2252,-87,-27,-19
2714.5060000000003,307,-188,16300,-2240,-75,-22,-4
2714.5060000000003,307,-188,16300,-2240,-75,-22,-4
2725.5950000000003,307,-188,16300,-2240,-75,-22,-4
2726.9030000000002,308,-188,16300,-2240,-75,-22,-4
2730.136,307,-188,16300,-2240,-75,-22,-4
2732.294,307,-188,16300,-2240,-75,-22,-4
2732.294,307,-188,16300,-2240,-75,-22,-4
2737.3280000000004,307,-204,16352,-2268,19,-28,3
2742.574,307,-204,16352,-2268,19,-28,3
2742.574,307,-204,16352,-2268,19,-28,3
2742.574,307,-204,16352,-2268,19,-28,3
2750.677,308,-204,16352,-2268,19,-28,3
2750.677,307,-204,16352,-2268,19,-28,3
2750.677,306,-204,16352,-2268,19,-28,3
2757.841,307,-236,16328,-2280,-45,-41,-8
2759.849,307,-236,16328,-2280,-45,-41,-8
2759.849,308,-236,16328,-2280,-45,-41,-8
2764.585,308,-236,16328,-2280,-45,-41,-8
2764.585,308,-236,16328,-2280,-45,-41,-8
2764.585,307,-236,16328,-2280,-45,-41,-8
2775.374,307,-236,16328,-2280,-45,-41,-8
2775.374,306,-192,16368,-2288,-69,-23,-13
2775.374,307,-192,16368,-2288,-69,-23,-13
2782.998,308,-192,16368,-2288,-69,-23,-13
2782.998,308,-192,16368,-2288,-69,-23,-13
2789.318,307,-192,16368,-2288,-69,-23,-13
2792.212,306,-192,16368,-2288,-69,-23,-13
2794.827,308,-192,16368,-2288,-69,-23,-13
2799.368,307,-272,16356,-2232,-22,-17,-10
2799.368,307,-272,16356,-2232,-22,-17,-10
2802.34,308,-272,16356,-2232,-22,-17,-10
2808.373,308,-272,16356,-2232,-22,-17,-10
2808.6769999999997,308,-272,16356,-2232,-22,-17,-10
2808.6769999999997,307,-272,16356,-2232,-22,-17,-10
2815.782,307,-272,16356,-2232,-22,-17,-10
2819.841,307,-212,16348,-2284,-10,-38,-10
2819.841,307,-212,16348,-2284,-10,-38,-10
2825.119,307,-212,16348,-2284,-10,-38,-10
2827.129,308,-212,16348,-2284,-10,-38,-10
2832.16,308,-212,16348,-2284,-10,-38,-10
2832.16,307,-212,16348,-2284,-10,-38,-10
2835.107,307,-212,16348,-2284,-10,-38,-10
2840.634,308,-152,16368,-2312,-51,-42,-25
2841.663,308,-152,16368,-2312,-51,-42,-25
2843.67,307,-152,16368,-2312,-51,-42,-25
2848.5480000000002,307,-152,16368,-2312,-51,-42,-25
2848.5480000000002,307,-152,16368,-2312,-51,-42,-25
2848.5480000000002,307,-152,16368,-2312,-51,-42,-25
2856.947,307,-152,16368,-2312,-51,-42,-25
2860.415,307,-232,16368,-2260,-69,-35,-13
2860.415,307,-232,16368,-2260,-69,-35,-13
2865.084,308,-232,16368,-2260,-69,-35,-13
2865.084,308,-232,16368,-2260,-69,-35,-13
2865.084,307,-232,16368,-2260,-69,-35,-13
2874.504,307,-232,16368,-2260,-69,-35,-13
2874.504,306,-232,16368,-2260,-69,-35,-13
2874.504,307,-224,16348,-2296,-14,-32,-24
2881.564,307,-224,16348,-2296,-14,-32,-24
2885.3399999999997,307,-224,16348,-2296,-14,-32,-24
2889.71,307,-224,16348,-2296,-14,-32,-24
2893.489,307,-224,16348,-2296,-14,-32,-24
2894.56,306,-224,16348,-2296,-14,-32,-24
2897.472,307,-176,16384,-2276,-22,-43,-20
2901.3520000000003,307,-176,16384,-2276,-22,-43,-20
2902.956,308,-176,16384,-2276,-22,-43,-20
2905.763,308,-176,16384,-2276,-22,-43,-20
2909.9750000000004,307,-176,16384,-2276,-22,-43,-20
2912.703,307,-176,16384,-2276,-22,-43,-20
2914.21,307,-176,16384,-2276,-22,-43,-20
2914.21,308,-184,16360,-2248,-54,-22,-13
2922.27,307,-184,16360,-2248,-54,-22,-13
2923.184,307,-184,16360,-2248,-54,-22,-13
2924.735,307,-184,16360,-2248,-54,-22,-13
2930.7569999999996,307,-184,16360,-2248,-54,-22,-13
2933.917,307,-184,16360,-2248,-54,-22,-13
2933.917,307,-184,16360,-2248,-54,-22,-13
2939.072,307,-204,16352,-2292,-50,-18,-9
2941.6859999999997,307,-204,16352,-2292,-50,-18,-9
2944.3250000000003,308,-204,16352,-2292,-50,-18,-9
2944.3250000000003,307,-204,16352,-2292,-50,-18,-9
2947.359,307,-204,16352,-2292,-50,-18,-9
2947.359,307,-204,16352,-2292,-50,-18,-9
2955.4900000000002,307,-204,16352,-2292,-50,-18,-9
2955.4900000000002,307,-248,16304,-2280,-41,-33,-22
2960.661,307,-248,16304,-2280,-41,-33,-22
2963.946,307,-248,16304,-2280,-41,-33,-22
2966.598,308,-248,16304,-2280,-41,-33,-22
2971.377,307,-248,16304,-2280,-41,-33,-22
2972.3920000000003,307,-248,16304,-2280,-41,-33,-22
2975.533,307,-248,16304,-2280,-41,-33,-22
2979.571,308,-172,16328,-2236,-30,-35,-11
2980.584,307,-172,16328,-2236,-30,-35,-11
2980.584,307,-172,16328,-2236,-30,-35,-11
2980.584,307,-172,16328,-2236,-30,-35,-11
2992.233,307,-172,16328,-2236,-30,-35,-11
2992.233,306,-172,16328,-2236,-30,-35,-11
2995.959,307,-172,16328,-2236,-30,-35,-11
2999.919,307,-176,16344,-2272,-36,-31,-20
3004.119,307,-176,16344,-2272,-36,-31,-20
3005.135,307,-176,16344,-2272,-36,-31,-20
3008.078,308,-176,16344,-2272,-36,-31,-20
3008.078,306,-176,16344,-2272,-36,-31,-20
3013.197,307,-176,16344,-2272,-36,-31,-20
3016.015,307,-176,16344,-2272,-36,-31,-20
3019.003,307,-212,16400,-2284,-42,-30,-19
3024.316,308,-212,16400,-2284,-42,-30,-19
3024.316,308,-212,16400,-2284,-42,-30,-19
3024.316,307,-212,16400,-2284,-42,-30,-19
3029.991,307,-212,16400,-2284,-42,-30,-19
3029.991,306,-212,16400,-2284,-42,-30,-19
3029.991,306,-212,16400,-2284,-42,-30,-19
3038.1870000000004,306,-164,16308,-2268,-18,-33,-19
3042.2189999999996,307,-164,16308,-2268,-18,-33,-19
3042.2189999999996,307,-164,16308,-2268,-18,-33,-19
3046.395,306,-164,16308,-2268,-18,-33,-19
3046.395,307,-164,16308,-2268,-18,-33,-19
3046.395,306,-164,16308,-2268,-18,-33,-19
3056.6490000000003,307,-164,16308,-2268,-18,-33,-19
3061.428,307,-200,16384,-2252,-43,-25,2
3061.428,307,-200,16384,-2252,-43,-25,2
3063.038,307,-200,16384,-2252,-43,-25,2
3063.038,307,-200,16384,-2252,-43,-25,2
3063.038,306,-200,16384,-2252,-43,-25,2
3073.044,307,-200,16384,-2252,-43,-25,2
3077.5009999999997,306,-200,16384,-2252,-43,-25,2
3077.5009999999997,307,-248,16340,-2248,-25,-20,6
3082.399,307,-248,16340,-2248,-25,-20,6
3082.399,307,-248,16340,-2248,-25,-20,6
3087.511,307,-248,16340,-2248,-25,-20,6
3088.9449999999997,307,-248,16340,-2248,-25,-20,6
3091.765,307,-248,16340,-2248,-25,-20,6
3098.38,307,-248,16340,-2248,-25,-20,6
3098.38,307,-160,16364,-2216,-28,-38,-21
3100.609,306,-160,16364,-2216,-28,-38,-21
3106.542,306,-160,16364,-2216,-28,-38,-21
3108.248,306,-160,16364,-2216,-28,-38,-21
3110.2599999999998,307,-160,16364,-2216,-28,-38,-21
3114.748,307,-160,16364,-2216,-28,-38,-21
3114.748,306,-160,16364,-2216,-28,-38,-21
3114.748,306,-208,16352,-2288,-41,-44,-12
3123.183,307,-208,16352,-2288,-41,-44,-12
3126.9680000000003,307,-208,16352,-2288,-41,-44,-12
3126.9680000000003,307,-208,16352,-2288,-41,-44,-12
3131.088,306,-208,16352,-2288,-41,-44,-12
3131.088,306,-208,16352,-2288,-41,-44,-12
3138.283,306,-208,16352,-2288,-41,-44,-12
3139.2929999999997,307,-212,16396,-2288,-35,-51,6
3142.1070000000004,306,-212,16396,-2288,-35,-51,6
3147.526,307,-212,16396,-2288,-35,-51,6
3147.526,306,-212,16396,-2288,-35,-51,6
3147.526,307,-212,16396,-2288,-35,-51,6
3155.687,306,-212,16396,-2288,-35,-51,6
3155.687,306,-212,16396,-2288,-35,-51,6
3158.6400000000003,306,-256,16316,-2248,-36,-51,-13
3163.784,307,-256,16316,-2248,-36,-51,-13
3163.784,307,-256,16316,-2248,-36,-51,-13
3163.784,307,-256,16316,-2248,-36,-51,-13
3171.995,306,-256,16316,-2248,-36,-51,-13
3174.3920000000003,307,-256,16316,-2248,-36,-51,-13
3177.6369999999997,306,-256,16316,-2248,-36,-51,-13
3180.278,306,-184,16360,-2260,-27,-38,-3
3181.483,307,-184,16360,-2260,-27,-38,-3
3181.483,307,-184,16360,-2260,-27,-38,-3
3188.5119999999997,308,-184,16360,-2260,-27,-38,-3
3192.2000000000003,307,-184,16360,-2260,-27,-38,-3
3194.212,306,-184,16360,-2260,-27,-38,-3
3196.5699999999997,308,-184,16360,-2260,-27,-38,-3
3200.6009999999997,307,-196,16328,-2268,-36,-29,-7
3200.6009999999997,307,-196,16328,-2268,-36,-29,-7
3204.834,307,-196,16328,-2268,-36,-29,-7
3208.851,307,-196,16328,-2268,-36,-29,-7
3212.891,307,-196,16328,-2268,-36,-29,-7
3212.891,306,-196,16328,-2268,-36,-29,-7
3216.469,306,-196,16328,-2268,-36,-29,-7
3221.249,306,-196,16360,-2216,-53,-7,-2
3221.249,308,-196,16360,-2216,-53,-7,-2
3221.249,307,-196,16360,-2216,-53,-7,-2
3229.581,308,-196,16360,-2216,-53,-7,-2
3229.581,307,-196,16360,-2216,-53,-7,-2
3233.551,308,-196,16360,-2216,-53,-7,-2
3237.647,307,-196,16360,-2216,-53,-7,-2
3238.658,307,-232,16384,-2256,-10,-28,-17
3241.146,308,-232,16384,-2256,-10,-28,-17
3241.146,307,-232,16384,-2256,-10,-28,-17
3246.0969999999998,308,-232,16384,-2256,-10,-28,-17
3247.562,307,-232,16384,-2256,-10,-28,-17
3254.273,306,-232,16384,-2256,-10,-28,-17
3258.024,307,-232,16384,-2256,-10,-28,-17
3260.924,307,-240,16352,-2260,-35,-43,-10
3260.924,308,-240,16352,-2260,-35,-43,-10
3262.663,307,-240,16352,-2260,-35,-43,-10
3262.663,307,-240,16352,-2260,-35,-43,-10
3262.663,307,-240,16352,-2260,-35,-43,-10
3274.729,307,-240,16352,-2260,-35,-43,-10
3276.7400000000002,307,-240,16352,-2260,-35,-43,-10
3279.47,307,-196,16288,-2252,-65,-35,-8
3281.8109999999997,307,-196,16288,-2252,-65,-35,-8
3286.744,307,-196,16288,-2252,-65,-35,-8
3287.8340000000003,308,-196,16288,-2252,-65,-35,-8
3287.8340000000003,307,-196,16288,-2252,-65,-35,-8
3294.8469999999998,307,-196,16288,-2252,-65,-35,-8
3295.854,307,-196,16288,-2252,-65,-35,-8
3299.0339999999997,308,-252,16356,-2236,6,-20,-21
3299.0339999999997,308,-252,16356,-2236,6,-20,-21
3304.234,307,-252,16356,-2236,6,-20,-21
3308.891,307,-252,16356,-2236,6,-20,-21
3310.911,307,-252,16356,-2236,6,-20,-21
3315.429,307,-252,16356,-2236,6,-20,-21
3315.429,307,-252,16356,-2236,6,-20,-21
3317.184,306,-176,16344,-2256,-31,-20,-11
3320.839,307,-176,16344,-2256,-31,-20,-11
3325.235,308,-176,16344,-2256,-31,-20,-11
3328.403,307,-176,16344,-2256,-31,-20,-11
3331.845,307,-176,16344,-2256,-31,-20,-11
3331.845,307,-176,16344,-2256,-31,-20,-11
3335.9359999999997,307,-176,16344,-2256,-31,-20,-11
3338.799,307,-208,16316,-2300,-75,-44,-8
3341.761,307,-208,16316,-2300,-75,-44,-8
3344.4060000000004,307,-208,16316,-2300,-75,-44,-8
3348.194,307,-208,16316,-2300,-75,-44,-8
3352.4539999999997,306,-208,16316,-2300,-75,-44,-8
3352.4539999999997,307,-208,16316,-2300,-75,-44,-8
3356.388,307,-208,16316,-2300,-75,-44,-8
3360.1549999999997,307,-216,16328,-2216,-26,-26,-6
3361.2329999999997,308,-216,16328,-2216,-26,-26,-6
3361.2329999999997,308,-216,16328,-2216,-26,-26,-6
3368.417,307,-216,16328,-2216,-26,-26,-6
3372.79,307,-216,16328,-2216,-26,-26,-6
3372.79,306,-216,16328,-2216,-26,-26,-6
3376.403,306,-216,16328,-2216,-26,-26,-6
3380.9559999999997,307,-200,16356,-2268,-13,-29,-16
3380.9559999999997,308,-200,16356,-2268,-13,-29,-16
3384.591,307,-200,16356,-2268,-13,-29,-16
3384.591,307,-200,16356,-2268,-13,-29,-16
3393.071,307,-200,16356,-2268,-13,-29,-16
3393.071,306,-200,16356,-2268,-13,-29,-16
3397.09,307,-200,16356,-2268,-13,-29,-16
3401.103,307,-200,16356,-2200,-58,-42,-18
3401.103,307,-200,16356,-2200,-58,-42,-18
3405.91,307,-200,16356,-2200,-58,-42,-18
3409.628,307,-200,16356,-2200,-58,-42,-18
3413.6440000000002,307,-200,16356,-2200,-58,-42,-18
3413.6440000000002,307,-200,16356,-2200,-58,-42,-18
3417.661,307,-200,16356,-2200,-58,-42,-18
3421.6769999999997,307,-176,16344,-2252,-36,-38,-27
3422.561,307,-176,16344,-2252,-36,-38,-27
3426.31,307,-176,16344,-2252,-36,-38,-27
3429.991,307,-176,16344,-2252,-36,-38,-27
3434.126,307,-176,16344,-2252,-36,-38,-27
3434.126,307,-176,16344,-2252,-36,-38,-27
3438.143,307,-176,16344,-2252,-36,-38,-27
3442.409,307,-200,16336,-2268,-37,-45,-8
3442.409,308,-200,16336,-2268,-37,-45,-8
3446.543,308,-200,16336,-2268,-37,-45,-8
3450.834,308,-200,16336,-2268,-37,-45,-8
3450.834,307,-200,16336,-2268,-37,-45,-8
3454.697,307,-200,16336,-2268,-37,-45,-8
3459.054,307,-200,16336,-2268,-37,-45,-8
3462.913,307,-176,16340,-2204,-40,-40,-12
3462.913,307,-176,16340,-2204,-40,-40,-12
3467.399,307,-176,16340,-2204,-40,-40,-12
3467.399,307,-176,16340,-2204,-40,-40,-12
3467.399,307,-176,16340,-2204,-40,-40,-12
3475.976,306,-176,16340,-2204,-40,-40,-12
3475.976,306,-176,16340,-2204,-40,-40,-12
3475.976,307,-204,16324,-2232,-50,-21,-6
3484.141,307,-204,16324,-2232,-50,-21,-6
3487.707,308,-204,16324,-2232,-50,-21,-6
3487.707,307,-204,16324,-2232,-50,-21,-6
3492.2580000000003,308,-204,16324,-2232,-50,-21,-6
3492.2580000000003,307,-204,16324,-2232,-50,-21,-6
3492.2580000000003,307,-204,16324,-2232,-50,-21,-6
3500.7540000000004,307,-212,16376,-2272,-40,-30,-14
3500.7540000000004,307,-212,16376,-2272,-40,-30,-14
3500.7540000000004,307,-212,16376,-2272,-40,-30,-14
3510.2419999999997,308,-212,16376,-2272,-40,-30,-14
3510.2419999999997,307,-212,16376,-2272,-40,-30,-14
3510.2419999999997,307,-212,16376,-2272,-40,-30,-14
3520.217,307,-212,16376,-2272,-40,-30,-14
3520.217,306,-192,16364,-2216,-24,-19,0
3525.026,307,-192,16364,-2216,-24,-19,0
3525.026,308,-192,16364,-2216,-24,-19,0
3525.026,307,-192,16364,-2216,-24,-19,0
3533.2180000000003,306,-192,16364,-2216,-24,-19,0
3533.2180000000003,306,-192,16364,-2216,-24,-19,0
3538.936,307,-192,16364,-2216,-24,-19,0
3541.291,307,-236,16360,-2284,-44,-37,-18
3541.291,307,-236,16360,-2284,-44,-37,-18
3541.291,308,-236,16360,-2284,-44,-37,-18
3551.5469999999996,307,-236,16360,-2284,-44,-37,-18
3551.5469999999996,306,-236,16360,-2284,-44,-37,-18
3557.7619999999997,306,-236,16360,-2284,-44,-37,-18
3558.7749999999996,307,-236,16360,-2284,-44,-37,-18
3558.7749999999996,307,-216,16284,-2244,-29,-26,1
3558.7749999999996,307,-216,16284,-2244,-29,-26,1
3566.072,307,-216,16284,-2244,-29,-26,1
3566.072,307,-216,16284,-2244,-29,-26,1
3574.372,308,-216,16284,-2244,-29,-26,1
3574.372,307,-216,16284,-2244,-29,-26,1
3576.917,306,-216,16284,-2244,-29,-26,1
3582.6820000000002,307,-216,16336,-2276,-22,-37,6
3582.6820000000002,307,-216,16336,-2276,-22,-37,6
3582.6820000000002,308,-216,16336,-2276,-22,-37,6
3582.6820000000002,307,-216,16336,-2276,-22,-37,6
3591.7110000000002,306,-216,16336,-2276,-22,-37,6
3591.7110000000002,307,-216,16336,-2276,-22,-37,6
3591.7110000000002,306,-216,16336,-2276,-22,-37,6
3599.413,307,-228,16368,-2308,-47,-32,-4
3599.413,307,-228,16368,-2308,-47,-32,-4
3599.413,307,-228,16368,-2308,-47,-32,-4
3607.809,307,-228,16368,-2308,-47,-32,-4
3607.809,306,-228,16368,-2308,-47,-32,-4
3607.809,307,-228,16368,-2308,-47,-32,-4
3616.155,307,-228,16368,-2308,-47,-32,-4
3616.155,307,-168,16328,-2240,-55,-56,-3
3616.155,307,-168,16328,-2240,-55,-56,-3
3624.474,307,-168,16328,-2240,-55,-56,-3
3624.474,307,-168,16328,-2240,-55,-56,-3
3624.474,306,-168,16328,-2240,-55,-56,-3
3632.949,307,-168,16328,-2240,-55,-56,-3
3639.283,306,-168,16328,-2240,-55,-56,-3
3641.042,307,-192,16372,-2308,4,-13,-15
3641.042,307,-192,16372,-2308,4,-13,-15
3641.042,307,-192,16372,-2308,4,-13,-15
3649.173,307,-192,16372,-2308,4,-13,-15
3649.173,307,-192,16372,-2308,4,-13,-15
3649.173,307,-192,16372,-2308,4,-13,-15
3658.2219999999998,307,-192,16372,-2308,4,-13,-15
3658.2219999999998,306,-192,16372,-2308,4,-13,-15
3658.2219999999998,307,-200,16332,-2240,-30,-23,-6
3665.327,307,-200,16332,-2240,-30,-23,-6
3665.327,307,-200,16332,-2240,-30,-23,-6
3665.327,306,-200,16332,-2240,-30,-23,-6
3673.686,307,-200,16332,-2240,-30,-23,-6
3673.686,307,-200,16332,-2240,-30,-23,-6
3673.686,307,-200,16332,-2240,-30,-23,-6
3681.817,307,-268,16324,-2252,-75,-36,7
3681.817,307,-268,16324,-2252,-75,-36,7
3681.817,307,-268,16324,-2252,-75,-36,7
3691.4410000000003,307,-268,16324,-2252,-75,-36,7
3692.2039999999997,307,-268,16324,-2252,-75,-36,7
3694.317,306,-268,16324,-2252,-75,-36,7
3698.5,307,-268,16324,-2252,-75,-36,7
3698.5,306,-192,16392,-2268,-11,-30,1
3698.5,308,-192,16392,-2268,-11,-30,1
3707.7140000000004,307,-192,16392,-2268,-11,-30,1
3709.546,307,-192,16392,-2268,-11,-30,1
3710.362,306,-192,16392,-2268,-11,-30,1
3714.5519999999997,306,-192,16392,-2268,-11,-30,1
3714.5519999999997,306,-192,16392,-2268,-11,-30,1
3714.5519999999997,307,-224,16380,-2268,8,-27,-13
3722.893,307,-224,16380,-2268,8,-27,-13
3725.963,308,-224,16380,-2268,8,-27,-13
3728.147,307,-224,16380,-2268,8,-27,-13
3731.126,307,-224,16380,-2268,8,-27,-13
3731.126,307,-224,16380,-2268,8,-27,-13
3731.126,306,-224,16380,-2268,8,-27,-13
3739.328,306,-220,16348,-2244,-51,-33,-17
3742.9869999999996,307,-220,16348,-2244,-51,-33,-17
3742.9869999999996,308,-220,16348,-2244,-51,-33,-17
3749.5980000000004,307,-220,16348,-2244,-51,-33,-17
3750.448,307,-220,16348,-2244,-51,-33,-17
3750.448,307,-220,16348,-2244,-51,-33,-17
3755.842,307,-220,16348,-2244,-51,-33,-17
3755.842,307,-208,16400,-2264,-88,-13,-3
3755.842,307,-208,16400,-2264,-88,-13,-3
3764.652,307,-208,16400,-2264,-88,-13,-3
3764.652,308,-208,16400,-2264,-88,-13,-3
3764.652,307,-208,16400,-2264,-88,-13,-3
3774.608,307,-208,16400,-2264,-88,-13,-3
3776.595,306,-208,16400,-2264,-88,-13,-3
3776.595,307,-144,16292,-2264,-6,-32,-21
3780.53,308,-144,16292,-2264,-6,-32,-21
3780.53,308,-144,16292,-2264,-6,-32,-21
3788.716,307,-144,16292,-2264,-6,-32,-21
3792.1490000000003,307,-144,16292,-2264,-6,-32,-21
3794.167,307,-144,16292,-2264,-6,-32,-21
3798.727,306,-144,16292,-2264,-6,-32,-21
3798.727,307,-204,16348,-2264,-10,-43,-21
3802.502,307,-204,16348,-2264,-10,-43,-21
3806.5159999999996,307,-204,16348,-2264,-10,-43,-21
3807.6,307,-204,16348,-2264,-10,-43,-21
3807.6,307,-204,16348,-2264,-10,-43,-21
3815.087,307,-204,16348,-2264,-10,-43,-21
3817.008,307,-204,16348,-2264,-10,-43,-21
3817.008,307,-180,16356,-2268,-79,-28,-19
3823.538,308,-180,16356,-2268,-79,-28,-19
3823.538,308,-180,16356,-2268,-79,-28,-19
3823.538,308,-180,16356,-2268,-79,-28,-19
3831.6119999999996,307,-180,16356,-2268,-79,-28,-19
3832.893,307,-180,16356,-2268,-79,-28,-19
3839.6639999999998,307,-180,16356,-2268,-79,-28,-19
3841.979,307,-220,16340,-2208,-53,-22,-14
3843.995,307,-220,16340,-2208,-53,-22,-14
3847.804,308,-220,16340,-2208,-53,-22,-14
3847.804,308,-220,16340,-2208,-53,-22,-14
3847.804,307,-220,16340,-2208,-53,-22,-14
3856.2940000000003,307,-220,16340,-2208,-53,-22,-14
3858.691,307,-220,16340,-2208,-53,-22,-14
3858.691,307,-236,16364,-2256,24,-53,-20
3864.654,308,-236,16364,-2256,24,-53,-20
3868.375,307,-236,16364,-2256,24,-53,-20
3868.375,308,-236,16364,-2256,24,-53,-20
3873.415,306,-236,16364,-2256,24,-53,-20
3874.915,306,-236,16364,-2256,24,-53,-20
3874.915,307,-236,16364,-2256,24,-53,-20
3880.8199999999997,307,-180,16368,-2264,-41,-27,-26
3880.8199999999997,308,-180,16368,-2264,-41,-27,-26
3887.8140000000003,307,-180,16368,-2264,-41,-27,-26
3889.326,308,-180,16368,-2264,-41,-27,-26
3891.916,307,-180,16368,-2264,-41,-27,-26
3897.377,307,-180,16368,-2264,-41,-27,-26
3897.881,307,-180,16368,-2264,-41,-27,-26
3897.881,307,-184,16372,-2228,-81,-24,-27
3905.395,307,-184,16372,-2228,-81,-24,-27
3905.395,307,-184,16372,-2228,-81,-24,-27
3905.395,306,-184,16372,-2228,-81,-24,-27
3913.592,307,-184,16372,-2228,-81,-24,-27
3913.592,307,-184,16372,-2228,-81,-24,-27
3913.592,307,-184,16372,-2228,-81,-24,-27
3921.482,307,-204,16296,-2260,0,-44,-2
3924.802,307,-204,16296,-2260,0,-44,-2
3924.802,308,-204,16296,-2260,0,-44,-2
3929.629,307,-204,16296,-2260,0,-44,-2
3929.629,306,-204,16296,-2260,0,-44,-2
3929.629,306,-204,16296,-2260,0,-44,-2
3938.318,307,-204,16296,-2260,0,-44,-2
3942.316,307,-208,16328,-2304,-9,-37,-16
3942.825,307,-208,16328,-2304,-9,-37,-16
3946.121,307,-208,16328,-2304,-9,-37,-16
3947.7690000000002,308,-208,16328,-2304,-9,-37,-16
3947.7690000000002,307,-208,16328,-2304,-9,-37,-16
3954.399,307,-208,16328,-2304,-9,-37,-16
3958.265,307,-208,16328,-2304,-9,-37,-16
3962.73,307,-168,16364,-2240,-76,-41,-5
3962.73,308,-168,16364,-2240,-76,-41,-5
3962.73,307,-168,16364,-2240,-76,-41,-5
3970.965,307,-168,16364,-2240,-76,-41,-5
3970.965,307,-168,16364,-2240,-76,-41,-5
3970.965,307,-168,16364,-2240,-76,-41,-5
3970.965,306,-168,16364,-2240,-76,-41,-5
3979.4649999999997,307,-200,16308,-2240,-27,-34,-15
3979.4649999999997,307,-200,16308,-2240,-27,-34,-15
3979.4649999999997,307,-200,16308,-2240,-27,-34,-15
3987.7419999999997,307,-200,16308,-2240,-27,-34,-15
3987.7419999999997,307,-200,16308,-2240,-27,-34,-15
3987.7419999999997,307,-200,16308,-2240,-27,-34,-15
3999.4429999999998,307,-200,16308,-2240,-27,-34,-15
3999.4429999999998,307,-160,16296,-2280,-15,-25,2
4004.1200000000003,307,-160,16296,-2280,-15,-25,2
4008.21,308,-160,16296,-2280,-15,-25,2
4010.223,307,-160,16296,-2280,-15,-25,2
4010.223,306,-160,16296,-2280,-15,-25,2
4012.8830000000003,306,-160,16296,-2280,-15,-25,2
4012.8830000000003,306,-160,16296,-2280,-15,-25,2
4020.421,307,-228,16364,-2272,-39,-43,-11
4023.357,307,-228,16364,-2272,-39,-43,-11
4027.495,308,-228,16364,-2272,-39,-43,-11
4028.5060000000003,307,-228,16364,-2272,-39,-43,-11
4032.1980000000003,307,-228,16364,-2272,-39,-43,-11
4036.3100000000004,306,-228,16364,-2272,-39,-43,-11
4036.3100000000004,306,-228,16364,-2272,-39,-43,-11
4040.0739999999996,307,-220,16432,-2288,-43,-23,-17
4044.0950000000003,307,-220,16432,-2288,-43,-23,-17
4048.62,306,-220,16432,-2288,-43,-23,-17
4048.62,307,-220,16432,-2288,-43,-23,-17
4052.694,306,-220,16432,-2288,-43,-23,-17
4052.694,306,-220,16432,-2288,-43,-23,-17
4059.3519999999994,307,-220,16432,-2288,-43,-23,-17
4061.0879999999997,307,-156,16368,-2312,-52,-39,-9
4061.0879999999997,307,-156,16368,-2312,-52,-39,-9
4069.178,307,-156,16368,-2312,-52,-39,-9
4070.3760000000007,307,-156,16368,-2312,-52,-39,-9
4072.155,307,-156,16368,-2312,-52,-39,-9
4077.3970000000004,306,-156,16368,-2312,-52,-39,-9
4077.3970000000004,307,-156,16368,-2312,-52,-39,-9
4081.3959999999997,307,-196,16296,-2268,-40,-46,0
4085.432,307,-196,16296,-2268,-40,-46,0
4085.432,307,-196,16296,-2268,-40,-46,0
4089.5020000000004,307,-196,16296,-2268,-40,-46,0
4093.6079999999997,307,-196,16296,-2268,-40,-46,0
4093.6079999999997,306,-196,16296,-2268,-40,-46,0
4097.764,307,-196,16296,-2268,-40,-46,0
4101.88,307,-236,16368,-2204,-28,-36,-13
4101.88,307,-236,16368,-2204,-28,-36,-13
4101.88,307,-236,16368,-2204,-28,-36,-13
4110.223999999999,306,-236,16368,-2204,-28,-36,-13
4110.223999999999,307,-236,16368,-2204,-28,-36,-13
4114.282,306,-236,16368,-2204,-28,-36,-13
4118.312000000001,307,-236,16368,-2204,-28,-36,-13
4121.454,307,-208,16316,-2272,-82,-17,-22
4121.454,307,-208,16316,-2272,-82,-17,-22
4127.588000000001,307,-208,16316,-2272,-82,-17,-22
4130.485000000001,307,-208,16316,-2272,-82,-17,-22
4134.747,307,-208,16316,-2272,-82,-17,-22
4134.747,307,-208,16316,-2272,-82,-17,-22
4138.7,307,-208,16316,-2272,-82,-17,-22
4142.307,307,-252,16280,-2276,-7,-37,2
4144.321,307,-252,16280,-2276,-7,-37,2
4144.321,307,-252,16280,-2276,-7,-37,2
4150.5599999999995,307,-252,16280,-2276,-7,-37,2
4150.5599999999995,306,-252,16280,-2276,-7,-37,2
4150.5599999999995,307,-252,16280,-2276,-7,-37,2
4158.094,307,-252,16280,-2276,-7,-37,2
4160.625,307,-252,16280,-2276,-7,-37,2
4163.277,306,-220,16360,-2268,15,-46,3
4167.293,307,-220,16360,-2268,15,-46,3
4167.293,306,-220,16360,-2268,15,-46,3
4171.526,306,-220,16360,-2268,15,-46,3
4171.526,307,-220,16360,-2268,15,-46,3
4174.932,307,-220,16360,-2268,15,-46,3
4179.654,306,-220,16360,-2268,15,-46,3
4179.654,306,-216,16320,-2236,-71,-38,-15
4183.6630000000005,306,-216,16320,-2236,-71,-38,-15
4187.8679999999995,307,-216,16320,-2236,-71,-38,-15
4190.705999999999,306,-216,16320,-2236,-71,-38,-15
4192.719999999999,307,-216,16320,-2236,-71,-38,-15
4196.031,307,-216,16320,-2236,-71,-38,-15
4199.875,306,-216,16320,-2236,-71,-38,-15
4199.875,307,-208,16268,-2264,-50,-33,-9
4199.875,307,-208,16268,-2264,-50,-33,-9
4208.343,306,-208,16268,-2264,-50,-33,-9
4210.921,307,-208,16268,-2264,-50,-33,-9
4210.921,307,-208,16268,-2264,-50,-33,-9
4216.579000000001,307,-208,16268,-2264,-50,-33,-9
4220.594,306,-208,16268,-2264,-50,-33,-9
4220.594,306,-204,16324,-2268,23,-26,-20
4224.610000000001,306,-204,16324,-2268,23,-26,-20
4228.722000000001,307,-204,16324,-2268,23,-26,-20
4228.722000000001,306,-204,16324,-2268,23,-26,-20
4232.946,306,-204,16324,-2268,23,-26,-20
4232.946,306,-204,16324,-2268,23,-26,-20
4232.946,306,-204,16324,-2268,23,-26,-20
4240.884,306,-224,16284,-2316,-65,-26,-20
4240.884,306,-224,16284,-2316,-65,-26,-20
4249.643,306,-224,16284,-2316,-65,-26,-20
4249.985,306,-224,16284,-2316,-65,-26,-20
4253.408,305,-224,16284,-2316,-65,-26,-20
4257.509,305,-224,16284,-2316,-65,-26,-20
4260.172,304,-224,16284,-2316,-65,-26,-20
4261.5109999999995,304,-200,16292,-2236,-71,-20,-20
4265.703,304,-200,16292,-2236,-71,-20,-20
4269.77,304,-200,16292,-2236,-71,-20,-20
4269.77,303,-200,16292,-2236,-71,-20,-20
4273.878,303,-200,16292,-2236,-71,-20,-20
4275.894,302,-200,16292,-2236,-71,-20,-20
4275.894,303,-200,16292,-2236,-71,-20,-20
4282.081,303,-184,16344,-2252,49,-38,-6
4284.089,303,-184,16344,-2252,49,-38,-6
4284.089,303,-184,16344,-2252,49,-38,-6
4290.47,302,-184,16344,-2252,49,-38,-6
4292.483,301,-184,16344,-2252,49,-38,-6
4297.645,300,-184,16344,-2252,49,-38,-6
4298.665,298,-184,16344,-2252,49,-38,-6
4302.544,296,-136,16348,-2248,-50,-42,-3
4307.152,296,-136,16348,-2248,-50,-42,-3
4307.86,296,-136,16348,-2248,-50,-42,-3
4307.86,295,-136,16348,-2248,-50,-42,-3
4307.86,294,-136,16348,-2248,-50,-42,-3
4315.343000000001,294,-136,16348,-2248,-50,-42,-3
4318.9039999999995,292,-136,16348,-2248,-50,-42,-3
4318.9039999999995,291,-188,16332,-2256,-112,-34,-19
4327.126,289,-188,16332,-2256,-112,-34,-19
4328.03,289,-188,16332,-2256,-112,-34,-19
4328.592000000001,290,-188,16332,-2256,-112,-34,-19
4335.302000000001,289,-188,16332,-2256,-112,-34,-19
4335.302000000001,288,-188,16332,-2256,-112,-34,-19
4335.302000000001,288,-188,16332,-2256,-112,-34,-19
4340.404,288,-176,16348,-2248,27,-22,-14
4344.057000000001,287,-176,16348,-2248,27,-22,-14
4348.528,288,-176,16348,-2248,27,-22,-14
4351.674,288,-176,16348,-2248,27,-22,-14
4351.674,289,-176,16348,-2248,27,-22,-14
4357.866999999999,288,-176,16348,-2248,27,-22,-14
4357.866999999999,289,-176,16348,-2248,27,-22,-14
4357.866999999999,291,-200,16348,-2292,-15,-46,-3
4364.746,291,-200,16348,-2292,-15,-46,-3
4365.523999999999,293,-200,16348,-2292,-15,-46,-3
4365.523999999999,294,-200,16348,-2292,-15,-46,-3
4374.786,293,-200,16348,-2292,-15,-46,-3
4374.786,294,-200,16348,-2292,-15,-46,-3
4374.786,293,-200,16348,-2292,-15,-46,-3
4380.94,294,-228,16392,-2296,-116,-35,-30
4380.94,296,-228,16392,-2296,-116,-35,-30
4389.048,295,-228,16392,-2296,-116,-35,-30
4392.14,293,-228,16392,-2296,-116,-35,-30
4396.6900000000005,294,-228,16392,-2296,-116,-35,-30
4397.419,295,-228,16392,-2296,-116,-35,-30
4400.919,296,-228,16392,-2296,-116,-35,-30
4404.9259999999995,296,-180,16380,-2220,2,-36,-5
4404.9259999999995,297,-180,16380,-2220,2,-36,-5
4409.1050000000005,298,-180,16380,-2220,2,-36,-5
4412.858,299,-180,16380,-2220,2,-36,-5
4412.858,301,-180,16380,-2220,2,-36,-5
4412.858,301,-180,16380,-2220,2,-36,-5
4421.371,302,-180,16380,-2220,2,-36,-5
4421.371,301,-176,16376,-2272,-15,-25,-26
4425.545,301,-176,16376,-2272,-15,-25,-26
4429.561,301,-176,16376,-2272,-15,-25,-26
4429.561,301,-176,16376,-2272,-15,-25,-26
4433.61,302,-176,16376,-2272,-15,-25,-26
4437.878000000001,301,-176,16376,-2272,-15,-25,-26
4440.509,298,-176,16376,-2272,-15,-25,-26
4440.509,298,-168,16324,-2300,-69,-49,-6
4446.173,301,-168,16324,-2300,-69,-49,-6
4446.173,302,-168,16324,-2300,-69,-49,-6
4446.173,303,-168,16324,-2300,-69,-49,-6
4454.197,302,-168,16324,-2300,-69,-49,-6
4458.08,301,-168,16324,-2300,-69,-49,-6
4459.334,300,-168,16324,-2300,-69,-49,-6
4462.6,302,-196,16384,-2236,-22,-24,-14
4466.396,302,-196,16384,-2236,-22,-24,-14
4470.751,302,-196,16384,-2236,-22,-24,-14
4470.751,303,-196,16384,-2236,-22,-24,-14
4475.376,303,-196,16384,-2236,-22,-24,-14
4478.6320000000005,303,-196,16384,-2236,-22,-24,-14
4478.6320000000005,303,-196,16384,-2236,-22,-24,-14
4482.553,304,-240,16396,-2276,-19,-34,-25
4486.8550000000005,305,-240,16396,-2276,-19,-34,-25
4486.8550000000005,306,-240,16396,-2276,-19,-34,-25
4491.246,305,-240,16396,-2276,-19,-34,-25
4495.006,304,-240,16396,-2276,-19,-34,-25
4498.418,304,-240,16396,-2276,-19,-34,-25
4498.418,303,-240,16396,-2276,-19,-34,-25
4503.197,301,-256,16344,-2236,-68,-48,-4
4507.563,300,-256,16344,-2236,-68,-48,-4
4511.279,301,-256,16344,-2236,-68,-48,-4
4512.255,299,-256,16344,-2236,-68,-48,-4
4515.524,301,-256,16344,-2236,-68,-48,-4
4519.647,301,-256,16344,-2236,-68,-48,-4
4519.647,302,-256,16344,-2236,-68,-48,-4
4519.647,302,-208,16324,-2248,-8,-35,-6
4528.012000000001,301,-208,16324,-2248,-8,-35,-6
4528.012000000001,301,-208,16324,-2248,-8,-35,-6
4531.900000000001,299,-208,16324,-2248,-8,-35,-6
4536.204,299,-208,16324,-2248,-8,-35,-6
4536.204,301,-208,16324,-2248,-8,-35,-6
4541.322,302,-208,16324,-2248,-8,-35,-6
4541.322,303,-240,16320,-2268,-53,-23,-10
4544.623,304,-240,16320,-2268,-53,-23,-10
4548.297,304,-240,16320,-2268,-53,-23,-10
4548.297,304,-240,16320,-2268,-53,-23,-10
4556.535,302,-240,16320,-2268,-53,-23,-10
4558.297,299,-240,16320,-2268,-53,-23,-10
4561.097,301,-240,16320,-2268,-53,-23,-10
4561.097,302,-192,16360,-2268,-62,-25,-9
4561.097,304,-192,16360,-2268,-62,-25,-9
4569.248,304,-192,16360,-2268,-62,-25,-9
4572.889,304,-192,16360,-2268,-62,-25,-9
4575.274,303,-192,16360,-2268,-62,-25,-9
4577.287,304,-192,16360,-2268,-62,-25,-9
4581.076999999999,304,-192,16360,-2268,-62,-25,-9
4581.076999999999,304,-204,16328,-2304,6,-40,-15
4585.545,302,-204,16328,-2304,6,-40,-15
4588.649,303,-204,16328,-2304,6,-40,-15
4594.004,302,-204,16328,-2304,6,-40,-15
4594.004,303,-204,16328,-2304,6,-40,-15
4597.454,304,-204,16328,-2304,6,-40,-15
4597.454,304,-204,16328,-2304,6,-40,-15
4602.018,305,-184,16340,-2280,-18,-37,-8
4605.6410000000005,305,-184,16340,-2280,-18,-37,-8
4608.72,305,-184,16340,-2280,-18,-37,-8
4610.5869999999995,306,-184,16340,-2280,-18,-37,-8
4613.8240000000005,306,-184,16340,-2280,-18,-37,-8
4613.8240000000005,304,-184,16340,-2280,-18,-37,-8
4619.058,302,-184,16340,-2280,-18,-37,-8
4621.952,302,-200,16352,-2296,-85,-34,-23
4625.545,304,-200,16352,-2296,-85,-34,-23
4630.200999999999,305,-200,16352,-2296,-85,-34,-23
4630.200999999999,305,-200,16352,-2296,-85,-34,-23
4630.200999999999,306,-200,16352,-2296,-85,-34,-23
4638.387,306,-200,16352,-2296,-85,-34,-23
4638.387,307,-200,16352,-2296,-85,-34,-23
4645.557,308,-184,16284,-2244,1,-38,-19
4647.564,309,-184,16284,-2244,1,-38,-19
4647.564,308,-184,16284,-2244,1,-38,-19
4647.564,308,-184,16284,-2244,1,-38,-19
4653.984,308,-184,16284,-2244,1,-38,-19
4657.997,308,-184,16284,-2244,1,-38,-19
4660.005,307,-184,16284,-2244,1,-38,-19
4660.005,307,-236,16300,-2308,-16,-39,-17
4660.005,308,-236,16300,-2308,-16,-39,-17
4668.383000000001,309,-236,16300,-2308,-16,-39,-17
4668.878000000001,308,-236,16300,-2308,-16,-39,-17
4676.400000000001,308,-236,16300,-2308,-16,-39,-17
4676.400000000001,309,-236,16300,-2308,-16,-39,-17
4679.299999999999,307,-236,16300,-2308,-16,-39,-17
4683.545,306,-192,16376,-2224,-79,-40,-7
4687.557,304,-192,16376,-2224,-79,-40,-7
4687.557,305,-192,16376,-2224,-79,-40,-7
4692.226,306,-192,16376,-2224,-79,-40,-7
4694.236,307,-192,16376,-2224,-79,-40,-7
4694.236,307,-192,16376,-2224,-79,-40,-7
4697.688999999999,308,-192,16376,-2224,-79,-40,-7
4701.397,308,-256,16360,-2280,-23,-45,0
4701.397,307,-256,16360,-2280,-23,-45,0
4708.122,307,-256,16360,-2280,-23,-45,0
4710.326,308,-256,16360,-2280,-23,-45,0
4712.335,308,-256,16360,-2280,-23,-45,0
4716.348,309,-256,16360,-2280,-23,-45,0
4720.359,310,-256,16360,-2280,-23,-45,0
4720.359,310,-208,16340,-2256,6,-33,4
4724.371,310,-208,16340,-2256,6,-33,4
4726.38,310,-208,16340,-2256,6,-33,4
4726.38,310,-208,16340,-2256,6,-33,4
4732.6230000000005,310,-208,16340,-2256,6,-33,4
4734.638,311,-208,16340,-2256,6,-33,4
4734.638,310,-208,16340,-2256,6,-33,4
4741.106000000001,311,-208,16340,-2256,6,-33,4
4741.106000000001,310,-192,16324,-2292,-57,-32,-6
4744.309,311,-192,16324,-2292,-57,-32,-6
4749.015,310,-192,16324,-2292,-57,-32,-6
4749.015,310,-192,16324,-2292,-57,-32,-6
4749.015,311,-192,16324,-2292,-57,-32,-6
4756.819,309,-192,16324,-2292,-57,-32,-6
4761.059,309,-192,16324,-2292,-57,-32,-6
4762.098,308,-184,16312,-2260,-23,-25,-15
4765.710999999999,308,-184,16312,-2260,-23,-25,-15
4766.216,310,-184,16312,-2260,-23,-25,-15
4770.485,310,-184,16312,-2260,-23,-25,-15
4773.219,311,-184,16312,-2260,-23,-25,-15
4777.616,310,-184,16312,-2260,-23,-25,-15
4781.481000000001,310,-184,16312,-2260,-23,-25,-15
4782.256,310,-200,16368,-2268,-1,-15,-11
4782.256,310,-200,16368,-2268,-1,-15,-11
4789.822,310,-200,16368,-2268,-1,-15,-11
4791.845,309,-200,16368,-2268,-1,-15,-11
4791.845,309,-200,16368,-2268,-1,-15,-11
4798.197,309,-200,16368,-2268,-1,-15,-11
4798.197,310,-200,16368,-2268,-1,-15,-11
4798.197,310,-188,16336,-2304,-83,-49,-1
4806.35,312,-188,16336,-2304,-83,-49,-1
4808.55,311,-188,16336,-2304,-83,-49,-1
4808.55,312,-188,16336,-2304,-83,-49,-1
4813.871,311,-188,16336,-2304,-83,-49,-1
4816.433,311,-188,16336,-2304,-83,-49,-1
4816.433,310,-188,16336,-2304,-83,-49,-1
4821.987,311,-172,16320,-2220,-46,-32,-9
4827.178,312,-172,16320,-2220,-46,-32,-9
4827.178,311,-172,16320,-2220,-46,-32,-9
4830.143999999999,312,-172,16320,-2220,-46,-32,-9
4833.323,312,-172,16320,-2220,-46,-32,-9
4838.577,312,-172,16320,-2220,-46,-32,-9
4839.654,311,-172,16320,-2220,-46,-32,-9
4840.66,311,-184,16340,-2280,42,-27,-22
4846.962,312,-184,16340,-2280,42,-27,-22
4847.848,311,-184,16340,-2280,42,-27,-22
4847.848,312,-184,16340,-2280,42,-27,-22
4855.124,311,-184,16340,-2280,42,-27,-22
4855.124,311,-184,16340,-2280,42,-27,-22
4855.124,310,-184,16340,-2280,42,-27,-22
4863.558,311,-204,16332,-2292,-74,-36,-11
4863.558,311,-204,16332,-2292,-74,-36,-11
4863.558,311,-204,16332,-2292,-74,-36,-11
4871.854,310,-204,16332,-2292,-74,-36,-11
4875.2519999999995,309,-204,16332,-2292,-74,-36,-11
4877.263,310,-204,16332,-2292,-74,-36,-11
4880.031,310,-204,16332,-2292,-74,-36,-11
4880.031,311,-160,16316,-2232,-85,-30,-5
4880.031,312,-160,16316,-2232,-85,-30,-5
4888.277,312,-160,16316,-2232,-85,-30,-5
4888.277,312,-160,16316,-2232,-85,-30,-5
4896.336,313,-160,16316,-2232,-85,-30,-5
4896.336,312,-160,16316,-2232,-85,-30,-5
4900.3589999999995,312,-160,16316,-2232,-85,-30,-5
4904.371,312,-196,16304,-2276,11,-41,-13
4904.371,313,-196,16304,-2276,11,-41,-13
4908.393,313,-196,16304,-2276,11,-41,-13
4912.824,311,-196,16304,-2276,11,-41,-13
4912.824,310,-196,16304,-2276,11,-41,-13
4917.008,310,-196,16304,-2276,11,-41,-13
4920.762,311,-196,16304,-2276,11,-41,-13
4920.762,311,-156,16360,-2296,-36,-35,-15
4924.365,312,-156,16360,-2296,-36,-35,-15
4929.15,312,-156,16360,-2296,-36,-35,-15
4932.485,311,-156,16360,-2296,-36,-35,-15
4932.485,311,-156,16360,-2296,-36,-35,-15
4937.393,311,-156,16360,-2296,-36,-35,-15
4941.109,312,-156,16360,-2296,-36,-35,-15
4941.109,312,-204,16384,-2224,-120,-44,-18
4945.756,312,-204,16384,-2224,-120,-44,-18
4946.72,311,-204,16384,-2224,-120,-44,-18
4953.794,311,-204,16384,-2224,-120,-44,-18
4953.794,312,-204,16384,-2224,-120,-44,-18
4953.794,312,-204,16384,-2224,-120,-44,-18
4962.0689999999995,311,-204,16384,-2224,-120,-44,-18
4962.0689999999995,311,-220,16324,-2228,15,-33,3
4962.0689999999995,312,-220,16324,-2228,15,-33,3
4970.375,312,-220,16324,-2228,15,-33,3
4973.763,312,-220,16324,-2228,15,-33,3
4975.349999999999,312,-220,16324,-2228,15,-33,3
4978.269,311,-220,16324,-2228,15,-33,3
4979.594999999999,312,-220,16324,-2228,15,-33,3
4980.846,311,-240,16372,-2320,-12,-31,-29
4986.518,312,-240,16372,-2320,-12,-31,-29
4989.093000000001,311,-240,16372,-2320,-12,-31,-29
4989.093000000001,312,-240,16372,-2320,-12,-31,-29
4994.705,311,-240,16372,-2320,-12,-31,-29
4994.705,311,-240,16372,-2320,-12,-31,-29
4994.705,310,-240,16372,-2320,-12,-31,-29
5002.808,312,-196,16280,-2256,-111,-46,3
5005.084,312,-196,16280,-2256,-111,-46,3
5010.983,313,-196,16280,-2256,-111,-46,3
5012.55,312,-196,16280,-2256,-111,-46,3
5015.223,311,-196,16280,-2256,-111,-46,3
5019.326999999999,312,-196,16280,-2256,-111,-46,3
5019.326999999999,312,-196,16280,-2256,-111,-46,3
5019.326999999999,312,-196,16344,-2244,6,-25,-1
5027.376,312,-196,16344,-2244,6,-25,-1
5027.376,311,-196,16344,-2244,6,-25,-1
5027.376,312,-196,16344,-2244,6,-25,-1
5035.641,312,-196,16344,-2244,6,-25,-1
5036.514999999999,311,-196,16344,-2244,6,-25,-1
5040.786,312,-196,16344,-2244,6,-25,-1
5043.826,312,-196,16344,-2244,6,-25,-1
5044.5289999999995,313,-260,16336,-2284,3,-32,-3
5047.992,312,-260,16336,-2284,3,-32,-3
5051.981,312,-260,16336,-2284,3,-32,-3
5051.981,312,-260,16336,-2284,3,-32,-3
5054.142,311,-260,16336,-2284,3,-32,-3
5054.142,311,-260,16336,-2284,3,-32,-3
5060.018,311,-260,16336,-2284,3,-32,-3
5060.018,311,-180,16344,-2236,-110,-36,-17
5068.324,312,-180,16344,-2236,-110,-36,-17
5068.324,311,-180,16344,-2236,-110,-36,-17
5068.324,310,-180,16344,-2236,-110,-36,-17
5076.692999999999,309,-180,16344,-2236,-110,-36,-17
5076.692999999999,309,-180,16344,-2236,-110,-36,-17
5076.692999999999,309,-180,16344,-2236,-110,-36,-17
5084.8060000000005,309,-212,16316,-2208,2,-51,0
5084.8060000000005,310,-212,16316,-2208,2,-51,0
5084.8060000000005,309,-212,16316,-2208,2,-51,0
5092.941,310,-212,16316,-2208,2,-51,0
5092.941,310,-212,16316,-2208,2,-51,0
5092.941,310,-212,16316,-2208,2,-51,0
5101.0869999999995,311,-212,16316,-2208,2,-51,0
5101.0869999999995,311,-212,16316,-2208,2,-51,0
5101.0869999999995,311,-212,16400,-2272,29,-36,-6
5109.623,311,-212,16400,-2272,29,-36,-6
5109.623,311,-212,16400,-2272,29,-36,-6
5109.623,310,-212,16400,-2272,29,-36,-6
5117.994000000001,310,-212,16400,-2272,29,-36,-6
5118.817,310,-212,16400,-2272,29,-36,-6
5120.831,311,-212,16400,-2272,29,-36,-6
5126.0599999999995,311,-188,16324,-2284,-116,-41,10
5126.0599999999995,311,-188,16324,-2284,-116,-41,10
5126.0599999999995,311,-188,16324,-2284,-116,-41,10
5134.26,310,-188,16324,-2284,-116,-41,10
5134.26,309,-188,16324,-2284,-116,-41,10
5140.857,310,-188,16324,-2284,-116,-41,10
5141.982,310,-188,16324,-2284,-116,-41,10
5141.982,310,-196,16284,-2220,-25,-34,-23
5141.982,311,-196,16284,-2220,-25,-34,-23
5150.454,311,-196,16284,-2220,-25,-34,-23
5150.454,310,-196,16284,-2220,-25,-34,-23
5158.522,310,-196,16284,-2220,-25,-34,-23
5158.522,311,-196,16284,-2220,-25,-34,-23
5158.522,311,-196,16284,-2220,-25,-34,-23
5166.719,311,-192,16432,-2268,74,-38,-18
5166.719,310,-192,16432,-2268,74,-38,-18
5169.581,310,-192,16432,-2268,74,-38,-18
5175.254,310,-192,16432,-2268,74,-38,-18
5177.271,309,-192,16432,-2268,74,-38,-18
5178.398999999999,309,-192,16432,-2268,74,-38,-18
5183.308,309,-192,16432,-2268,74,-38,-18
5187.287,309,-200,16296,-2280,-149,-39,-12
5187.287,310,-200,16296,-2280,-149,-39,-12
5191.803,310,-200,16296,-2280,-149,-39,-12
5195.848,309,-200,16296,-2280,-149,-39,-12
5199.8189999999995,308,-200,16296,-2280,-149,-39,-12
5202.056,310,-200,16296,-2280,-149,-39,-12
5204.0689999999995,310,-200,16308,-2200,-105,-46,-19
5207.834,311,-200,16308,-2200,-105,-46,-19
5209.851,310,-200,16308,-2200,-105,-46,-19
5212.779,310,-200,16308,-2200,-105,-46,-19
5215.945,310,-200,16308,-2200,-105,-46,-19
5220.041,309,-200,16308,-2200,-105,-46,-19
5220.041,309,-200,16308,-2200,-105,-46,-19
5224.659,309,-236,16328,-2276,103,-32,16
5224.659,310,-236,16328,-2276,103,-32,16
5224.659,310,-236,16328,-2276,103,-32,16
5233.617,310,-236,16328,-2276,103,-32,16
5236.576999999999,310,-236,16328,-2276,103,-32,16
5241.211,309,-236,16328,-2276,103,-32,16
5242.251,309,-236,16328,-2276,103,-32,16
5242.251,310,-244,16364,-2324,-62,-53,-40
5242.251,311,-244,16364,-2324,-62,-53,-40
5251.0779999999995,310,-244,16364,-2324,-62,-53,-40
5251.0779999999995,310,-244,16364,-2324,-62,-53,-40
5257.73,309,-244,16364,-2324,-62,-53,-40
5261.548000000001,309,-244,16364,-2324,-62,-53,-40
5261.548000000001,309,-244,16364,-2324,-62,-53,-40
5266.084,309,-188,16396,-2236,-146,-13,-20
5266.084,310,-188,16396,-2236,-146,-13,-20
5266.084,309,-188,16396,-2236,-146,-13,-20
5277.119,309,-188,16396,-2236,-146,-13,-20
5277.119,308,-188,16396,-2236,-146,-13,-20
5279.794,308,-188,16396,-2236,-146,-13,-20
5283.299999999999,308,-188,16396,-2236,-146,-13,-20
5283.299999999999,308,-168,16296,-2228,55,-25,-26
5283.299999999999,309,-168,16296,-2228,55,-25,-26
5291.498,309,-168,16296,-2228,55,-25,-26
5291.498,308,-168,16296,-2228,55,-25,-26
5291.498,308,-168,16296,-2228,55,-25,-26
5299.063,309,-168,16296,-2228,55,-25,-26
5299.063,308,-168,16296,-2228,55,-25,-26
5299.063,308,-160,16368,-2336,-7,-45,-11
5309.503000000001,309,-160,16368,-2336,-7,-45,-11
5309.503000000001,308,-160,16368,-2336,-7,-45,-11
5312.235000000001,308,-160,16368,-2336,-7,-45,-11
5318.514,308,-160,16368,-2336,-7,-45,-11
5318.514,309,-160,16368,-2336,-7,-45,-11
5318.514,309,-160,16368,-2336,-7,-45,-11
5324.907999999999,309,-176,16320,-2260,-130,-23,-20
5330.771000000001,309,-176,16320,-2260,-130,-23,-20
5331.398,309,-176,16320,-2260,-130,-23,-20
5331.398,309,-176,16320,-2260,-130,-23,-20
5331.398,309,-176,16320,-2260,-130,-23,-20
5341.648,309,-176,16320,-2260,-130,-23,-20
5344.481,310,-208,16372,-2216,-10,-50,-9
5344.481,309,-208,16372,-2216,-10,-50,-9
5348.215999999999,308,-208,16372,-2216,-10,-50,-9
5348.215999999999,309,-208,16372,-2216,-10,-50,-9
5348.215999999999,308,-208,16372,-2216,-10,-50,-9
5358.055,309,-208,16372,-2216,-10,-50,-9
5358.055,308,-208,16372,-2216,-10,-50,-9
5361.318,309,-180,16344,-2308,66,-26,4
5365.263,309,-180,16344,-2308,66,-26,4
5365.263,309,-180,16344,-2308,66,-26,4
5365.263,308,-180,16344,-2308,66,-26,4
5374.455,308,-180,16344,-2308,66,-26,4
5376.508000000001,309,-180,16344,-2308,66,-26,4
5378.518,310,-180,16344,-2308,66,-26,4
5381.764,310,-180,16344,-2308,66,-26,4
5381.764,309,-192,16316,-2256,-111,-29,5
5381.764,309,-192,16316,-2256,-111,-29,5
5392.103999999999,309,-192,16316,-2256,-111,-29,5
5394.113,310,-192,16316,-2256,-111,-29,5
5394.113,308,-192,16316,-2256,-111,-29,5
5398.428,309,-192,16316,-2256,-111,-29,5
5398.428,309,-192,16316,-2256,-111,-29,5
5398.428,309,-220,16400,-2220,-14,-39,-15
5408.55,308,-220,16400,-2220,-14,-39,-15
5408.55,309,-220,16400,-2220,-14,-39,-15
5408.55,308,-220,16400,-2220,-14,-39,-15
5415.095,308,-220,16400,-2220,-14,-39,-15
5415.095,307,-220,16400,-2220,-14,-39,-15
5424.613,308,-220,16400,-2220,-14,-39,-15
5424.613,308,-212,16300,-2268,7,-24,-8
5429.142,309,-212,16300,-2268,7,-24,-8
5429.142,309,-212,16300,-2268,7,-24,-8
5433.304,309,-212,16300,-2268,7,-24,-8
5433.304,309,-212,16300,-2268,7,-24,-8
5433.304,309,-212,16300,-2268,7,-24,-8
5441.6900000000005,308,-212,16300,-2268,7,-24,-8
5441.6900000000005,308,-204,16332,-2284,-91,-29,7
5441.6900000000005,309,-204,16332,-2284,-91,-29,7
5447.934,309,-204,16332,-2284,-91,-29,7
5452.15,309,-204,16332,-2284,-91,-29,7
5452.15,308,-204,16332,-2284,-91,-29,7
5456.205,308,-204,16332,-2284,-91,-29,7
5456.205,308,-204,16332,-2284,-91,-29,7
5456.205,308,-204,16332,-2284,-91,-29,7
5464.495999999999,307,-200,16320,-2232,-12,-27,-11
5464.495999999999,308,-200,16320,-2232,-12,-27,-11
5473.035000000001,307,-200,16320,-2232,-12,-27,-11
5474.688,308,-200,16320,-2232,-12,-27,-11
5478.177,308,-200,16320,-2232,-12,-27,-11
5482.329,309,-200,16320,-2232,-12,-27,-11
5482.329,308,-224,16324,-2272,30,-40,-14
5485.664,308,-224,16324,-2272,30,-40,-14
5489.93,309,-224,16324,-2272,30,-40,-14
5494.558,308,-224,16324,-2272,30,-40,-14
5494.558,308,-224,16324,-2272,30,-40,-14
5498.564,308,-224,16324,-2272,30,-40,-14
5502.23,309,-224,16324,-2272,30,-40,-14
5502.23,310,-224,16324,-2272,30,-40,-14
5506.727,309,-224,16364,-2316,-88,-36,4
5509.2210000000005,309,-224,16364,-2316,-88,-36,4
5511.231000000001,309,-224,16364,-2316,-88,-36,4
5514.935,309,-224,16364,-2316,-88,-36,4
5519.033,309,-224,16364,-2316,-88,-36,4
5519.033,308,-224,16364,-2316,-88,-36,4
5523.314,309,-224,16364,-2316,-88,-36,4
5526.679999999999,309,-160,16332,-2248,-70,-36,-7
5526.679999999999,309,-160,16332,-2248,-70,-36,-7
5531.29,309,-160,16332,-2248,-70,-36,-7
5531.29,308,-160,16332,-2248,-70,-36,-7
5531.29,308,-160,16332,-2248,-70,-36,-7
5539.508,309,-160,16332,-2248,-70,-36,-7
5543.098,308,-160,16332,-2248,-70,-36,-7
5547.6900000000005,309,-224,16276,-2264,20,-26,-11
5547.6900000000005,309,-224,16276,-2264,20,-26,-11
5547.6900000000005,308,-224,16276,-2264,20,-26,-11
5555.901000000001,308,-224,16276,-2264,20,-26,-11
5557.727,308,-224,16276,-2264,20,-26,-11
5557.727,309,-224,16276,-2264,20,-26,-11
5564.058,308,-224,16276,-2264,20,-26,-11
5564.058,308,-192,16360,-2280,-44,-42,-12
5564.058,309,-192,16360,-2280,-44,-42,-12
5572.486,308,-192,16360,-2280,-44,-42,-12
5575.305,309,-192,16360,-2280,-44,-42,-12
5575.305,308,-192,16360,-2280,-44,-42,-12
5580.629,308,-192,16360,-2280,-44,-42,-12
5580.629,309,-192,16360,-2280,-44,-42,-12
5585.216,309,-176,16368,-2276,-74,-32,-13
5588.74,309,-176,16368,-2276,-74,-32,-13
5592.183999999999,308,-176,16368,-2276,-74,-32,-13
5596.1759999999995,308,-176,16368,-2276,-74,-32,-13
5597.188,309,-176,16368,-2276,-74,-32,-13
5599.247,308,-176,16368,-2276,-74,-32,-13
5605.238,308,-176,16368,-2276,-74,-32,-13
5605.238,309,-216,16316,-2268,-14,-30,19
5608.382,309,-216,16316,-2268,-14,-30,19
5613.333,308,-216,16316,-2268,-14,-30,19
5613.333,307,-216,16316,-2268,-14,-30,19
5613.333,307,-216,16316,-2268,-14,-30,19
5621.46,306,-216,16316,-2268,-14,-30,19
5625.536,306,-216,16316,-2268,-14,-30,19
5627.553,307,-156,16316,-2280,-29,-35,-16
5629.505,307,-156,16316,-2280,-29,-35,-16
5633.473999999999,307,-156,16316,-2280,-29,-35,-16
5633.473999999999,307,-156,16316,-2280,-29,-35,-16
5637.8060000000005,307,-156,16316,-2280,-29,-35,-16
5642.111,307,-156,16316,-2280,-29,-35,-16
5645.9169999999995,308,-156,16316,-2280,-29,-35,-16
5646.762,309,-204,16396,-2284,-50,-39,-11
5646.762,308,-204,16396,-2284,-50,-39,-11
5654.376,308,-204,16396,-2284,-50,-39,-11
5654.376,308,-204,16396,-2284,-50,-39,-11
5658.876,307,-204,16396,-2284,-50,-39,-11
5660.224999999999,308,-204,16396,-2284,-50,-39,-11
5662.848999999999,307,-192,16388,-2264,-37,-32,-14
5662.848999999999,308,-192,16388,-2264,-37,-32,-14
5670.886,307,-192,16388,-2264,-37,-32,-14
5674.112,307,-192,16388,-2264,-37,-32,-14
5676.126,307,-192,16388,-2264,-37,-32,-14
5678.093,308,-192,16388,-2264,-37,-32,-14
5682.781,308,-192,16388,-2264,-37,-32,-14
5686.954,308,-200,16312,-2252,-42,-45,-4
5688.121,308,-200,16312,-2252,-42,-45,-4
5691.506,308,-200,16312,-2252,-42,-45,-4
5695.145,308,-200,16312,-2252,-42,-45,-4
5695.145,307,-200,16312,-2252,-42,-45,-4
5697.284,308,-200,16312,-2252,-42,-45,-4
5703.304,308,-200,16312,-2252,-42,-45,-4
5703.304,307,-156,16332,-2256,-24,-37,-12
5708.0019999999995,307,-156,16332,-2256,-24,-37,-12
5711.761,307,-156,16332,-2256,-24,-37,-12
5715.1630000000005,307,-156,16332,-2256,-24,-37,-12
5715.1630000000005,307,-156,16332,-2256,-24,-37,-12
5719.742,307,-156,16332,-2256,-24,-37,-12
5724.674,307,-156,16332,-2256,-24,-37,-12
5724.674,308,-180,16304,-2284,-58,-19,3
5728.0509999999995,308,-180,16304,-2284,-58,-19,3
5728.0509999999995,307,-180,16304,-2284,-58,-19,3
5728.0509999999995,307,-180,16304,-2284,-58,-19,3
5736.13,307,-180,16304,-2284,-58,-19,3
5741.092,308,-180,16304,-2284,-58,-19,3
5742.108,307,-180,16304,-2284,-58,-19,3
5744.341,308,-216,16316,-2276,-39,-35,-8
5744.341,308,-216,16316,-2276,-39,-35,-8
5744.341,308,-216,16316,-2276,-39,-35,-8
5752.387,307,-216,16316,-2276,-39,-35,-8
5756.398,307,-216,16316,-2276,-39,-35,-8
5760.432,308,-216,16316,-2276,-39,-35,-8
5760.432,308,-216,16316,-2276,-39,-35,-8
5763.8460000000005,308,-224,16348,-2268,12,-34,4
5768.643,307,-224,16348,-2268,12,-34,4
5768.643,308,-224,16348,-2268,12,-34,4
5771.749,307,-224,16348,-2268,12,-34,4
5776.979,308,-224,16348,-2268,12,-34,4
5776.979,307,-224,16348,-2268,12,-34,4
5781.174,307,-224,16348,-2268,12,-34,4
5781.174,308,-224,16348,-2268,12,-34,4
5785.278,308,-236,16352,-2268,-93,-43,-20
5788.958,308,-236,16352,-2268,-93,-43,-20
5792.652999999999,308,-236,16352,-2268,-93,-43,-20
5793.661,307,-236,16352,-2268,-93,-43,-20
5793.661,308,-236,16352,-2268,-93,-43,-20
5793.661,308,-236,16352,-2268,-93,-43,-20
5801.878000000001,308,-236,16352,-2268,-93,-43,-20
5805.249,308,-252,16272,-2276,-34,-38,-6
5810.232,308,-252,16272,-2276,-34,-38,-6
5813.951999999999,308,-252,16272,-2276,-34,-38,-6
5814.77,307,-252,16272,-2276,-34,-38,-6
5816.487,307,-252,16272,-2276,-34,-38,-6
5821.585,307,-252,16272,-2276,-34,-38,-6
5822.637000000001,308,-252,16272,-2276,-34,-38,-6
5826.691000000001,307,-252,16372,-2264,26,-39,2
5828.702,308,-252,16372,-2264,26,-39,2
5830.708,308,-252,16372,-2264,26,-39,2
5830.708,307,-252,16372,-2264,26,-39,2
5838.529,307,-252,16372,-2264,26,-39,2
5838.529,308,-252,16372,-2264,26,-39,2
5842.974,308,-252,16372,-2264,26,-39,2
5846.675,308,-208,16332,-2272,-95,-45,-12
5846.675,307,-208,16332,-2272,-95,-45,-12
5846.675,308,-208,16332,-2272,-95,-45,-12
5854.904,307,-208,16332,-2272,-95,-45,-12
5854.904,307,-208,16332,-2272,-95,-45,-12
5859.993,308,-208,16332,-2272,-95,-45,-12
5863.083,308,-208,16332,-2272,-95,-45,-12
5863.083,308,-200,16300,-2244,-42,-51,1
5868.016,308,-200,16300,-2244,-42,-51,1
5869.268,308,-200,16300,-2244,-42,-51,1
5869.268,308,-200,16300,-2244,-42,-51,1
5876.185,308,-200,16300,-2244,-42,-51,1
5879.5109999999995,308,-200,16300,-2244,-42,-51,1
5879.5109999999995,308,-200,16300,-2244,-42,-51,1
5884.374,308,-200,16300,-2244,-42,-51,1
5884.374,308,-180,16356,-2224,18,-47,-8
5891.544,308,-180,16356,-2224,18,-47,-8
5892.709,307,-180,16356,-2224,18,-47,-8
5895.477,308,-180,16356,-2224,18,-47,-8
5895.477,307,-180,16356,-2224,18,-47,-8
5901.134,307,-180,16356,-2224,18,-47,-8
5904.19,307,-180,16356,-2224,18,-47,-8
5907.68,307,-236,16392,-2276,-59,-38,-5
5910.107,308,-236,16392,-2276,-59,-38,-5
5912.406,308,-236,16392,-2276,-59,-38,-5
5912.406,308,-236,16392,-2276,-59,-38,-5
5917.5560000000005,308,-236,16392,-2276,-59,-38,-5
5920.402,308,-236,16392,-2276,-59,-38,-5
5925.73,307,-236,16392,-2276,-59,-38,-5
5925.73,307,-204,16376,-2252,-82,-39,-11
5925.73,307,-204,16376,-2252,-82,-39,-11
5925.73,307,-204,16376,-2252,-82,-39,-11
5933.969,308,-204,16376,-2252,-82,-39,-11
5933.969,308,-204,16376,-2252,-82,-39,-11
5942.040999999999,308,-204,16376,-2252,-82,-39,-11
5942.040999999999,308,-204,16376,-2252,-82,-39,-11
5942.040999999999,309,-168,16316,-2260,11,-33,-1
5949.789,307,-168,16316,-2260,11,-33,-1
5953.245,308,-168,16316,-2260,11,-33,-1
5954.045,307,-168,16316,-2260,11,-33,-1
5958.74,308,-168,16316,-2260,11,-33,-1
5958.74,308,-168,16316,-2260,11,-33,-1
5958.74,307,-168,16316,-2260,11,-33,-1
5967.41,307,-200,16372,-2244,-6,-29,-20
5967.41,308,-200,16372,-2244,-6,-29,-20
5967.41,308,-200,16372,-2244,-6,-29,-20
5975.055,307,-200,16372,-2244,-6,-29,-20
5975.055,307,-200,16372,-2244,-6,-29,-20
5980.33,307,-200,16372,-2244,-6,-29,-20
5984.142000000001,307,-200,16372,-2244,-6,-29,-20
5984.759,307,-216,16320,-2296,-84,-37,-10
5984.759,307,-216,16320,-2296,-84,-37,-10
5991.513,307,-216,16320,-2296,-84,-37,-10
5991.513,307,-216,16320,-2296,-84,-37,-10
5991.513,307,-216,16320,-2296,-84,-37,-10
6001.815,307,-216,16320,-2296,-84,-37,-10
6001.815,307,-216,16320,-2296,-84,-37,-10
6005.845,307,-224,16356,-2236,-52,-35,-1
6009.31,307,-224,16356,-2236,-52,-35,-1
6011.95,308,-224,16356,-2236,-52,-35,-1
6012.474,308,-224,16356,-2236,-52,-35,-1
6016.303,307,-224,16356,-2236,-52,-35,-1
6016.303,307,-224,16356,-2236,-52,-35,-1
6025.43,308,-224,16356,-2236,-52,-35,-1
6025.43,307,-212,16312,-2256,-5,-40,-4
6025.43,307,-212,16312,-2256,-5,-40,-4
6032.92,306,-212,16312,-2256,-5,-40,-4
6032.92,307,-212,16312,-2256,-5,-40,-4
6038.1720000000005,306,-212,16312,-2256,-5,-40,-4
6039.821,306,-212,16312,-2256,-5,-40,-4
6041.960999999999,307,-212,16312,-2256,-5,-40,-4
6041.960999999999,307,-220,16348,-2304,-27,-40,8
6041.960999999999,307,-220,16348,-2304,-27,-40,8
6051.169,307,-220,16348,-2304,-27,-40,8
6055.179,308,-220,16348,-2304,-27,-40,8
6055.179,307,-220,16348,-2304,-27,-40,8
6057.635,306,-220,16348,-2304,-27,-40,8
6057.635,306,-220,16348,-2304,-27,-40,8
6057.635,307,-208,16368,-2252,-87,-28,-3
6065.6179999999995,307,-208,16368,-2252,-87,-28,-3
6065.6179999999995,307,-208,16368,-2252,-87,-28,-3
6073.677,307,-208,16368,-2252,-87,-28,-3
6075.701,306,-208,16368,-2252,-87,-28,-3
6075.701,307,-208,16368,-2252,-87,-28,-3
6082.046,307,-208,16368,-2252,-87,-28,-3
6082.046,307,-208,16368,-2252,-87,-28,-3
6087.233,308,-180,16312,-2224,-5,-40,-7
6091.783,308,-180,16312,-2224,-5,-40,-7
6091.783,308,-180,16312,-2224,-5,-40,-7
6091.783,307,-180,16312,-2224,-5,-40,-7
6100.816,307,-180,16312,-2224,-5,-40,-7
6101.274,307,-180,16312,-2224,-5,-40,-7
6101.274,308,-180,16312,-2224,-5,-40,-7
6106.617,307,-200,16376,-2252,7,-41,-25
6106.617,307,-200,16376,-2252,7,-41,-25
6106.617,307,-200,16376,-2252,7,-41,-25
6115.016,307,-200,16376,-2252,7,-41,-25
6115.016,307,-200,16376,-2252,7,-41,-25
6115.016,306,-200,16376,-2252,7,-41,-25
6124.403,306,-200,16376,-2252,7,-41,-25
6126.414,307,-200,16320,-2260,-97,-23,-4
6128.692,307,-200,16320,-2260,-97,-23,-4
6132.523,307,-200,16320,-2260,-97,-23,-4
6134.531,307,-200,16320,-2260,-97,-23,-4
6134.531,307,-200,16320,-2260,-97,-23,-4
6140.063999999999,307,-200,16320,-2260,-97,-23,-4
6142.085,307,-200,16320,-2260,-97,-23,-4
6142.085,307,-184,16368,-2260,-41,-40,0
6148.445,307,-184,16368,-2260,-41,-40,0
6148.445,307,-184,16368,-2260,-41,-40,0
6148.445,307,-184,16368,-2260,-41,-40,0
6158.508000000001,307,-184,16368,-2260,-41,-40,0
6161.444,306,-184,16368,-2260,-41,-40,0
6162.988,307,-184,16368,-2260,-41,-40,0
6165.967000000001,307,-196,16324,-2248,-1,-40,-3
6168.567999999999,307,-196,16324,-2248,-1,-40,-3
6168.567999999999,308,-196,16324,-2248,-1,-40,-3
6175.223,307,-196,16324,-2248,-1,-40,-3
6177.415,307,-196,16324,-2248,-1,-40,-3
6179.758,307,-196,16324,-2248,-1,-40,-3
6182.403,307,-196,16324,-2248,-1,-40,-3
6182.403,307,-196,16324,-2248,-1,-40,-3
6182.403,306,-212,16352,-2292,-107,-34,-12
6189.294,307,-212,16352,-2292,-107,-34,-12
6192.205999999999,307,-212,16352,-2292,-107,-34,-12
6198.9349999999995,307,-212,16352,-2292,-107,-34,-12
6198.9349999999995,307,-212,16352,-2292,-107,-34,-12
6198.9349999999995,307,-212,16352,-2292,-107,-34,-12
6207.424,308,-188,16364,-2228,-61,-52,-21
6209.351,308,-188,16364,-2228,-61,-52,-21
6211.541,308,-188,16364,-2228,-61,-52,-21
6215.343,307,-188,16364,-2228,-61,-52,-21
6219.427,308,-188,16364,-2228,-61,-52,-21
6220.688,307,-188,16364,-2228,-61,-52,-21
6224.536999999999,307,-188,16364,-2228,-61,-52,-21
6226.054,307,-180,16352,-2268,-8,-53,-18
6226.054,307,-180,16352,-2268,-8,-53,-18
6231.779,307,-180,16352,-2268,-8,-53,-18
6231.779,308,-180,16352,-2268,-8,-53,-18
6231.779,307,-180,16352,-2268,-8,-53,-18
6241.0019999999995,307,-180,16352,-2268,-8,-53,-18
6242.015,307,-180,16352,-2268,-8,-53,-18
6248.076,307,-196,16316,-2288,-86,-30,-7
6248.076,308,-196,16316,-2288,-86,-30,-7
6251.159000000001,307,-196,16316,-2288,-86,-30,-7
6256.331999999999,307,-196,16316,-2288,-86,-30,-7
6257.066,306,-196,16316,-2288,-86,-30,-7
6259.118,307,-196,16316,-2288,-86,-30,-7
6264.452,307,-196,16316,-2288,-86,-30,-7
6264.452,307,-160,16340,-2276,-63,-40,-26
6268.664000000001,308,-160,16340,-2276,-63,-40,-26
6272.679,307,-160,16340,-2276,-63,-40,-26
6274.924999999999,307,-160,16340,-2276,-63,-40,-26
6274.924999999999,307,-160,16340,-2276,-63,-40,-26
6280.942,307,-160,16340,-2276,-63,-40,-26
6280.942,307,-160,16340,-2276,-63,-40,-26
6280.942,307,-208,16388,-2272,25,-48,-18
6289.168,307,-208,16388,-2272,25,-48,-18
6293.8460000000005,307,-208,16388,-2272,25,-48,-18
6297.189,308,-208,16388,-2272,25,-48,-18
6297.189,307,-208,16388,-2272,25,-48,-18
6297.189,307,-208,16388,-2272,25,-48,-18
6305.4529999999995,307,-208,16388,-2272,25,-48,-18
6308.398999999999,307,-204,16308,-2260,-59,-41,-15
6309.281,308,-204,16308,-2260,-59,-41,-15
6313.5560000000005,308,-204,16308,-2260,-59,-41,-15
6313.5560000000005,307,-204,16308,-2260,-59,-41,-15
6313.5560000000005,306,-204,16308,-2260,-59,-41,-15
6322.048,307,-204,16308,-2260,-59,-41,-15
6325.831,306,-204,16308,-2260,-59,-41,-15
6325.831,307,-160,16304,-2228,-86,-28,-3
6330.158,308,-160,16304,-2228,-86,-28,-3
6332.18,307,-160,16304,-2228,-86,-28,-3
6332.18,307,-160,16304,-2228,-86,-28,-3
6338.456,307,-160,16304,-2228,-86,-28,-3
6342.7480000000005,308,-160,16304,-2228,-86,-28,-3
6342.7480000000005,308,-160,16304,-2228,-86,-28,-3
6346.534000000001,308,-164,16352,-2256,38,-30,1
6348.972,307,-164,16352,-2256,38,-30,1
6348.972,308,-164,16352,-2256,38,-30,1
6354.706,307,-164,16352,-2256,38,-30,1
6358.846,306,-164,16352,-2256,38,-30,1
6358.846,306,-164,16352,-2256,38,-30,1
6362.743,307,-164,16352,-2256,38,-30,1
6362.743,307,-164,16352,-2256,38,-30,1
6367.638999999999,307,-156,16364,-2212,-21,-45,-13
6370.796,308,-156,16364,-2212,-21,-45,-13
6375.397999999999,308,-156,16364,-2212,-21,-45,-13
6379.165999999999,307,-156,16364,-2212,-21,-45,-13
6380.558,307,-156,16364,-2212,-21,-45,-13
6382.571000000001,307,-156,16364,-2212,-21,-45,-13
6386.603,307,-156,16364,-2212,-21,-45,-13
6387.611,307,-228,16372,-2264,-88,-59,-24
6392.405,308,-228,16372,-2264,-88,-59,-24
6394.42,307,-228,16372,-2264,-88,-59,-24
6397.956,307,-228,16372,-2264,-88,-59,-24
6399.969999999999,307,-228,16372,-2264,-88,-59,-24
6403.994,307,-228,16372,-2264,-88,-59,-24
6408.019,307,-240,16372,-2260,-10,-26,-13
6408.851000000001,307,-240,16372,-2260,-10,-26,-13
6412.366,307,-240,16372,-2260,-10,-26,-13
6415.185,307,-240,16372,-2260,-10,-26,-13
6419.207,306,-240,16372,-2260,-10,-26,-13
6420.723,307,-240,16372,-2260,-10,-26,-13
6424.518,307,-240,16372,-2260,-10,-26,-13
6427.331,307,-212,16324,-2268,-13,-55,5
6429.085,307,-212,16324,-2268,-13,-55,5
6431.099999999999,306,-212,16324,-2268,-13,-55,5
6435.1320000000005,306,-212,16324,-2268,-13,-55,5
6437.147999999999,306,-212,16324,-2268,-13,-55,5
6440.815,306,-212,16324,-2268,-13,-55,5
6444.392,307,-212,16324,-2268,-13,-55,5
6445.405,308,-236,16344,-2240,-47,-42,-21
6447.418,308,-236,16344,-2240,-47,-42,-21
6451.443,308,-236,16344,-2240,-47,-42,-21
6455.474999999999,307,-236,16344,-2240,-47,-42,-21
6457.942,308,-236,16344,-2240,-47,-42,-21
6460.787,307,-236,16344,-2240,-47,-42,-21
6463.821,308,-236,16344,-2240,-47,-42,-21
6465.830000000001,307,-220,16408,-2260,-36,-33,-13
6468.958,308,-220,16408,-2260,-36,-33,-13
6469.964,308,-220,16408,-2260,-36,-33,-13
6474.601,306,-220,16408,-2260,-36,-33,-13
6478.423000000001,307,-220,16408,-2260,-36,-33,-13
6478.423000000001,307,-220,16408,-2260,-36,-33,-13
6484.6089999999995,307,-220,16408,-2260,-36,-33,-13
6486.621999999999,308,-156,16364,-2336,-56,-43,-13
6486.621999999999,309,-156,16364,-2336,-56,-43,-13
6493.9220000000005,307,-156,16364,-2336,-56,-43,-13
6494.933,308,-156,16364,-2336,-56,-43,-13
6494.933,307,-156,16364,-2336,-56,-43,-13
6500.317,306,-156,16364,-2336,-56,-43,-13
6506.156,308,-156,16364,-2336,-56,-43,-13
6507.947,308,-196,16304,-2224,-60,-37,-21
6507.947,307,-196,16304,-2224,-60,-37,-21
6514.522,308,-196,16304,-2224,-60,-37,-21
6518.608,307,-196,16304,-2224,-60,-37,-21
6518.608,307,-196,16304,-2224,-60,-37,-21
6518.608,307,-196,16304,-2224,-60,-37,-21
6527.137,307,-196,16304,-2224,-60,-37,-21
6528.407999999999,307,-200,16404,-2264,-24,-35,0
6528.407999999999,307,-200,16404,-2264,-24,-35,0
6535.282999999999,307,-200,16404,-2264,-24,-35,0
6535.282999999999,307,-200,16404,-2264,-24,-35,0
6538.858,307,-200,16404,-2264,-24,-35,0
6542.7609999999995,307,-200,16404,-2264,-24,-35,0
6543.786,307,-200,16404,-2264,-24,-35,0
6543.786,308,-228,16376,-2288,-59,-45,1
6543.786,307,-228,16376,-2288,-59,-45,1
6551.968,307,-228,16376,-2288,-59,-45,1
6555.53,308,-228,16376,-2288,-59,-45,1
6558.187,308,-228,16376,-2288,-59,-45,1
6560.371,307,-228,16376,-2288,-59,-45,1
6563.473,308,-228,16376,-2288,-59,-45,1
6567.790999999999,308,-172,16344,-2260,-25,-23,-3
6570.958,308,-172,16344,-2260,-25,-23,-3
6570.958,308,-172,16344,-2260,-25,-23,-3
6574.484,307,-172,16344,-2260,-25,-23,-3
6576.942,307,-172,16344,-2260,-25,-23,-3
6576.942,307,-172,16344,-2260,-25,-23,-3
6576.942,307,-172,16344,-2260,-25,-23,-3
6585.133,307,-236,16328,-2292,-20,-31,-14
6585.133,308,-236,16328,-2292,-20,-31,-14
6591.834000000001,307,-236,16328,-2292,-20,-31,-14
6593.702,307,-236,16328,-2292,-20,-31,-14
6593.702,307,-236,16328,-2292,-20,-31,-14
6602.222000000001,307,-236,16328,-2292,-20,-31,-14
6602.222000000001,307,-236,16328,-2292,-20,-31,-14
6608.527999999999,307,-208,16316,-2272,-65,-33,-18
6610.558,308,-208,16316,-2272,-65,-33,-18
6610.558,308,-208,16316,-2272,-65,-33,-18
6610.558,307,-208,16316,-2272,-65,-33,-18
6619.031,306,-208,16316,-2272,-65,-33,-18
6619.031,307,-208,16316,-2272,-65,-33,-18
6619.031,307,-208,16316,-2272,-65,-33,-18
6627.211,308,-212,16328,-2272,-42,-49,-16
6627.211,308,-212,16328,-2272,-42,-49,-16
6627.211,307,-212,16328,-2272,-42,-49,-16
6637.450000000001,307,-212,16328,-2272,-42,-49,-16
6637.450000000001,307,-212,16328,-2272,-42,-49,-16
6643.178,306,-212,16328,-2272,-42,-49,-16
6643.178,306,-212,16328,-2272,-42,-49,-16
6643.178,307,-188,16328,-2264,-25,-30,-5
6651.360000000001,308,-188,16328,-2264,-25,-30,-5
6651.360000000001,307,-188,16328,-2264,-25,-30,-5
6651.360000000001,307,-188,16328,-2264,-25,-30,-5
6659.4800000000005,307,-188,16328,-2264,-25,-30,-5
6659.4800000000005,307,-188,16328,-2264,-25,-30,-5
6659.4800000000005,308,-188,16328,-2264,-25,-30,-5
6670.1759999999995,308,-176,16376,-2272,-45,-54,-11
6670.664000000001,308,-176,16376,-2272,-45,-54,-11
6670.664000000001,307,-176,16376,-2272,-45,-54,-11
6675.985,308,-176,16376,-2272,-45,-54,-11
6675.985,306,-176,16376,-2272,-45,-54,-11
6680.403,307,-176,16376,-2272,-45,-54,-11
6684.288,307,-176,16376,-2272,-45,-54,-11
6684.288,307,-192,16356,-2220,-56,-26,-25
6692.431,307,-192,16356,-2220,-56,-26,-25
6692.431,307,-192,16356,-2220,-56,-26,-25
6692.431,307,-192,16356,-2220,-56,-26,-25
6700.596,307,-192,16356,-2220,-56,-26,-25
6700.596,307,-192,16356,-2220,-56,-26,-25
6707.885,308,-192,16356,-2220,-56,-26,-25
6708.878000000001,307,-200,16364,-2288,-42,-32,-5
6708.878000000001,308,-200,16364,-2288,-42,-32,-5
6708.878000000001,308,-200,16364,-2288,-42,-32,-5
6716.831,306,-200,16364,-2288,-42,-32,-5
6716.831,307,-200,16364,-2288,-42,-32,-5
6716.831,308,-200,16364,-2288,-42,-32,-5
6725.309,307,-200,16364,-2288,-42,-32,-5
6725.309,308,-240,16392,-2264,-54,-44,-1
6725.309,308,-240,16392,-2264,-54,-44,-1
6733.782,308,-240,16392,-2264,-54,-44,-1
6733.782,307,-240,16392,-2264,-54,-44,-1
6733.782,307,-240,16392,-2264,-54,-44,-1
6743.493,307,-240,16392,-2264,-54,-44,-1
6743.493,307,-240,16392,-2264,-54,-44,-1
6750.0650000000005,307,-224,16360,-2252,-43,-43,-13
6750.0650000000005,307,-224,16360,-2252,-43,-43,-13
6754.5830000000005,306,-224,16360,-2252,-43,-43,-13
6758.437,307,-224,16360,-2252,-43,-43,-13
6758.437,306,-224,16360,-2252,-43,-43,-13
6758.437,306,-224,16360,-2252,-43,-43,-13
6766.513,307,-224,16360,-2252,-43,-43,-13
6766.513,307,-208,16340,-2252,-3,-39,3
6766.513,307,-208,16340,-2252,-3,-39,3
6776.408,307,-208,16340,-2252,-3,-39,3
6777.562,307,-208,16340,-2252,-3,-39,3
6777.562,306,-208,16340,-2252,-3,-39,3
6782.563999999999,307,-208,16340,-2252,-3,-39,3
6784.579,306,-208,16340,-2252,-3,-39,3
6788.5960000000005,307,-192,16392,-2276,-28,-37,-23
6791.286999999999,307,-192,16392,-2276,-28,-37,-23
6791.286999999999,307,-192,16392,-2276,-28,-37,-23
6791.286999999999,307,-192,16392,-2276,-28,-37,-23
6801.285,307,-192,16392,-2276,-28,-37,-23
6801.285,307,-192,16392,-2276,-28,-37,-23
6801.285,307,-192,16392,-2276,-28,-37,-23
6808.9130000000005,307,-228,16368,-2240,-68,-34,7
6810.933,307,-228,16368,-2240,-68,-34,7
6810.933,307,-228,16368,-2240,-68,-34,7
6814.962,306,-228,16368,-2240,-68,-34,7
6814.962,307,-228,16368,-2240,-68,-34,7
6814.962,307,-228,16368,-2240,-68,-34,7
6826.0560000000005,307,-228,16368,-2240,-68,-34,7
6828.072,307,-208,16372,-2252,-14,-61,-12
6831.65,307,-208,16372,-2252,-14,-61,-12
6831.65,308,-208,16372,-2252,-14,-61,-12
6831.65,307,-208,16372,-2252,-14,-61,-12
6839.984,307,-208,16372,-2252,-14,-61,-12
6841.766,307,-208,16372,-2252,-14,-61,-12
6843.7210000000005,307,-208,16372,-2252,-14,-61,-12
6848.073,308,-188,16392,-2316,-12,-46,-3
6848.073,307,-188,16392,-2316,-12,-46,-3
6848.073,307,-188,16392,-2316,-12,-46,-3
6857.3009999999995,307,-188,16392,-2316,-12,-46,-3
6860.591,306,-188,16392,-2316,-12,-46,-3
6861.466,307,-188,16392,-2316,-12,-46,-3
6866.6359999999995,306,-188,16392,-2316,-12,-46,-3
6867.039,307,-216,16368,-2272,-67,-33,-15
6867.039,307,-216,16368,-2272,-67,-33,-15
6874.894,306,-216,16368,-2272,-67,-33,-15
6875.924999999999,307,-216,16368,-2272,-67,-33,-15
6875.924999999999,307,-216,16368,-2272,-67,-33,-15
6882.982,307,-216,16368,-2272,-67,-33,-15
6883.863,306,-216,16368,-2272,-67,-33,-15
6889.1140000000005,307,-268,16304,-2272,-27,-33,4
6891.72,307,-268,16304,-2272,-27,-33,4
6891.72,307,-268,16304,-2272,-27,-33,4
6897.157,307,-268,16304,-2272,-27,-33,4
6897.157,307,-268,16304,-2272,-27,-33,4
6897.157,307,-268,16304,-2272,-27,-33,4
6897.157,307,-268,16304,-2272,-27,-33,4
6905.665,307,-188,16288,-2268,-8,-47,-27
6905.665,307,-188,16288,-2268,-8,-47,-27
6905.665,307,-188,16288,-2268,-8,-47,-27
6915.93,306,-188,16288,-2268,-8,-47,-27
6917.017000000001,306,-188,16288,-2268,-8,-47,-27
6922.049999999999,307,-188,16288,-2268,-8,-47,-27
6922.049999999999,307,-188,16288,-2268,-8,-47,-27
6922.049999999999,307,-184,16292,-2256,-54,-41,-8
6932.118,307,-184,16292,-2256,-54,-41,-8
6932.118,307,-184,16292,-2256,-54,-41,-8
6932.118,308,-184,16292,-2256,-54,-41,-8
6938.835,307,-184,16292,-2256,-54,-41,-8
6942.108,307,-184,16292,-2256,-54,-41,-8
6943.622,307,-184,16292,-2256,-54,-41,-8
6947.17,308,-208,16332,-2232,-40,-41,-6
6949.187,307,-208,16332,-2232,-40,-41,-6
6949.187,308,-208,16332,-2232,-40,-41,-6
6955.51,307,-208,16332,-2232,-40,-41,-6
6958.688999999999,306,-208,16332,-2232,-40,-41,-6
6958.688999999999,306,-208,16332,-2232,-40,-41,-6
6963.6990000000005,305,-208,16332,-2232,-40,-41,-6
6968.865,307,-184,16292,-2296,-10,-30,-17
6968.865,307,-184,16292,-2296,-10,-30,-17
6971.801,306,-184,16292,-2296,-10,-30,-17
6975.0779999999995,306,-184,16292,-2296,-10,-30,-17
6981.256,306,-184,16292,-2296,-10,-30,-17
6981.256,306,-184,16292,-2296,-10,-30,-17
6981.256,307,-184,16292,-2296,-10,-30,-17
6989.484,306,-212,16336,-2304,-48,-38,-4
6991.249,307,-212,16336,-2304,-48,-38,-4
6994.39,307,-212,16336,-2304,-48,-38,-4
6997.631,306,-212,16336,-2304,-48,-38,-4
6999.13,307,-212,16336,-2304,-48,-38,-4
6999.13,307,-212,16336,-2304,-48,-38,-4
7005.993,307,-212,16336,-2304,-48,-38,-4
7009.35,307,-224,16384,-2240,-47,-40,-8
7011.241,307,-224,16384,-2240,-47,-40,-8
7014.2660000000005,308,-224,16384,-2240,-47,-40,-8
7018.116,308,-224,16384,-2240,-47,-40,-8
7018.116,307,-224,16384,-2240,-47,-40,-8
7022.353,308,-224,16384,-2240,-47,-40,-8
7024.8189999999995,307,-224,16384,-2240,-47,-40,-8
7027.928,307,-236,16360,-2304,-7,-26,-1
7030.415,307,-236,16360,-2304,-7,-26,-1
7030.415,307,-236,16360,-2304,-7,-26,-1
7030.415,306,-236,16360,-2304,-7,-26,-1
7039.365,307,-236,16360,-2304,-7,-26,-1
7043.6990000000005,306,-236,16360,-2304,-7,-26,-1
7045.465,306,-236,16360,-2304,-7,-26,-1
7046.651,307,-236,16360,-2304,-7,-26,-1
7050.514999999999,307,-232,16388,-2244,-82,-32,-31
7051.192,307,-232,16388,-2244,-82,-32,-31
7054.973999999999,308,-232,16388,-2244,-82,-32,-31
7058.749,307,-232,16388,-2244,-82,-32,-31
7063.404,306,-232,16388,-2244,-82,-32,-31
7063.404,306,-232,16388,-2244,-82,-32,-31
7063.404,307,-232,16388,-2244,-82,-32,-31
7071.572,307,-196,16252,-2292,-51,-43,-6
7073.584999999999,307,-196,16252,-2292,-51,-43,-6
7075.105,307,-196,16252,-2292,-51,-43,-6
7079.576,307,-196,16252,-2292,-51,-43,-6
7079.576,307,-196,16252,-2292,-51,-43,-6
7079.576,307,-196,16252,-2292,-51,-43,-6
7087.9890000000005,308,-196,16252,-2292,-51,-43,-6
7091.675,308,-196,16328,-2264,27,-33,-5
7093.771000000001,307,-196,16328,-2264,27,-33,-5
7095.393999999999,307,-196,16328,-2264,27,-33,-5
7100.072,307,-196,16328,-2264,27,-33,-5
7100.8060000000005,308,-196,16328,-2264,27,-33,-5
7104.1410000000005,307,-196,16328,-2264,27,-33,-5
7108.117,308,-196,16328,-2264,27,-33,-5
7110.3009999999995,307,-204,16320,-2284,-72,-37,-18
7112.3240000000005,307,-204,16320,-2284,-72,-37,-18
7112.3240000000005,306,-204,16320,-2284,-72,-37,-18
7112.3240000000005,305,-204,16320,-2284,-72,-37,-18
7120.518,306,-204,16320,-2284,-72,-37,-18
7125.54,306,-204,16320,-2284,-72,-37,-18
7128.5689999999995,306,-204,16320,-2284,-72,-37,-18
7128.5689999999995,307,-208,16368,-2284,-71,-41,-26
7132.732,307,-208,16368,-2284,-71,-41,-26
7137.076999999999,307,-208,16368,-2284,-71,-41,-26
7137.076999999999,306,-208,16368,-2284,-71,-41,-26
7142.611,306,-208,16368,-2284,-71,-41,-26
7144.715,307,-208,16368,-2284,-71,-41,-26
7148.789,307,-208,16368,-2284,-71,-41,-26
7148.789,307,-204,16308,-2264,2,-31,-13
7152.883,308,-204,16308,-2264,2,-31,-13
7152.883,307,-204,16308,-2264,2,-31,-13
7158.871999999999,307,-204,16308,-2264,2,-31,-13
7160.89,307,-204,16308,-2264,2,-31,-13
7165.077,307,-204,16308,-2264,2,-31,-13
7165.077,307,-204,16308,-2264,2,-31,-13
7169.331999999999,307,-248,16300,-2292,-25,-34,-24
7169.331999999999,307,-248,16300,-2292,-25,-34,-24
7177.8,307,-248,16300,-2292,-25,-34,-24
7179.816,307,-248,16300,-2292,-25,-34,-24
7179.816,307,-248,16300,-2292,-25,-34,-24
7186.107,308,-248,16300,-2292,-25,-34,-24
7186.107,308,-248,16300,-2292,-25,-34,-24
7189.49,308,-200,16284,-2248,-81,-41,-2
7194.542,307,-200,16284,-2248,-81,-41,-2
7195.255,306,-200,16284,-2248,-81,-41,-2
7195.255,306,-200,16284,-2248,-81,-41,-2
7201.438999999999,306,-200,16284,-2248,-81,-41,-2
7205.165,306,-200,16284,-2248,-81,-41,-2
7206.997,306,-200,16284,-2248,-81,-41,-2
7211.21,307,-168,16384,-2256,-6,-48,-5
7211.21,307,-168,16384,-2256,-6,-48,-5
7211.21,308,-168,16384,-2256,-6,-48,-5
7218.958,307,-168,16384,-2256,-6,-48,-5
7222.932,306,-168,16384,-2256,-6,-48,-5
7225.3460000000005,306,-168,16384,-2256,-6,-48,-5
7227.105,307,-168,16384,-2256,-6,-48,-5
7229.340999999999,307,-220,16332,-2264,0,-31,-3
7229.340999999999,307,-220,16332,-2264,0,-31,-3
7235.262,308,-220,16332,-2264,0,-31,-3
7239.321,307,-220,16332,-2264,0,-31,-3
7241.527,308,-220,16332,-2264,0,-31,-3
7243.56,307,-220,16332,-2264,0,-31,-3
7244.683,307,-220,16332,-2264,0,-31,-3
7244.683,307,-220,16332,-2264,0,-31,-3
7251.746,308,-192,16284,-2272,-75,-41,-3
7251.746,307,-192,16284,-2272,-75,-41,-3
7251.746,307,-192,16284,-2272,-75,-41,-3
7260.299,307,-192,16284,-2272,-75,-41,-3
7263.879,307,-192,16284,-2272,-75,-41,-3
7263.879,306,-192,16284,-2272,-75,-41,-3
7268.652,307,-192,16284,-2272,-75,-41,-3
7272.049,306,-216,16416,-2260,-10,-32,-10
7272.049,306,-216,16416,-2260,-10,-32,-10
7275.063,306,-216,16416,-2260,-10,-32,-10
7277.102,306,-216,16416,-2260,-10,-32,-10
7277.102,306,-216,16416,-2260,-10,-32,-10
7285.316,306,-216,16416,-2260,-10,-32,-10
7285.316,307,-216,16416,-2260,-10,-32,-10
7285.316,307,-188,16396,-2276,-38,-37,-14
7293.715999999999,307,-188,16396,-2276,-38,-37,-14
7296.652,306,-188,16396,-2276,-38,-37,-14
7296.652,306,-188,16396,-2276,-38,-37,-14
7304.064,306,-188,16396,-2276,-38,-37,-14
7304.064,307,-188,16396,-2276,-38,-37,-14
7309.064,308,-176,16360,-2240,-43,-50,-20
7312.4929999999995,307,-176,16360,-2240,-43,-50,-20
7312.4929999999995,307,-176,16360,-2240,-43,-50,-20
7312.4929999999995,307,-176,16360,-2240,-43,-50,-20
7318.745,307,-176,16360,-2240,-43,-50,-20
7318.745,306,-176,16360,-2240,-43,-50,-20
7318.745,308,-176,16360,-2240,-43,-50,-20
7328.063,307,-196,16364,-2212,-11,-31,10
7328.063,308,-196,16364,-2212,-11,-31,10
7328.063,307,-196,16364,-2212,-11,-31,10
7335.095,308,-196,16364,-2212,-11,-31,10
7341.5,307,-196,16364,-2212,-11,-31,10
7342.209000000001,307,-196,16364,-2212,-11,-31,10
7345.741,307,-196,16364,-2212,-11,-31,10
7345.741,307,-220,16376,-2312,-40,-35,-21
7351.8679999999995,308,-220,16376,-2312,-40,-35,-21
7351.8679999999995,308,-220,16376,-2312,-40,-35,-21
7357.158,307,-220,16376,-2312,-40,-35,-21
7361.317,307,-220,16376,-2312,-40,-35,-21
7361.317,307,-220,16376,-2312,-40,-35,-21
7361.317,308,-220,16376,-2312,-40,-35,-21
7370.253,308,-176,16348,-2276,-79,-41,-12
7374.682,308,-176,16348,-2276,-79,-41,-12
7374.682,307,-176,16348,-2276,-79,-41,-12
7378.365,307,-176,16348,-2276,-79,-41,-12
7381.712,307,-176,16348,-2276,-79,-41,-12
7381.712,306,-176,16348,-2276,-79,-41,-12
7386.756,307,-176,16348,-2276,-79,-41,-12
7386.756,307,-236,16340,-2240,16,-31,4
7392.21,307,-236,16340,-2240,16,-31,4
7393.229,307,-236,16340,-2240,16,-31,4
7398.3730000000005,307,-236,16340,-2240,16,-31,4
7398.3730000000005,307,-236,16340,-2240,16,-31,4
7401.418,307,-236,16340,-2240,16,-31,4
7408.786,308,-236,16340,-2240,16,-31,4
7410.025,308,-208,16400,-2312,-28,-37,8
7410.025,307,-208,16400,-2312,-28,-37,8
7410.025,307,-208,16400,-2312,-28,-37,8
7410.025,308,-208,16400,-2312,-28,-37,8
7418.204000000001,307,-208,16400,-2312,-28,-37,8
7424.173,307,-208,16400,-2312,-28,-37,8
7426.309,307,-208,16400,-2312,-28,-37,8
7426.826,307,-208,16400,-2312,-28,-37,8
7431.793,308,-196,16292,-2264,-123,-34,1
7433.959,307,-196,16292,-2264,-123,-34,1
7433.959,308,-196,16292,-2264,-123,-34,1
7433.959,307,-196,16292,-2264,-123,-34,1
7444.059,306,-196,16292,-2264,-123,-34,1
7444.059,306,-196,16292,-2264,-123,-34,1
7444.059,307,-196,16292,-2264,-123,-34,1
7449.56,308,-292,16344,-2228,10,-44,-10
7449.56,308,-292,16344,-2228,10,-44,-10
7449.56,308,-292,16344,-2228,10,-44,-10
7458.0,307,-292,16344,-2228,10,-44,-10
7461.023,306,-292,16344,-2228,10,-44,-10
7461.023,307,-292,16344,-2228,10,-44,-10
7466.303,307,-292,16344,-2228,10,-44,-10
7466.303,308,-152,16364,-2316,-17,-34,-19
7466.303,308,-152,16364,-2316,-17,-34,-19
7476.645,307,-152,16364,-2316,-17,-34,-19
7481.177,307,-152,16364,-2316,-17,-34,-19
7482.813,307,-152,16364,-2316,-17,-34,-19
7482.813,307,-152,16364,-2316,-17,-34,-19
7482.813,308,-152,16364,-2316,-17,-34,-19
7492.976,308,-232,16356,-2240,-114,-40,-16
7492.976,307,-232,16356,-2240,-114,-40,-16
7492.976,308,-232,16356,-2240,-114,-40,-16
7500.418,307,-232,16356,-2240,-114,-40,-16
7500.418,307,-232,16356,-2240,-114,-40,-16
7506.099,308,-232,16356,-2240,-114,-40,-16
7509.3589999999995,308,-260,16356,-2256,-35,-21,-18
7509.3589999999995,308,-260,16356,-2256,-35,-21,-18
7516.092000000001,307,-260,16356,-2256,-35,-21,-18
7518.101,307,-260,16356,-2256,-35,-21,-18
7522.111,307,-260,16356,-2256,-35,-21,-18
7522.111,308,-260,16356,-2256,-35,-21,-18
7524.911,307,-260,16356,-2256,-35,-21,-18
7524.911,308,-164,16416,-2260,22,-21,-12
7534.380999999999,307,-164,16416,-2260,22,-21,-12
7534.380999999999,307,-164,16416,-2260,22,-21,-12
7535.522,308,-164,16416,-2260,22,-21,-12
7542.472,307,-164,16416,-2260,22,-21,-12
7543.99,307,-164,16416,-2260,22,-21,-12
7543.99,308,-164,16416,-2260,22,-21,-12
7548.692,307,-152,16324,-2316,-87,-39,-6
7551.280000000001,308,-152,16324,-2316,-87,-39,-6
7551.280000000001,308,-152,16324,-2316,-87,-39,-6
7558.468000000001,308,-152,16324,-2316,-87,-39,-6
7558.468000000001,307,-152,16324,-2316,-87,-39,-6
7558.468000000001,307,-152,16324,-2316,-87,-39,-6
7566.827,308,-152,16324,-2316,-87,-39,-6
7570.405,308,-228,16308,-2232,-44,-29,-21
7570.405,308,-228,16308,-2232,-44,-29,-21
7574.419,308,-228,16308,-2232,-44,-29,-21
7579.174,307,-228,16308,-2232,-44,-29,-21
7579.174,307,-228,16308,-2232,-44,-29,-21
7581.512,307,-228,16308,-2232,-44,-29,-21
7581.512,307,-228,16308,-2232,-44,-29,-21
7590.004000000001,307,-184,16332,-2220,3,-42,-4
7591.928,308,-184,16332,-2220,3,-42,-4
7593.94,308,-184,16332,-2220,3,-42,-4
7599.746,307,-184,16332,-2220,3,-42,-4
7600.162,307,-184,16332,-2220,3,-42,-4
7603.858,307,-184,16332,-2220,3,-42,-4
7603.858,307,-184,16332,-2220,3,-42,-4
7608.247,307,-184,16332,-2220,3,-42,-4
7611.282,307,-184,16352,-2260,-65,-24,1
7611.282,307,-184,16352,-2260,-65,-24,1
7616.785,307,-184,16352,-2260,-65,-24,1
7616.785,307,-184,16352,-2260,-65,-24,1
7616.785,307,-184,16352,-2260,-65,-24,1
7625.094,307,-184,16352,-2260,-65,-24,1
7627.114,307,-184,16352,-2260,-65,-24,1
7631.371,307,-252,16316,-2276,-85,-23,-19
7631.371,307,-252,16316,-2276,-85,-23,-19
7631.371,307,-252,16316,-2276,-85,-23,-19
7641.019,307,-252,16316,-2276,-85,-23,-19
7642.379,307,-252,16316,-2276,-85,-23,-19
7643.909,307,-252,16316,-2276,-85,-23,-19
7647.834,307,-252,16316,-2276,-85,-23,-19
7647.834,307,-228,16380,-2232,10,-58,-18
7647.834,307,-228,16380,-2232,10,-58,-18
7656.052,307,-228,16380,-2232,10,-58,-18
7659.379999999999,307,-228,16380,-2232,10,-58,-18
7659.379999999999,306,-228,16380,-2232,10,-58,-18
7664.372,307,-228,16380,-2232,10,-58,-18
7664.372,307,-228,16380,-2232,10,-58,-18
7664.372,307,-204,16372,-2264,-55,-33,-7
7674.553000000001,308,-204,16372,-2264,-55,-33,-7
7677.541,307,-204,16372,-2264,-55,-33,-7
7677.541,307,-204,16372,-2264,-55,-33,-7
7681.668000000001,306,-204,16372,-2264,-55,-33,-7
7682.666,307,-204,16372,-2264,-55,-33,-7
7690.152999999999,307,-204,16372,-2264,-55,-33,-7
7692.192,307,-232,16272,-2244,-114,-38,2
7692.192,308,-232,16272,-2244,-114,-38,2
7698.072,307,-232,16272,-2244,-114,-38,2
7698.072,307,-232,16272,-2244,-114,-38,2
7700.927,307,-232,16272,-2244,-114,-38,2
7704.956,307,-232,16272,-2244,-114,-38,2
7707.682,307,-232,16272,-2244,-114,-38,2
7708.242,307,-252,16304,-2268,1,-24,-10
7714.804,307,-252,16304,-2268,1,-24,-10
7714.804,306,-252,16304,-2268,1,-24,-10
7714.804,307,-252,16304,-2268,1,-24,-10
7714.804,306,-252,16304,-2268,1,-24,-10
7723.005,306,-252,16304,-2268,1,-24,-10
7726.311,307,-252,16304,-2268,1,-24,-10
7726.311,307,-176,16356,-2272,19,-41,-8
7731.080999999999,307,-176,16356,-2272,19,-41,-8
7731.080999999999,307,-176,16356,-2272,19,-41,-8
7739.413,307,-176,16356,-2272,19,-41,-8
7741.026,307,-176,16356,-2272,19,-41,-8
7743.789,307,-176,16356,-2272,19,-41,-8
7747.601000000001,307,-176,16356,-2272,19,-41,-8
7747.601000000001,307,-176,16356,-2272,19,-41,-8
7747.601000000001,308,-216,16332,-2240,-111,-51,-19
7755.848,308,-216,16332,-2240,-111,-51,-19
7758.826,307,-216,16332,-2240,-111,-51,-19
7758.826,307,-216,16332,-2240,-111,-51,-19
7763.944,307,-216,16332,-2240,-111,-51,-19
7763.944,307,-216,16332,-2240,-111,-51,-19
7772.036,308,-200,16284,-2232,-40,-25,-15
7772.036,307,-200,16284,-2232,-40,-25,-15
7774.901,308,-200,16284,-2232,-40,-25,-15
7779.954,307,-200,16284,-2232,-40,-25,-15
7779.954,306,-200,16284,-2232,-40,-25,-15
7784.054,306,-200,16284,-2232,-40,-25,-15
7788.2429999999995,306,-200,16284,-2232,-40,-25,-15
7792.027,307,-208,16332,-2304,45,-50,-19
7792.027,307,-208,16332,-2304,45,-50,-19
7796.346,307,-208,16332,-2304,45,-50,-19
7797.339,306,-208,16332,-2304,45,-50,-19
7797.339,307,-208,16332,-2304,45,-50,-19
7804.532,307,-208,16332,-2304,45,-50,-19
7809.092,307,-208,16332,-2304,45,-50,-19
7809.092,308,-156,16352,-2268,-87,-33,-7
7813.043000000001,307,-156,16352,-2268,-87,-33,-7
7815.968,307,-156,16352,-2268,-87,-33,-7
7815.968,306,-156,16352,-2268,-87,-33,-7
7821.291,307,-156,16352,-2268,-87,-33,-7
7825.021,307,-156,16352,-2268,-87,-33,-7
7825.021,307,-156,16352,-2268,-87,-33,-7
7829.642,308,-264,16388,-2212,-57,-34,-26
7829.642,307,-264,16388,-2212,-57,-34,-26
7829.642,307,-264,16388,-2212,-57,-34,-26
7837.758,306,-264,16388,-2212,-57,-34,-26
7841.579000000001,307,-264,16388,-2212,-57,-34,-26
7845.49,307,-264,16388,-2212,-57,-34,-26
7849.075,308,-264,16388,-2212,-57,-34,-26
7849.075,308,-156,16344,-2252,15,-22,-6
7853.862,306,-156,16344,-2252,15,-22,-6
7853.862,306,-156,16344,-2252,15,-22,-6
7859.03,307,-156,16344,-2252,15,-22,-6
7862.3240000000005,306,-156,16344,-2252,15,-22,-6
7862.3240000000005,305,-156,16344,-2252,15,-22,-6
7862.3240000000005,307,-156,16344,-2252,15,-22,-6
7870.529,308,-200,16388,-2300,-53,-32,-13
7870.529,307,-200,16388,-2300,-53,-32,-13
7875.487,308,-200,16388,-2300,-53,-32,-13
7879.017,307,-200,16388,-2300,-53,-32,-13
7879.017,307,-200,16388,-2300,-53,-32,-13
7885.746,307,-200,16388,-2300,-53,-32,-13
7887.485,307,-200,16388,-2300,-53,-32,-13
7887.485,307,-204,16324,-2264,-64,-49,-11
7894.481,306,-204,16324,-2264,-64,-49,-11
7895.998,306,-204,16324,-2264,-64,-49,-11
7900.043000000001,306,-204,16324,-2264,-64,-49,-11
7900.043000000001,306,-204,16324,-2264,-64,-49,-11
7906.846,306,-204,16324,-2264,-64,-49,-11
7908.101000000001,307,-204,16324,-2264,-64,-49,-11
7908.101000000001,308,-196,16348,-2252,7,-51,-19
7912.536,307,-196,16348,-2252,7,-51,-19
7912.536,307,-196,16348,-2252,7,-51,-19
7917.745,308,-196,16348,-2252,7,-51,-19
7920.624,308,-196,16348,-2252,7,-51,-19
7925.616,307,-196,16348,-2252,7,-51,-19
7925.616,307,-196,16348,-2252,7,-51,-19
7929.117,307,-196,16336,-2240,-39,-38,-9
7933.817,307,-196,16336,-2240,-39,-38,-9
7933.817,307,-196,16336,-2240,-39,-38,-9
7937.144,307,-196,16336,-2240,-39,-38,-9
7937.144,307,-196,16336,-2240,-39,-38,-9
7943.837,307,-196,16336,-2240,-39,-38,-9
7945.601,307,-196,16336,-2240,-39,-38,-9
7945.601,307,-216,16348,-2264,-57,-44,1
7945.601,307,-216,16348,-2264,-57,-44,1
7956.143,306,-216,16348,-2264,-57,-44,1
7958.893,306,-216,16348,-2264,-57,-44,1
7962.6849999999995,307,-216,16348,-2264,-57,-44,1
7962.6849999999995,307,-216,16348,-2264,-57,-44,1
7967.692999999999,307,-216,16348,-2264,-57,-44,1
7969.706,307,-216,16348,-2264,-57,-44,1
7972.7480000000005,307,-176,16368,-2240,-31,-26,-11
7974.764,307,-176,16368,-2240,-31,-26,-11
7979.005,307,-176,16368,-2240,-31,-26,-11
7979.005,306,-176,16368,-2240,-31,-26,-11
7984.148,307,-176,16368,-2240,-31,-26,-11
7987.479,307,-176,16368,-2240,-31,-26,-11
7987.479,307,-176,16368,-2240,-31,-26,-11
7991.768999999999,308,-172,16340,-2284,-17,-35,8
7997.198,307,-172,16340,-2284,-17,-35,8
7997.198,307,-172,16340,-2284,-17,-35,8
7997.198,307,-172,16340,-2284,-17,-35,8
8004.19,307,-172,16340,-2284,-17,-35,8
8004.19,307,-172,16340,-2284,-17,-35,8
8007.77,308,-172,16340,-2284,-17,-35,8
8013.409,308,-204,16316,-2264,-85,-34,-11
8016.474999999999,306,-204,16316,-2264,-85,-34,-11
8016.474999999999,307,-204,16316,-2264,-85,-34,-11
8021.65,306,-204,16316,-2264,-85,-34,-11
8023.906999999999,306,-204,16316,-2264,-85,-34,-11
8023.906999999999,308,-204,16316,-2264,-85,-34,-11
8029.992,307,-204,16316,-2264,-85,-34,-11
8033.133,307,-172,16348,-2264,-21,-39,-1
8035.147999999999,307,-172,16348,-2264,-21,-39,-1
8038.061000000001,307,-172,16348,-2264,-21,-39,-1
8042.405000000001,306,-172,16348,-2264,-21,-39,-1
8045.000999999999,307,-172,16348,-2264,-21,-39,-1
8046.049999999999,307,-172,16348,-2264,-21,-39,-1
8046.049999999999,307,-172,16348,-2264,-21,-39,-1
8052.428000000001,308,-192,16388,-2312,-4,-46,-7
8054.222,307,-192,16388,-2312,-4,-46,-7
8058.661000000001,307,-192,16388,-2312,-4,-46,-7
8062.706999999999,307,-192,16388,-2312,-4,-46,-7
8062.706999999999,308,-192,16388,-2312,-4,-46,-7
8062.706999999999,307,-192,16388,-2312,-4,-46,-7
8070.8369999999995,307,-192,16388,-2312,-4,-46,-7
8070.8369999999995,308,-216,16364,-2272,-77,-35,-1
8070.8369999999995,308,-216,16364,-2272,-77,-35,-1
8078.941000000001,308,-216,16364,-2272,-77,-35,-1
8080.731999999999,307,-216,16364,-2272,-77,-35,-1
8083.544,307,-216,16364,-2272,-77,-35,-1
8087.153,307,-216,16364,-2272,-77,-35,-1
8087.909,307,-216,16364,-2272,-77,-35,-1
8087.909,307,-184,16332,-2264,-53,-29,-1
8095.653,307,-184,16332,-2264,-53,-29,-1
8095.653,308,-184,16332,-2264,-53,-29,-1
8099.505000000001,307,-184,16332,-2264,-53,-29,-1
8104.048000000001,307,-184,16332,-2264,-53,-29,-1
8104.048000000001,306,-184,16332,-2264,-53,-29,-1
8109.217,307,-184,16332,-2264,-53,-29,-1
8112.2119999999995,307,-184,16368,-2232,-3,-42,-14
8115.852,307,-184,16368,-2232,-3,-42,-14
8115.852,307,-184,16368,-2232,-3,-42,-14
8120.526,307,-184,16368,-2232,-3,-42,-14
8120.526,307,-184,16368,-2232,-3,-42,-14
8125.674,307,-184,16368,-2232,-3,-42,-14
8129.238000000001,308,-184,16368,-2232,-3,-42,-14
8132.448,308,-184,16420,-2252,-44,-32,-16
8132.448,307,-184,16420,-2252,-44,-32,-16
8136.965999999999,307,-184,16420,-2252,-44,-32,-16
8136.965999999999,307,-184,16420,-2252,-44,-32,-16
8144.228999999999,306,-184,16420,-2252,-44,-32,-16
8145.33,307,-184,16420,-2252,-44,-32,-16
8149.355,307,-184,16420,-2252,-44,-32,-16
8153.4130000000005,307,-228,16336,-2244,-66,-20,0
8155.430000000001,307,-228,16336,-2244,-66,-20,0
8157.443000000001,308,-228,16336,-2244,-66,-20,0
8161.478000000001,307,-228,16336,-2244,-66,-20,0
8162.860000000001,307,-228,16336,-2244,-66,-20,0
8164.873,307,-228,16336,-2244,-66,-20,0
8166.888999999999,307,-228,16336,-2244,-66,-20,0
8171.457,307,-152,16348,-2268,-27,-16,-8
8174.973,307,-152,16348,-2268,-27,-16,-8
8178.048000000001,307,-152,16348,-2268,-27,-16,-8
8180.0650000000005,306,-152,16348,-2268,-27,-16,-8
8182.0830000000005,307,-152,16348,-2268,-27,-16,-8
8186.113,307,-152,16348,-2268,-27,-16,-8
8188.128000000001,307,-152,16348,-2268,-27,-16,-8
8191.411,308,-196,16344,-2252,-20,-24,-13
8194.036,308,-196,16344,-2252,-20,-24,-13
8198.07,307,-196,16344,-2252,-20,-24,-13
8200.082999999999,307,-196,16344,-2252,-20,-24,-13
8202.096,307,-196,16344,-2252,-20,-24,-13
8206.133,308,-196,16344,-2252,-20,-24,-13
8210.17,308,-196,16344,-2252,-20,-24,-13
8212.188,308,-236,16320,-2228,-29,-29,-7
8214.206,308,-236,16320,-2228,-29,-29,-7
8218.249,307,-236,16320,-2228,-29,-29,-7
8220.267,307,-236,16320,-2228,-29,-29,-7
8222.282,306,-236,16320,-2228,-29,-29,-7
8225.844000000001,307,-236,16320,-2228,-29,-29,-7
8229.883,307,-236,16320,-2228,-29,-29,-7
8231.899,307,-192,16412,-2256,-3,-33,-13
8233.917,308,-192,16412,-2256,-3,-33,-13
8237.98,307,-192,16412,-2256,-3,-33,-13
8239.997000000001,307,-192,16412,-2256,-3,-33,-13
8242.018,307,-192,16412,-2256,-3,-33,-13
8246.551,308,-192,16412,-2256,-3,-33,-13
8248.564999999999,307,-192,16412,-2256,-3,-33,-13
8250.327000000001,308,-144,16388,-2300,-74,-47,0
8254.356,307,-144,16388,-2300,-74,-47,0
8257.267,308,-144,16388,-2300,-74,-47,0
8259.503,307,-144,16388,-2300,-74,-47,0
8259.503,306,-144,16388,-2300,-74,-47,0
8259.503,307,-144,16388,-2300,-74,-47,0
8266.828,307,-144,16388,-2300,-74,-47,0
8271.578,308,-144,16388,-2300,-74,-47,0
8275.79,308,-176,16328,-2272,-48,-43,-26
8277.809,307,-176,16328,-2272,-48,-43,-26
8281.836,307,-176,16328,-2272,-48,-43,-26
8282.847,308,-176,16328,-2272,-48,-43,-26
8284.860999999999,308,-176,16328,-2272,-48,-43,-26
8284.860999999999,307,-176,16328,-2272,-48,-43,-26
8291.096,308,-224,16356,-2276,18,-29,-18
8293.117,308,-224,16356,-2276,18,-29,-18
8293.117,308,-224,16356,-2276,18,-29,-18
8299.272,306,-224,16356,-2276,18,-29,-18
8299.272,307,-224,16356,-2276,18,-29,-18
8299.272,308,-224,16356,-2276,18,-29,-18
8307.725,308,-224,16356,-2276,18,-29,-18
8309.746000000001,309,-224,16356,-2276,18,-29,-18
8309.746000000001,309,-180,16368,-2296,-67,-31,-14
8316.198,308,-180,16368,-2296,-67,-31,-14
8320.553,307,-180,16368,-2296,-67,-31,-14
8320.553,306,-180,16368,-2296,-67,-31,-14
8325.391,307,-180,16368,-2296,-67,-31,-14
8325.391,308,-180,16368,-2296,-67,-31,-14
8332.676,308,-208,16300,-2268,-70,-55,-11
8332.676,308,-208,16300,-2268,-70,-55,-11
8332.676,308,-208,16300,-2268,-70,-55,-11
8341.026,309,-208,16300,-2268,-70,-55,-11
8341.026,307,-208,16300,-2268,-70,-55,-11
8344.499000000002,307,-208,16300,-2268,-70,-55,-11
8349.186,307,-208,16300,-2268,-70,-55,-11
8349.186,307,-196,16356,-2292,15,-21,-12
8349.186,309,-196,16356,-2292,15,-21,-12
8357.51,307,-196,16356,-2292,15,-21,-12
8357.51,307,-196,16356,-2292,15,-21,-12
8357.51,307,-196,16356,-2292,15,-21,-12
8365.751,308,-196,16356,-2292,15,-21,-12
8369.76,308,-196,16356,-2292,15,-21,-12
8369.76,308,-200,16288,-2284,-60,-39,-10
8375.223,307,-200,16288,-2284,-60,-39,-10
8375.223,308,-200,16288,-2284,-60,-39,-10
8382.277,307,-200,16288,-2284,-60,-39,-10
8382.277,308,-200,16288,-2284,-60,-39,-10
8382.277,307,-200,16288,-2284,-60,-39,-10
8390.439,307,-200,16288,-2284,-60,-39,-10
8390.439,307,-220,16308,-2236,-26,-40,-10
8390.439,307,-220,16308,-2236,-26,-40,-10
8398.606,307,-220,16308,-2236,-26,-40,-10
8398.606,307,-220,16308,-2236,-26,-40,-10
8398.606,307,-220,16308,-2236,-26,-40,-10
8406.953,307,-220,16308,-2236,-26,-40,-10
8406.953,306,-220,16308,-2236,-26,-40,-10
8406.953,306,-224,16316,-2292,-9,-25,5
8415.045,306,-224,16316,-2292,-9,-25,5
8415.045,307,-224,16316,-2292,-9,-25,5
8415.045,307,-224,16316,-2292,-9,-25,5
8423.559,306,-224,16316,-2292,-9,-25,5
8424.521999999999,306,-224,16316,-2292,-9,-25,5
8424.521999999999,308,-224,16316,-2292,-9,-25,5
8431.864,308,-224,16316,-2292,-9,-25,5
8431.864,307,-184,16336,-2300,-100,-34,-12
8431.864,308,-184,16336,-2300,-100,-34,-12
8439.997,307,-184,16336,-2300,-100,-34,-12
8444.499,307,-184,16336,-2300,-100,-34,-12
8448.102,308,-184,16336,-2300,-100,-34,-12
8448.102,308,-184,16336,-2300,-100,-34,-12
8448.102,307,-180,16288,-2256,-17,-28,-28
8456.258,308,-180,16288,-2256,-17,-28,-28
8456.258,307,-180,16288,-2256,-17,-28,-28
8456.258,306,-180,16288,-2256,-17,-28,-28
8464.301000000001,306,-180,16288,-2256,-17,-28,-28
8464.301000000001,307,-180,16288,-2256,-17,-28,-28
8464.301000000001,308,-180,16288,-2256,-17,-28,-28
8472.322,307,-220,16340,-2288,11,-40,-13
8475.545,308,-220,16340,-2288,11,-40,-13
8475.545,307,-220,16340,-2288,11,-40,-13
8480.659,308,-220,16340,-2288,11,-40,-13
8480.659,307,-220,16340,-2288,11,-40,-13
8480.659,307,-220,16340,-2288,11,-40,-13
8489.124,308,-220,16340,-2288,11,-40,-13
8491.895,308,-188,16356,-2260,-95,-36,8
8491.895,307,-188,16356,-2260,-95,-36,8
8497.177000000001,307,-188,16356,-2260,-95,-36,8
8497.177000000001,306,-188,16356,-2260,-95,-36,8
8503.979,307,-188,16356,-2260,-95,-36,8
8507.508,307,-188,16356,-2260,-95,-36,8
8509.526,308,-188,16356,-2260,-95,-36,8
8509.526,307,-192,16312,-2224,-71,-39,-16
8515.580999999998,307,-192,16312,-2224,-71,-39,-16
8517.595,306,-192,16312,-2224,-71,-39,-16
8521.621,307,-192,16312,-2224,-71,-39,-16
8521.621,306,-192,16312,-2224,-71,-39,-16
8527.095,307,-192,16312,-2224,-71,-39,-16
8530.063,306,-192,16312,-2224,-71,-39,-16
8533.677000000001,308,-232,16364,-2288,42,-30,-7
8533.677000000001,308,-232,16364,-2288,42,-30,-7
8538.171999999999,308,-232,16364,-2288,42,-30,-7
8541.675,307,-232,16364,-2288,42,-30,-7
8542.856,308,-232,16364,-2288,42,-30,-7
8546.498,307,-232,16364,-2288,42,-30,-7
8546.498,308,-232,16364,-2288,42,-30,-7
8546.498,308,-232,16364,-2288,42,-30,-7
8554.716,308,-200,16420,-2236,-78,-45,14
8554.716,307,-200,16420,-2236,-78,-45,14
8559.866,307,-200,16420,-2236,-78,-45,14
8562.887,307,-200,16420,-2236,-78,-45,14
8562.887,308,-200,16420,-2236,-78,-45,14
8562.887,307,-200,16420,-2236,-78,-45,14
8571.448,308,-200,16420,-2236,-78,-45,14
8571.448,308,-188,16324,-2260,-91,-33,-8
8571.448,307,-188,16324,-2260,-91,-33,-8
8579.591,307,-188,16324,-2260,-91,-33,-8
8583.394,307,-188,16324,-2260,-91,-33,-8
8585.411,307,-188,16324,-2260,-91,-33,-8
8589.053,307,-188,16324,-2260,-91,-33,-8
8591.913,308,-188,16324,-2260,-91,-33,-8
8595.601,308,-228,16304,-2220,28,-17,-24
8597.345000000001,307,-228,16304,-2220,28,-17,-24
8600.516000000001,308,-228,16304,-2220,28,-17,-24
8603.771999999999,306,-228,16304,-2220,28,-17,-24
8603.771999999999,307,-228,16304,-2220,28,-17,-24
8608.737,307,-228,16304,-2220,28,-17,-24
8611.933,308,-228,16304,-2220,28,-17,-24
8615.527,308,-232,16376,-2276,-2,-37,-17
8615.527,308,-232,16376,-2276,-2,-37,-17
8620.172,307,-232,16376,-2276,-2,-37,-17
8623.322999999999,307,-232,16376,-2276,-2,-37,-17
8626.007,307,-232,16376,-2276,-2,-37,-17
8628.232,308,-232,16376,-2276,-2,-37,-17
8628.232,308,-232,16376,-2276,-2,-37,-17
8628.232,307,-244,16352,-2256,-120,-37,-19
8636.428,308,-244,16352,-2256,-120,-37,-19
8636.428,308,-244,16352,-2256,-120,-37,-19
8644.617999999999,307,-244,16352,-2256,-120,-37,-19
8644.617999999999,307,-244,16352,-2256,-120,-37,-19
8644.617999999999,308,-244,16352,-2256,-120,-37,-19
8652.809,308,-220,16344,-2260,-45,-56,-2
8656.5,307,-220,16344,-2260,-45,-56,-2
8656.5,307,-220,16344,-2260,-45,-56,-2
8660.955,307,-220,16344,-2260,-45,-56,-2
8660.955,308,-220,16344,-2260,-45,-56,-2
8660.955,307,-220,16344,-2260,-45,-56,-2
8669.019,307,-220,16344,-2260,-45,-56,-2
8669.019,308,-220,16344,-2260,-45,-56,-2
8675.631,308,-200,16336,-2280,31,-36,-7
8677.538,308,-200,16336,-2280,31,-36,-7
8680.915,307,-200,16336,-2280,31,-36,-7
8680.915,307,-200,16336,-2280,31,-36,-7
8685.649,307,-200,16336,-2280,31,-36,-7
8685.649,307,-200,16336,-2280,31,-36,-7
8692.994999999999,308,-200,16336,-2280,31,-36,-7
8694.014,307,-200,16344,-2284,-111,-23,-12
8694.014,307,-200,16344,-2284,-111,-23,-12
8694.014,307,-200,16344,-2284,-111,-23,-12
8702.399,307,-200,16344,-2284,-111,-23,-12
8702.399,307,-200,16344,-2284,-111,-23,-12
8708.365,307,-200,16344,-2284,-111,-23,-12
8710.708,308,-200,16344,-2284,-111,-23,-12
8715.829,308,-224,16360,-2204,-48,-33,-18
8718.985999999999,307,-224,16360,-2204,-48,-33,-18
8718.985999999999,308,-224,16360,-2204,-48,-33,-18
8725.11,307,-224,16360,-2204,-48,-33,-18
8727.128999999999,308,-224,16360,-2204,-48,-33,-18
8727.128999999999,307,-224,16360,-2204,-48,-33,-18
8727.128999999999,307,-200,16392,-2240,31,-40,-4
8735.647,307,-200,16392,-2240,31,-40,-4
8735.647,308,-200,16392,-2240,31,-40,-4
8741.64,307,-200,16392,-2240,31,-40,-4
8744.743,307,-200,16392,-2240,31,-40,-4
8744.743,307,-200,16392,-2240,31,-40,-4
8744.743,308,-200,16392,-2240,31,-40,-4
8752.299,308,-200,16392,-2240,31,-40,-4
8755.036,308,-208,16372,-2308,-58,-22,2
8755.036,308,-208,16372,-2308,-58,-22,2
8760.628999999999,308,-208,16372,-2308,-58,-22,2
8760.628999999999,307,-208,16372,-2308,-58,-22,2
8760.628999999999,307,-208,16372,-2308,-58,-22,2
8768.729000000001,307,-208,16372,-2308,-58,-22,2
8770.744,307,-208,16372,-2308,-58,-22,2
8773.832,307,-212,16344,-2256,-116,-41,-8
8776.932999999999,307,-212,16344,-2256,-116,-41,-8
8776.932999999999,307,-212,16344,-2256,-116,-41,-8
8776.932999999999,308,-212,16344,-2256,-116,-41,-8
8785.406,307,-212,16344,-2256,-116,-41,-8
8789.16,307,-212,16344,-2256,-116,-41,-8
8791.667,308,-212,16344,-2256,-116,-41,-8
8793.43,308,-216,16376,-2204,36,-30,-9
8793.43,307,-216,16376,-2204,36,-30,-9
8793.43,307,-216,16376,-2204,36,-30,-9
8804.124,307,-216,16376,-2204,36,-30,-9
8804.124,307,-216,16376,-2204,36,-30,-9
8808.473,307,-216,16376,-2204,36,-30,-9
8811.346,307,-216,16376,-2204,36,-30,-9
8811.346,307,-180,16364,-2296,-24,-15,-8
8811.346,306,-180,16364,-2296,-24,-15,-8
8820.318000000001,306,-180,16364,-2296,-24,-15,-8
8820.318000000001,306,-180,16364,-2296,-24,-15,-8
8825.954,307,-180,16364,-2296,-24,-15,-8
8826.687,307,-180,16364,-2296,-24,-15,-8
8826.687,308,-180,16364,-2296,-24,-15,-8
8833.584,308,-184,16280,-2240,-134,-30,1
8833.584,307,-184,16280,-2240,-134,-30,1
8833.584,307,-184,16280,-2240,-134,-30,1
8843.904,308,-184,16280,-2240,-134,-30,1
8844.922,308,-184,16280,-2240,-134,-30,1
8844.922,308,-184,16280,-2240,-134,-30,1
8850.073999999999,308,-184,16280,-2240,-134,-30,1
8850.073999999999,308,-200,16364,-2260,-9,-32,-22
8850.073999999999,307,-200,16364,-2260,-9,-32,-22
8858.115,307,-200,16364,-2260,-9,-32,-22
8858.115,307,-200,16364,-2260,-9,-32,-22
8858.115,307,-200,16364,-2260,-9,-32,-22
8866.437,307,-200,16364,-2260,-9,-32,-22
8871.841999999999,307,-200,16364,-2260,-9,-32,-22
8875.23,307,-128,16404,-2276,35,-40,-8
8875.23,308,-128,16404,-2276,35,-40,-8
8875.23,308,-128,16404,-2276,35,-40,-8
8875.23,306,-128,16404,-2276,35,-40,-8
8882.631,307,-128,16404,-2276,35,-40,-8
8882.631,306,-128,16404,-2276,35,-40,-8
8890.819000000001,306,-128,16404,-2276,35,-40,-8
8892.838,307,-228,16348,-2284,-131,-33,-22
8894.850999999999,307,-228,16348,-2284,-131,-33,-22
8898.874,307,-228,16348,-2284,-131,-33,-22
8900.885,308,-228,16348,-2284,-131,-33,-22
8904.943,308,-228,16348,-2284,-131,-33,-22
8907.653,307,-228,16348,-2284,-131,-33,-22
8909.065,308,-228,16348,-2284,-131,-33,-22
8909.065,309,-172,16336,-2220,-38,-28,-18
8918.627,308,-172,16336,-2220,-38,-28,-18
8918.627,307,-172,16336,-2220,-38,-28,-18
8923.555,307,-172,16336,-2220,-38,-28,-18
8925.302,307,-172,16336,-2220,-38,-28,-18
8925.302,308,-172,16336,-2220,-38,-28,-18
8925.302,308,-172,16336,-2220,-38,-28,-18
8935.014000000001,308,-176,16348,-2288,63,-37,-7
8935.014000000001,308,-176,16348,-2288,63,-37,-7
8935.014000000001,308,-176,16348,-2288,63,-37,-7
8943.675000000001,308,-176,16348,-2288,63,-37,-7
8945.19,307,-176,16348,-2288,63,-37,-7
8948.368999999999,308,-176,16348,-2288,63,-37,-7
8948.368999999999,308,-176,16348,-2288,63,-37,-7
8948.368999999999,307,-168,16392,-2292,-114,-38,-16
8956.574,307,-168,16392,-2292,-114,-38,-16
8960.265,307,-168,16392,-2292,-114,-38,-16
8963.663999999999,306,-168,16392,-2292,-114,-38,-16
8964.777,306,-168,16392,-2292,-114,-38,-16
8964.777,307,-168,16392,-2292,-114,-38,-16
8964.777,308,-168,16392,-2292,-114,-38,-16
8974.517,307,-220,16332,-2264,-72,-34,-16
8978.273,307,-220,16332,-2264,-72,-34,-16
8978.273,307,-220,16332,-2264,-72,-34,-16
8984.266,307,-220,16332,-2264,-72,-34,-16
8984.266,307,-220,16332,-2264,-72,-34,-16
8984.266,307,-220,16332,-2264,-72,-34,-16
8993.196,308,-220,16332,-2264,-72,-34,-16
8995.656,308,-236,16336,-2240,41,-28,-24
8997.671,308,-236,16336,-2240,41,-28,-24
8997.671,307,-236,16336,-2240,41,-28,-24
9004.099999999999,307,-236,16336,-2240,41,-28,-24
9005.844,308,-236,16336,-2240,41,-28,-24
9007.879,308,-236,16336,-2240,41,-28,-24
9012.964,308,-236,16336,-2240,41,-28,-24
9013.982,308,-168,16316,-2312,-75,-38,-9
9015.998,307,-168,16316,-2312,-75,-38,-9
9015.998,307,-168,16316,-2312,-75,-38,-9
9024.942,307,-168,16316,-2312,-75,-38,-9
9027.725999999999,307,-168,16316,-2312,-75,-38,-9
9027.725999999999,307,-168,16316,-2312,-75,-38,-9
9032.499,308,-168,16316,-2312,-75,-38,-9
9032.499,307,-188,16316,-2220,-96,-22,-1
9037.442000000001,307,-188,16316,-2220,-96,-22,-1
9041.758,307,-188,16316,-2220,-96,-22,-1
9045.412,307,-188,16316,-2220,-96,-22,-1
9047.172,307,-188,16316,-2220,-96,-22,-1
9049.182,306,-188,16316,-2220,-96,-22,-1
9051.663,307,-188,16316,-2220,-96,-22,-1
9055.312,307,-200,16304,-2260,42,-27,3
9057.327000000001,307,-200,16304,-2260,42,-27,3
9058.967,307,-200,16304,-2260,42,-27,3
9059.479,307,-200,16304,-2260,42,-27,3
9063.544,307,-200,16304,-2260,42,-27,3
9063.544,307,-200,16304,-2260,42,-27,3
9063.544,307,-200,16304,-2260,42,-27,3
9074.053,307,-200,16320,-2280,22,-17,-11
9074.053,307,-200,16320,-2280,22,-17,-11
9079.747,308,-200,16320,-2280,22,-17,-11
9079.747,307,-200,16320,-2280,22,-17,-11
9079.747,308,-200,16320,-2280,22,-17,-11
9087.874,307,-200,16320,-2280,22,-17,-11
9089.893999999998,307,-200,16320,-2280,22,-17,-11
9093.930999999999,308,-248,16328,-2216,-108,-23,-11
9095.95,307,-248,16328,-2216,-108,-23,-11
9095.95,307,-248,16328,-2216,-108,-23,-11
9095.95,307,-248,16328,-2216,-108,-23,-11
9107.455,307,-248,16328,-2216,-108,-23,-11
9108.809000000001,307,-248,16328,-2216,-108,-23,-11
9110.989,308,-248,16328,-2216,-108,-23,-11
9112.748,308,-208,16392,-2212,-7,-41,-7
9116.989,307,-208,16392,-2212,-7,-41,-7
9117.746000000001,308,-208,16392,-2212,-7,-41,-7
9120.865,307,-208,16392,-2212,-7,-41,-7
9125.584,307,-208,16392,-2212,-7,-41,-7
9128.997,307,-208,16392,-2212,-7,-41,-7
9131.774,307,-208,16392,-2212,-7,-41,-7
9131.774,308,-224,16396,-2276,10,-14,-17
9131.774,308,-224,16396,-2276,10,-14,-17
9139.803,307,-224,16396,-2276,10,-14,-17
9142.117,307,-224,16396,-2276,10,-14,-17
9145.487,307,-224,16396,-2276,10,-14,-17
9145.487,307,-224,16396,-2276,10,-14,-17
9145.487,307,-224,16396,-2276,10,-14,-17
9153.518,307,-204,16336,-2272,-92,-31,7
9153.518,307,-204,16336,-2272,-92,-31,7
9159.95,306,-204,16336,-2272,-92,-31,7
9161.716,307,-204,16336,-2272,-92,-31,7
9161.716,308,-204,16336,-2272,-92,-31,7
9161.716,308,-204,16336,-2272,-92,-31,7
9169.875,307,-204,16336,-2272,-92,-31,7
9172.542,308,-204,16336,-2272,-92,-31,7
9175.179,307,-200,16292,-2216,-33,-21,-25
9177.903,307,-200,16292,-2216,-33,-21,-25
9180.778,307,-200,16292,-2216,-33,-21,-25
9180.778,307,-200,16292,-2216,-33,-21,-25
9188.725,307,-200,16292,-2216,-33,-21,-25
9188.725,308,-200,16292,-2216,-33,-21,-25
9194.561,307,-200,16292,-2216,-33,-21,-25
9196.996000000001,307,-188,16364,-2240,52,-22,-13
9196.996000000001,307,-188,16364,-2240,52,-22,-13
9196.996000000001,307,-188,16364,-2240,52,-22,-13
9202.811,306,-188,16364,-2240,52,-22,-13
9202.811,307,-188,16364,-2240,52,-22,-13
9211.07,306,-188,16364,-2240,52,-22,-13
9211.07,308,-188,16364,-2240,52,-22,-13
9211.07,307,-244,16380,-2256,-90,-43,-9
9219.226,306,-244,16380,-2256,-90,-43,-9
9221.841,307,-244,16380,-2256,-90,-43,-9
9225.654999999999,306,-244,16380,-2256,-90,-43,-9
9227.393,306,-244,16380,-2256,-90,-43,-9
9227.393,307,-244,16380,-2256,-90,-43,-9
9227.393,308,-244,16380,-2256,-90,-43,-9
9235.437,307,-228,16292,-2200,-103,-41,-15
9235.437,308,-228,16292,-2200,-103,-41,-15
9242.258,308,-228,16292,-2200,-103,-41,-15
9246.356,306,-228,16292,-2200,-103,-41,-15
9246.356,307,-228,16292,-2200,-103,-41,-15
9246.356,307,-228,16292,-2200,-103,-41,-15
9254.628,308,-212,16356,-2236,30,-51,-12
9254.628,308,-212,16356,-2236,30,-51,-12
9260.51,307,-212,16356,-2236,30,-51,-12
9260.51,307,-212,16356,-2236,30,-51,-12
9260.51,307,-212,16356,-2236,30,-51,-12
9268.91,307,-212,16356,-2236,30,-51,-12
9268.91,307,-212,16356,-2236,30,-51,-12
9268.91,307,-184,16348,-2288,-27,-43,-2
9277.359,307,-184,16348,-2288,-27,-43,-2
9277.359,306,-184,16348,-2288,-27,-43,-2
9277.359,306,-184,16348,-2288,-27,-43,-2
9285.701,306,-184,16348,-2288,-27,-43,-2
9286.749,306,-184,16348,-2288,-27,-43,-2
9288.76,307,-184,16348,-2288,-27,-43,-2
9293.871,307,-220,16296,-2272,-117,-40,-12
9293.871,306,-220,16296,-2272,-117,-40,-12
9293.871,307,-220,16296,-2272,-117,-40,-12
9303.057,307,-220,16296,-2272,-117,-40,-12
9303.057,307,-220,16296,-2272,-117,-40,-12
9303.057,306,-220,16296,-2272,-117,-40,-12
9310.534,307,-220,16296,-2272,-117,-40,-12
9310.534,306,-208,16312,-2280,12,-19,-23
9318.597,307,-208,16312,-2280,12,-19,-23
9318.597,307,-208,16312,-2280,12,-19,-23
9318.597,307,-208,16312,-2280,12,-19,-23
9326.625999999998,307,-208,16312,-2280,12,-19,-23
9326.625999999998,307,-208,16312,-2280,12,-19,-23
9326.625999999998,307,-208,16312,-2280,12,-19,-23
9336.559,307,-188,16320,-2264,-2,-40,-15
9336.559,307,-188,16320,-2264,-2,-40,-15
9336.559,306,-188,16320,-2264,-2,-40,-15
9343.137999999999,306,-188,16320,-2264,-2,-40,-15
9345.654,306,-188,16320,-2264,-2,-40,-15
9349.347,306,-188,16320,-2264,-2,-40,-15
9353.116,307,-188,16320,-2264,-2,-40,-15
9353.116,307,-180,16312,-2288,-74,-25,-13
9358.598,307,-180,16312,-2288,-74,-25,-13
9360.338,307,-180,16312,-2288,-74,-25,-13
9360.338,307,-180,16312,-2288,-74,-25,-13
9360.338,307,-180,16312,-2288,-74,-25,-13
9368.398,307,-180,16312,-2288,-74,-25,-13
9368.398,307,-180,16312,-2288,-74,-25,-13
9375.514000000001,307,-156,16364,-2236,-21,-36,-12
9376.796,307,-156,16364,-2236,-21,-36,-12
9376.796,306,-156,16364,-2236,-21,-36,-12
9385.042,307,-156,16364,-2236,-21,-36,-12
9385.042,307,-156,16364,-2236,-21,-36,-12
9385.042,307,-156,16364,-2236,-21,-36,-12
9392.937,307,-156,16364,-2236,-21,-36,-12
9395.4,307,-176,16328,-2264,-48,-31,-7
9398.567,307,-176,16328,-2264,-48,-31,-7
9400.585,307,-176,16328,-2264,-48,-31,-7
9400.585,306,-176,16328,-2264,-48,-31,-7
9400.585,307,-176,16328,-2264,-48,-31,-7
9410.455,308,-176,16328,-2264,-48,-31,-7
9410.455,308,-176,16328,-2264,-48,-31,-7
9416.505000000001,307,-216,16284,-2220,-43,-45,0
9416.505000000001,307,-216,16284,-2220,-43,-45,0
9416.505000000001,307,-216,16284,-2220,-43,-45,0
9425.215,307,-216,16284,-2220,-43,-45,0
9425.215,306,-216,16284,-2220,-43,-45,0
