Time (ms),EMG,AccX,AccY,AccZ,GyroX,GyroY,GyroZ
1545.899,0,0,0,0,0,0,0
1550.868,308,0,0,0,0,0,0
1552.391,307,0,0,0,0,0,0
1554.53,307,0,0,0,0,0,0
1555.641,307,0,0,0,0,0,0
1557.034,307,0,0,0,0,0,0
1558.373,307,0,0,0,0,0,0
1561.192,307,0,0,0,0,0,0
1562.2069999999999,307,0,0,0,0,0,0
1564.225,307,0,0,0,0,0,0
1564.225,307,0,0,0,0,0,0
1566.238,308,0,0,0,0,0,0
1566.238,307,0,0,0,0,0,0
1568.116,307,0,0,0,0,0,0
1568.116,307,0,0,0,0,0,0
1570.614,307,0,0,0,0,0,0
1572.0890000000002,307,0,0,0,0,0,0
1572.0890000000002,307,0,0,0,0,0,0
1572.0890000000002,307,-240,16220,-2308,-71,-38,-17
1578.994,308,-240,16220,-2308,-71,-38,-17
1582.911,307,-240,16220,-2308,-71,-38,-17
1582.911,307,-240,16220,-2308,-71,-38,-17
1587.498,307,-240,16220,-2308,-71,-38,-17
1587.498,307,-240,16220,-2308,-71,-38,-17
1587.498,307,-240,16220,-2308,-71,-38,-17
1595.917,308,-192,16392,-2320,-3,-38,-8
1595.917,308,-192,16392,-2320,-3,-38,-8
1595.917,307,-192,16392,-2320,-3,-38,-8
1604.699,307,-192,16392,-2320,-3,-38,-8
1607.3319999999999,307,-192,16392,-2320,-3,-38,-8
1611.555,307,-192,16392,-2320,-3,-38,-8
1611.555,307,-192,16392,-2320,-3,-38,-8
1613.075,307,-216,16320,-2332,-22,-45,-29
1613.075,307,-216,16320,-2332,-22,-45,-29
1613.075,307,-216,16320,-2332,-22,-45,-29
1621.334,308,-216,16320,-2332,-22,-45,-29
1621.334,306,-216,16320,-2332,-22,-45,-29
1621.334,307,-216,16320,-2332,-22,-45,-29
1629.825,307,-216,16320,-2332,-22,-45,-29
1629.825,307,-204,16316,-2320,-93,-29,-18
1637.886,307,-204,16316,-2320,-93,-29,-18
1637.886,307,-204,16316,-2320,-93,-29,-18
1637.886,307,-204,16316,-2320,-93,-29,-18
1648.801,307,-204,16316,-2320,-93,-29,-18
1648.801,307,-204,16316,-2320,-93,-29,-18
1648.801,306,-204,16316,-2320,-93,-29,-18
1656.47,307,-188,16344,-2300,20,-39,-12
1656.47,307,-188,16344,-2300,20,-39,-12
1656.47,307,-188,16344,-2300,20,-39,-12
1665.1979999999999,307,-188,16344,-2300,20,-39,-12
1665.1979999999999,307,-188,16344,-2300,20,-39,-12
1671.0,306,-188,16344,-2300,20,-39,-12
1671.0,306,-188,16344,-2300,20,-39,-12
1671.0,307,-228,16320,-2320,-23,-36,-20
1679.43,306,-228,16320,-2320,-23,-36,-20
1680.498,308,-228,16320,-2320,-23,-36,-20
1680.498,306,-228,16320,-2320,-23,-36,-20
1688.538,306,-228,16320,-2320,-23,-36,-20
1688.538,306,-228,16320,-2320,-23,-36,-20
1690.98,306,-228,16320,-2320,-23,-36,-20
1695.5,306,-176,16308,-2312,-78,-46,-6
1695.5,307,-176,16308,-2312,-78,-46,-6
1695.5,307,-176,16308,-2312,-78,-46,-6
1705.973,306,-176,16308,-2312,-78,-46,-6
1710.053,306,-176,16308,-2312,-78,-46,-6
1710.053,306,-176,16308,-2312,-78,-46,-6
1713.74,307,-176,16308,-2312,-78,-46,-6
1717.834,307,-260,16348,-2344,-32,-29,6
1717.834,307,-260,16348,-2344,-32,-29,6
1722.416,307,-260,16348,-2344,-32,-29,6
1725.287,307,-260,16348,-2344,-32,-29,6
1725.287,307,-260,16348,-2344,-32,-29,6
1729.4750000000001,306,-260,16348,-2344,-32,-29,6
1729.4750000000001,306,-260,16348,-2344,-32,-29,6
1729.4750000000001,306,-184,16276,-2332,-50,-39,-6
1736.698,307,-184,16276,-2332,-50,-39,-6
1736.698,307,-184,16276,-2332,-50,-39,-6
1736.698,307,-184,16276,-2332,-50,-39,-6
1744.7569999999998,306,-184,16276,-2332,-50,-39,-6
1744.7569999999998,306,-184,16276,-2332,-50,-39,-6
1744.7569999999998,306,-184,16276,-2332,-50,-39,-6
1754.842,307,-180,16388,-2304,-11,-36,-5
1754.842,307,-180,16388,-2304,-11,-36,-5
1761.261,307,-180,16388,-2304,-11,-36,-5
1761.261,307,-180,16388,-2304,-11,-36,-5
1761.261,306,-180,16388,-2304,-11,-36,-5
1769.434,306,-180,16388,-2304,-11,-36,-5
1769.434,307,-180,16388,-2304,-11,-36,-5
1769.434,307,-152,16368,-2304,-27,-29,-2
1777.554,307,-152,16368,-2304,-27,-29,-2
1777.554,307,-152,16368,-2304,-27,-29,-2
1783.6499999999999,307,-152,16368,-2304,-27,-29,-2
1785.665,307,-152,16368,-2304,-27,-29,-2
1785.665,306,-152,16368,-2304,-27,-29,-2
1785.665,306,-152,16368,-2304,-27,-29,-2
1793.9950000000001,306,-152,16368,-2304,-27,-29,-2
1793.9950000000001,307,-204,16324,-2348,-59,-28,0
1793.9950000000001,307,-204,16324,-2348,-59,-28,0
1804.877,307,-204,16324,-2348,-59,-28,0
1804.877,307,-204,16324,-2348,-59,-28,0
1810.372,307,-204,16324,-2348,-59,-28,0
1810.372,307,-204,16324,-2348,-59,-28,0
1810.372,306,-204,16324,-2348,-59,-28,0
1810.372,307,-212,16344,-2288,-7,-47,-8
1818.65,308,-212,16344,-2288,-7,-47,-8
1818.65,307,-212,16344,-2288,-7,-47,-8
1826.666,307,-212,16344,-2288,-7,-47,-8
1826.666,306,-212,16344,-2288,-7,-47,-8
1831.905,307,-212,16344,-2288,-7,-47,-8
1834.6979999999999,306,-212,16344,-2288,-7,-47,-8
1834.6979999999999,307,-204,16356,-2324,-13,-42,-16
1834.6979999999999,308,-204,16356,-2324,-13,-42,-16
1842.719,307,-204,16356,-2324,-13,-42,-16
1844.663,307,-204,16356,-2324,-13,-42,-16
1849.21,307,-204,16356,-2324,-13,-42,-16
1850.932,307,-204,16356,-2324,-13,-42,-16
1850.932,307,-204,16356,-2324,-13,-42,-16
1850.932,307,-180,16348,-2276,-93,-48,-7
1859.901,308,-180,16348,-2276,-93,-48,-7
1859.901,307,-180,16348,-2276,-93,-48,-7
1859.901,307,-180,16348,-2276,-93,-48,-7
1867.329,307,-180,16348,-2276,-93,-48,-7
1871.676,307,-180,16348,-2276,-93,-48,-7
1873.6889999999999,307,-180,16348,-2276,-93,-48,-7
1875.445,307,-216,16364,-2324,-27,-38,-23
1875.445,307,-216,16364,-2324,-27,-38,-23
1883.705,307,-216,16364,-2324,-27,-38,-23
1885.736,307,-216,16364,-2324,-27,-38,-23
1887.772,307,-216,16364,-2324,-27,-38,-23
1892.8220000000001,307,-216,16364,-2324,-27,-38,-23
1892.8220000000001,307,-216,16364,-2324,-27,-38,-23
1896.9199999999998,307,-188,16352,-2332,7,-19,-20
1901.9250000000002,307,-188,16352,-2332,7,-19,-20
1901.9250000000002,307,-188,16352,-2332,7,-19,-20
1905.036,307,-188,16352,-2332,7,-19,-20
1910.8229999999999,307,-188,16352,-2332,7,-19,-20
1911.227,307,-188,16352,-2332,7,-19,-20
1911.227,306,-188,16352,-2332,7,-19,-20
1916.468,307,-188,16320,-2316,-74,-47,-2
1916.468,308,-188,16320,-2316,-74,-47,-2
1916.468,307,-188,16320,-2316,-74,-47,-2
1924.631,308,-188,16320,-2316,-74,-47,-2
1924.631,307,-188,16320,-2316,-74,-47,-2
1924.631,307,-188,16320,-2316,-74,-47,-2
1936.007,307,-188,16320,-2316,-74,-47,-2
1936.007,307,-188,16320,-2324,-55,-23,-12
1936.007,308,-188,16320,-2324,-55,-23,-12
1940.913,308,-188,16320,-2324,-55,-23,-12
1940.913,307,-188,16320,-2324,-55,-23,-12
1949.249,307,-188,16320,-2324,-55,-23,-12
1949.249,306,-188,16320,-2324,-55,-23,-12
1949.249,307,-188,16320,-2324,-55,-23,-12
1957.288,307,-188,16308,-2324,-2,-24,-21
1957.288,307,-188,16308,-2324,-2,-24,-21
1957.288,308,-188,16308,-2324,-2,-24,-21
1968.131,307,-188,16308,-2324,-2,-24,-21
1968.131,306,-188,16308,-2324,-2,-24,-21
1968.131,307,-188,16308,-2324,-2,-24,-21
1974.027,307,-188,16308,-2324,-2,-24,-21
1974.027,307,-148,16344,-2316,-49,-35,-4
1974.027,307,-148,16344,-2316,-49,-35,-4
1982.192,307,-148,16344,-2316,-49,-35,-4
1982.192,307,-148,16344,-2316,-49,-35,-4
1982.192,307,-148,16344,-2316,-49,-35,-4
1990.4250000000002,307,-148,16344,-2316,-49,-35,-4
1990.4250000000002,307,-148,16344,-2316,-49,-35,-4
1990.4250000000002,307,-196,16348,-2296,-42,-33,-18
2001.617,307,-196,16348,-2296,-42,-33,-18
2004.9739999999997,308,-196,16348,-2296,-42,-33,-18
2007.599,307,-196,16348,-2296,-42,-33,-18
2009.197,308,-196,16348,-2296,-42,-33,-18
2011.2130000000002,306,-196,16348,-2296,-42,-33,-18
2015.0529999999999,307,-196,16348,-2296,-42,-33,-18
2015.0529999999999,307,-184,16316,-2276,-37,-42,-16
2015.0529999999999,308,-184,16316,-2276,-37,-42,-16
2023.295,307,-184,16316,-2276,-37,-42,-16
2023.295,307,-184,16316,-2276,-37,-42,-16
2023.295,307,-184,16316,-2276,-37,-42,-16
2031.863,307,-184,16316,-2276,-37,-42,-16
2031.863,307,-184,16316,-2276,-37,-42,-16
2031.863,307,-244,16336,-2304,-14,-31,-8
2042.2129999999997,308,-244,16336,-2304,-14,-31,-8
2042.2129999999997,307,-244,16336,-2304,-14,-31,-8
2042.2129999999997,307,-244,16336,-2304,-14,-31,-8
2048.536,307,-244,16336,-2304,-14,-31,-8
2048.536,307,-244,16336,-2304,-14,-31,-8
2056.707,307,-244,16336,-2304,-14,-31,-8
2056.707,308,-212,16344,-2316,-39,-41,-14
2056.707,307,-212,16344,-2316,-39,-41,-14
2064.949,307,-212,16344,-2316,-39,-41,-14
2065.8979999999997,307,-212,16344,-2316,-39,-41,-14
2065.8979999999997,306,-212,16344,-2316,-39,-41,-14
2073.025,306,-212,16344,-2316,-39,-41,-14
2073.025,307,-212,16344,-2316,-39,-41,-14
2073.025,307,-216,16316,-2280,-78,-39,5
2081.634,307,-216,16316,-2280,-78,-39,5
2081.634,307,-216,16316,-2280,-78,-39,5
2081.634,307,-216,16316,-2280,-78,-39,5
2089.9700000000003,307,-216,16316,-2280,-78,-39,5
2089.9700000000003,307,-216,16316,-2280,-78,-39,5
2089.9700000000003,306,-216,16316,-2280,-78,-39,5
2098.392,307,-240,16356,-2272,-24,-30,-11
2098.392,308,-240,16356,-2272,-24,-30,-11
2101.027,308,-240,16356,-2272,-24,-30,-11
2106.871,307,-240,16356,-2272,-24,-30,-11
2109.621,307,-240,16356,-2272,-24,-30,-11
2109.621,307,-240,16356,-2272,-24,-30,-11
2115.158,307,-240,16356,-2272,-24,-30,-11
2115.158,308,-212,16364,-2356,-29,-41,-16
2115.158,307,-212,16364,-2356,-29,-41,-16
2123.304,307,-212,16364,-2356,-29,-41,-16
2123.304,307,-212,16364,-2356,-29,-41,-16
2131.844,307,-212,16364,-2356,-29,-41,-16
2131.844,307,-212,16364,-2356,-29,-41,-16
2136.094,307,-212,16364,-2356,-29,-41,-16
2140.0209999999997,307,-188,16280,-2276,-63,-31,-8
2141.221,307,-188,16280,-2276,-63,-31,-8
2143.905,307,-188,16280,-2276,-63,-31,-8
2148.2380000000003,307,-188,16280,-2276,-63,-31,-8
2148.2380000000003,307,-188,16280,-2276,-63,-31,-8
2152.473,307,-188,16280,-2276,-63,-31,-8
2156.71,307,-188,16280,-2276,-63,-31,-8
2160.556,307,-192,16368,-2272,-12,-13,7
2160.556,307,-192,16368,-2272,-12,-13,7
2165.1,307,-192,16368,-2272,-12,-13,7
2168.835,307,-192,16368,-2272,-12,-13,7
2168.835,307,-192,16368,-2272,-12,-13,7
2173.482,307,-192,16368,-2272,-12,-13,7
2176.539,307,-192,16368,-2272,-12,-13,7
2176.539,307,-172,16344,-2324,-24,-46,-10
2176.539,308,-172,16344,-2324,-24,-46,-10
2181.9,308,-172,16344,-2324,-24,-46,-10
2181.9,307,-172,16344,-2324,-24,-46,-10
2188.4,306,-172,16344,-2324,-24,-46,-10
2190.154,307,-172,16344,-2324,-24,-46,-10
2190.154,307,-172,16344,-2324,-24,-46,-10
2190.154,308,-192,16324,-2328,-101,-38,-6
2201.622,307,-192,16324,-2328,-101,-38,-6
2205.241,308,-192,16324,-2328,-101,-38,-6
2206.749,307,-192,16324,-2328,-101,-38,-6
2206.749,307,-192,16324,-2328,-101,-38,-6
2206.749,307,-192,16324,-2328,-101,-38,-6
2214.76,308,-192,16324,-2328,-101,-38,-6
2214.76,307,-180,16360,-2328,-30,-42,-16
2223.179,307,-180,16360,-2328,-30,-42,-16
2226.043,308,-180,16360,-2328,-30,-42,-16
2226.043,308,-180,16360,-2328,-30,-42,-16
2226.043,307,-180,16360,-2328,-30,-42,-16
2233.5759999999996,307,-180,16360,-2328,-30,-42,-16
2238.261,307,-180,16360,-2328,-30,-42,-16
2238.261,308,-172,16352,-2276,18,-32,-20
2242.018,308,-172,16352,-2276,18,-32,-20
2242.018,307,-172,16352,-2276,18,-32,-20
2242.018,308,-172,16352,-2276,18,-32,-20
2250.77,307,-172,16352,-2276,18,-32,-20
2255.0750000000003,308,-172,16352,-2276,18,-32,-20
2256.8250000000003,308,-172,16352,-2276,18,-32,-20
2256.8250000000003,308,-168,16384,-2272,-69,-38,-13
2256.8250000000003,308,-168,16384,-2272,-69,-38,-13
2267.056,307,-168,16384,-2272,-69,-38,-13
2267.056,308,-168,16384,-2272,-69,-38,-13
2267.056,307,-168,16384,-2272,-69,-38,-13
2275.214,307,-168,16384,-2272,-69,-38,-13
2275.214,308,-196,16292,-2280,-85,-35,9
2277.612,307,-196,16292,-2280,-85,-35,9
2280.902,307,-196,16292,-2280,-85,-35,9
2280.902,308,-196,16292,-2280,-85,-35,9
2288.4359999999997,307,-196,16292,-2280,-85,-35,9
2288.4359999999997,307,-196,16292,-2280,-85,-35,9
2288.4359999999997,307,-196,16292,-2280,-85,-35,9
2295.7709999999997,307,-196,16292,-2280,-85,-35,9
2296.7819999999997,308,-180,16304,-2272,28,-34,5
2296.7819999999997,308,-180,16304,-2272,28,-34,5
2304.819,308,-180,16304,-2272,28,-34,5
2306.0040000000004,307,-180,16304,-2272,28,-34,5
2306.0040000000004,307,-180,16304,-2272,28,-34,5
2306.0040000000004,307,-180,16304,-2272,28,-34,5
2316.19,308,-180,16304,-2272,28,-34,5
2316.19,307,-192,16352,-2308,-8,-42,-13
2321.1020000000003,307,-192,16352,-2308,-8,-42,-13
2321.1020000000003,308,-192,16352,-2308,-8,-42,-13
2321.1020000000003,308,-192,16352,-2308,-8,-42,-13
2321.1020000000003,307,-192,16352,-2308,-8,-42,-13
2329.578,308,-192,16352,-2308,-8,-42,-13
2329.578,307,-192,16352,-2308,-8,-42,-13
2337.729,307,-164,16276,-2324,-101,-45,-13
2337.729,307,-164,16276,-2324,-101,-45,-13
2344.919,307,-164,16276,-2324,-101,-45,-13
2345.932,307,-164,16276,-2324,-101,-45,-13
2347.335,307,-164,16276,-2324,-101,-45,-13
2350.309,307,-164,16276,-2324,-101,-45,-13
2355.0339999999997,308,-164,16276,-2324,-101,-45,-13
2355.0339999999997,308,-124,16360,-2268,-11,-47,-21
2355.0339999999997,308,-124,16360,-2268,-11,-47,-21
2365.434,308,-124,16360,-2268,-11,-47,-21
2365.434,307,-124,16360,-2268,-11,-47,-21
2370.237,307,-124,16360,-2268,-11,-47,-21
2371.3869999999997,307,-124,16360,-2268,-11,-47,-21
2371.3869999999997,307,-124,16360,-2268,-11,-47,-21
2371.3869999999997,308,-172,16336,-2272,10,-44,-17
2380.452,308,-172,16336,-2272,10,-44,-17
2382.459,307,-172,16336,-2272,10,-44,-17
2386.686,307,-172,16336,-2272,10,-44,-17
2386.686,307,-172,16336,-2272,10,-44,-17
2386.686,307,-172,16336,-2272,10,-44,-17
2398.199,307,-172,16336,-2272,10,-44,-17
2398.199,307,-180,16344,-2268,-119,-28,-13
2398.199,308,-180,16344,-2268,-119,-28,-13
2405.217,307,-180,16344,-2268,-119,-28,-13
2405.217,307,-180,16344,-2268,-119,-28,-13
2405.217,307,-180,16344,-2268,-119,-28,-13
2412.9610000000002,307,-180,16344,-2268,-119,-28,-13
2418.366,307,-180,16344,-2268,-119,-28,-13
2419.419,308,-244,16348,-2244,-40,-60,8
2422.7129999999997,308,-244,16348,-2244,-40,-60,8
2426.787,307,-244,16348,-2244,-40,-60,8
2427.796,308,-244,16348,-2244,-40,-60,8
2427.796,307,-244,16348,-2244,-40,-60,8
2427.796,307,-244,16348,-2244,-40,-60,8
2436.27,308,-244,16348,-2244,-40,-60,8
2436.27,308,-216,16332,-2316,48,-44,-5
2440.385,308,-216,16332,-2316,48,-44,-5
2440.385,308,-216,16332,-2316,48,-44,-5
2447.355,307,-216,16332,-2316,48,-44,-5
2447.355,307,-216,16332,-2316,48,-44,-5
2447.355,307,-216,16332,-2316,48,-44,-5
2455.05,308,-216,16332,-2316,48,-44,-5
2459.741,308,-188,16328,-2320,-99,-44,-25
2463.2670000000003,308,-188,16328,-2320,-99,-44,-25
2463.2670000000003,308,-188,16328,-2320,-99,-44,-25
2463.2670000000003,308,-188,16328,-2320,-99,-44,-25
2471.689,307,-188,16328,-2320,-99,-44,-25
2471.689,307,-188,16328,-2320,-99,-44,-25
2475.9030000000002,307,-188,16328,-2320,-99,-44,-25
2480.08,307,-200,16356,-2256,-87,-40,-6
2480.08,308,-200,16356,-2256,-87,-40,-6
2480.08,307,-200,16356,-2256,-87,-40,-6
2488.25,307,-200,16356,-2256,-87,-40,-6
2490.259,307,-200,16356,-2256,-87,-40,-6
2490.259,307,-200,16356,-2256,-87,-40,-6
2495.474,307,-200,16356,-2256,-87,-40,-6
2495.474,308,-188,16412,-2284,73,-47,-12
2495.474,308,-188,16412,-2284,73,-47,-12
2504.254,308,-188,16412,-2284,73,-47,-12
2505.262,307,-188,16412,-2284,73,-47,-12
2505.262,307,-188,16412,-2284,73,-47,-12
2512.84,307,-188,16412,-2284,73,-47,-12
2516.4080000000004,307,-188,16412,-2284,73,-47,-12
2519.437,308,-184,16288,-2328,-77,-39,-10
2521.451,307,-184,16288,-2328,-77,-39,-10
2525.571,308,-184,16288,-2328,-77,-39,-10
2529.319,308,-184,16288,-2328,-77,-39,-10
2529.319,306,-184,16288,-2328,-77,-39,-10
2532.7549999999997,307,-184,16288,-2328,-77,-39,-10
2536.302,307,-184,16288,-2328,-77,-39,-10
2538.389,308,-188,16320,-2272,-105,-33,-19
2538.389,307,-188,16320,-2272,-105,-33,-19
2545.6409999999996,308,-188,16320,-2272,-105,-33,-19
2548.8469999999998,307,-188,16320,-2272,-105,-33,-19
2548.8469999999998,308,-188,16320,-2272,-105,-33,-19
2551.919,307,-188,16320,-2272,-105,-33,-19
2557.613,308,-224,16312,-2240,31,-30,3
2561.7709999999997,307,-224,16312,-2240,31,-30,3
2561.7709999999997,307,-224,16312,-2240,31,-30,3
2566.152,307,-224,16312,-2240,31,-30,3
2566.152,307,-224,16312,-2240,31,-30,3
2570.22,307,-224,16312,-2240,31,-30,3
2573.457,307,-224,16312,-2240,31,-30,3
2575.4700000000003,308,-224,16312,-2240,31,-30,3
2578.42,308,-220,16424,-2324,-11,-45,-9
2578.42,308,-220,16424,-2324,-11,-45,-9
2586.6090000000004,307,-220,16424,-2324,-11,-45,-9
2586.6090000000004,308,-220,16424,-2324,-11,-45,-9
2588.184,307,-220,16424,-2324,-11,-45,-9
2592.8300000000004,307,-220,16424,-2324,-11,-45,-9
2592.8300000000004,307,-220,16424,-2324,-11,-45,-9
2592.8300000000004,308,-224,16352,-2280,-125,-34,-17
2602.836,307,-224,16352,-2280,-125,-34,-17
2602.836,307,-224,16352,-2280,-125,-34,-17
2606.431,307,-224,16352,-2280,-125,-34,-17
2609.653,307,-224,16352,-2280,-125,-34,-17
2614.909,307,-224,16352,-2280,-125,-34,-17
2616.077,307,-224,16352,-2280,-125,-34,-17
2616.077,308,-240,16344,-2292,11,-30,-14
2622.529,308,-240,16344,-2292,11,-30,-14
2624.268,307,-240,16344,-2292,11,-30,-14
2624.268,307,-240,16344,-2292,11,-30,-14
2624.268,307,-240,16344,-2292,11,-30,-14
2633.7090000000003,307,-240,16344,-2292,11,-30,-14
2633.7090000000003,307,-240,16344,-2292,11,-30,-14
2639.669,308,-188,16320,-2340,50,-22,17
2641.179,308,-188,16320,-2340,50,-22,17
2641.179,307,-188,16320,-2340,50,-22,17
2648.123,307,-188,16320,-2340,50,-22,17
2650.525,307,-188,16320,-2340,50,-22,17
2650.525,307,-188,16320,-2340,50,-22,17
2656.814,307,-188,16320,-2340,50,-22,17
2657.82,308,-216,16348,-2320,-101,-23,2
2657.82,307,-216,16348,-2320,-101,-23,2
2664.859,308,-216,16348,-2320,-101,-23,2
2667.882,307,-216,16348,-2320,-101,-23,2
2669.411,307,-216,16348,-2320,-101,-23,2
2672.825,308,-216,16348,-2320,-101,-23,2
2674.3329999999996,307,-216,16348,-2320,-101,-23,2
2678.908,308,-240,16308,-2292,-60,-40,-1
2680.913,308,-240,16308,-2292,-60,-40,-1
2684.528,307,-240,16308,-2292,-60,-40,-1
2688.1659999999997,307,-240,16308,-2292,-60,-40,-1
2690.1730000000002,307,-240,16308,-2292,-60,-40,-1
2690.1730000000002,307,-240,16308,-2292,-60,-40,-1
2690.1730000000002,308,-240,16308,-2292,-60,-40,-1
2690.1730000000002,307,-184,16352,-2316,40,-33,-19
2701.42,307,-184,16352,-2316,40,-33,-19
2705.5679999999998,307,-184,16352,-2316,40,-33,-19
2706.5739999999996,307,-184,16352,-2316,40,-33,-19
2709.691,307,-184,16352,-2316,40,-33,-19
2709.691,307,-184,16352,-2316,40,-33,-19
2716.906,307,-184,16352,-2316,40,-33,-19
2716.906,308,-272,16324,-2320,-65,-39,-23
2721.1639999999998,308,-272,16324,-2320,-65,-39,-23
2724.919,308,-272,16324,-2320,-65,-39,-23
2726.73,307,-272,16324,-2320,-65,-39,-23
2727.773,307,-272,16324,-2320,-65,-39,-23
2733.2580000000003,307,-272,16324,-2320,-65,-39,-23
2737.2709999999997,308,-272,16324,-2320,-65,-39,-23
2737.2709999999997,307,-192,16348,-2288,-111,-36,-25
2741.2909999999997,308,-192,16348,-2288,-111,-36,-25
2745.962,307,-192,16348,-2288,-111,-36,-25
2749.1259999999997,307,-192,16348,-2288,-111,-36,-25
2751.132,307,-192,16348,-2288,-111,-36,-25
2753.138,307,-192,16348,-2288,-111,-36,-25
2757.152,307,-192,16348,-2288,-111,-36,-25
2759.161,308,-160,16364,-2292,18,-30,-11
2761.1690000000003,307,-160,16364,-2292,18,-30,-11
2765.182,308,-160,16364,-2292,18,-30,-11
2767.187,308,-160,16364,-2292,18,-30,-11
2771.2059999999997,307,-160,16364,-2292,18,-30,-11
2771.2059999999997,307,-160,16364,-2292,18,-30,-11
2778.685,308,-160,16364,-2292,18,-30,-11
2779.696,307,-208,16324,-2324,-26,-17,-8
2781.703,307,-208,16324,-2324,-26,-17,-8
2781.703,307,-208,16324,-2324,-26,-17,-8
2787.78,307,-208,16324,-2324,-26,-17,-8
2787.78,307,-208,16324,-2324,-26,-17,-8
2787.78,306,-208,16324,-2324,-26,-17,-8
2796.211,307,-208,16324,-2324,-26,-17,-8
2796.92,308,-160,16328,-2284,-89,-37,-18
2803.522,307,-160,16328,-2284,-89,-37,-18
2805.536,307,-160,16328,-2284,-89,-37,-18
2805.536,308,-160,16328,-2284,-89,-37,-18
2805.536,307,-160,16328,-2284,-89,-37,-18
2815.5519999999997,307,-160,16328,-2284,-89,-37,-18
2815.5519999999997,307,-160,16328,-2284,-89,-37,-18
2815.5519999999997,308,-172,16328,-2272,-1,-31,6
2820.913,307,-172,16328,-2272,-1,-31,6
2820.913,308,-172,16328,-2272,-1,-31,6
2820.913,307,-172,16328,-2272,-1,-31,6
2829.0350000000003,307,-172,16328,-2272,-1,-31,6
2829.0350000000003,306,-172,16328,-2272,-1,-31,6
2829.0350000000003,307,-172,16328,-2272,-1,-31,6
2840.304,308,-180,16392,-2352,-1,-39,-7
2841.361,307,-180,16392,-2352,-1,-39,-7
2844.081,307,-180,16392,-2352,-1,-39,-7
2847.744,307,-180,16392,-2352,-1,-39,-7
2849.7509999999997,307,-180,16392,-2352,-1,-39,-7
2851.7619999999997,306,-180,16392,-2352,-1,-39,-7
2853.7659999999996,307,-180,16392,-2352,-1,-39,-7
2853.7659999999996,307,-228,16364,-2328,-85,-39,-8
2853.7659999999996,308,-228,16364,-2328,-85,-39,-8
2861.9539999999997,308,-228,16364,-2328,-85,-39,-8
2861.9539999999997,307,-228,16364,-2328,-85,-39,-8
2861.9539999999997,306,-228,16364,-2328,-85,-39,-8
2870.1330000000003,307,-228,16364,-2328,-85,-39,-8
2870.1330000000003,307,-228,16364,-2328,-85,-39,-8
2878.234,307,-224,16300,-2276,-48,-41,-6
2878.234,307,-224,16300,-2276,-48,-41,-6
2878.234,307,-224,16300,-2276,-48,-41,-6
2886.3120000000004,307,-224,16300,-2276,-48,-41,-6
2886.3120000000004,307,-224,16300,-2276,-48,-41,-6
2886.3120000000004,307,-224,16300,-2276,-48,-41,-6
2894.442,306,-224,16300,-2276,-48,-41,-6
2897.86,307,-260,16344,-2312,6,-28,-11
2897.86,308,-260,16344,-2312,6,-28,-11
2902.621,308,-260,16344,-2312,6,-28,-11
2905.4350000000004,307,-260,16344,-2312,6,-28,-11
2910.739,307,-260,16344,-2312,6,-28,-11
2911.7099999999996,307,-260,16344,-2312,6,-28,-11
2911.7099999999996,307,-260,16344,-2312,6,-28,-11
2918.919,307,-260,16344,-2312,6,-28,-11
2919.448,307,-180,16336,-2348,-86,-28,-14
2919.448,307,-180,16336,-2348,-86,-28,-14
2927.187,307,-180,16336,-2348,-86,-28,-14
2930.457,307,-180,16336,-2348,-86,-28,-14
2932.081,306,-180,16336,-2348,-86,-28,-14
2935.382,307,-180,16336,-2348,-86,-28,-14
2936.484,307,-180,16336,-2348,-86,-28,-14
2936.484,308,-164,16348,-2288,-29,-25,-4
2943.591,307,-164,16348,-2288,-29,-25,-4
2943.591,308,-164,16348,-2288,-29,-25,-4
2943.591,306,-164,16348,-2288,-29,-25,-4
2951.924,306,-164,16348,-2288,-29,-25,-4
2951.924,307,-164,16348,-2288,-29,-25,-4
2951.924,308,-164,16348,-2288,-29,-25,-4
2960.0460000000003,308,-192,16288,-2280,-26,-38,-29
2960.0460000000003,307,-192,16288,-2280,-26,-38,-29
2968.1000000000004,307,-192,16288,-2280,-26,-38,-29
2968.976,307,-192,16288,-2280,-26,-38,-29
2968.976,307,-192,16288,-2280,-26,-38,-29
2976.145,307,-192,16288,-2280,-26,-38,-29
2976.145,307,-192,16288,-2280,-26,-38,-29
2976.145,307,-192,16388,-2292,-44,-36,-11
2984.522,307,-192,16388,-2292,-44,-36,-11
2984.522,308,-192,16388,-2292,-44,-36,-11
2984.522,307,-192,16388,-2292,-44,-36,-11
2992.837,308,-192,16388,-2292,-44,-36,-11
2992.837,307,-192,16388,-2292,-44,-36,-11
2992.837,307,-224,16368,-2280,-78,-42,-17
3000.9260000000004,308,-224,16368,-2280,-78,-42,-17
3000.9260000000004,308,-224,16368,-2280,-78,-42,-17
3005.69,308,-224,16368,-2280,-78,-42,-17
3009.357,306,-224,16368,-2280,-78,-42,-17
3014.249,307,-224,16368,-2280,-78,-42,-17
3016.5060000000003,307,-224,16368,-2280,-78,-42,-17
3017.6310000000003,307,-192,16356,-2284,-15,-30,-9
3017.6310000000003,308,-192,16356,-2284,-15,-30,-9
3025.764,307,-192,16356,-2284,-15,-30,-9
3027.781,308,-192,16356,-2284,-15,-30,-9
3027.781,306,-192,16356,-2284,-15,-30,-9
3034.227,307,-192,16356,-2284,-15,-30,-9
3035.194,307,-192,16356,-2284,-15,-30,-9
3039.777,308,-192,16320,-2316,-18,-24,-3
3042.499,308,-192,16320,-2316,-18,-24,-3
3042.499,308,-192,16320,-2316,-18,-24,-3
3042.499,307,-192,16320,-2316,-18,-24,-3
3050.6600000000003,307,-192,16320,-2316,-18,-24,-3
3053.199,307,-192,16320,-2316,-18,-24,-3
3055.213,306,-192,16320,-2316,-18,-24,-3
3058.898,307,-232,16320,-2304,-52,-39,-13
3058.898,308,-232,16320,-2304,-52,-39,-13
3058.898,308,-232,16320,-2304,-52,-39,-13
3066.954,307,-232,16320,-2304,-52,-39,-13
3066.954,308,-232,16320,-2304,-52,-39,-13
3073.864,307,-232,16320,-2304,-52,-39,-13
3075.386,307,-232,16320,-2304,-52,-39,-13
3075.386,307,-212,16288,-2280,-47,-37,-2
3075.386,308,-212,16288,-2280,-47,-37,-2
3086.2889999999998,308,-212,16288,-2280,-47,-37,-2
3088.078,307,-212,16288,-2280,-47,-37,-2
3088.078,306,-212,16288,-2280,-47,-37,-2
3094.31,307,-212,16288,-2280,-47,-37,-2
3094.31,306,-212,16288,-2280,-47,-37,-2
3094.31,308,-152,16308,-2312,-24,-38,-11
3102.6549999999997,307,-152,16308,-2312,-24,-38,-11
3105.913,307,-152,16308,-2312,-24,-38,-11
3108.5539999999996,307,-152,16308,-2312,-24,-38,-11
3108.5539999999996,307,-152,16308,-2312,-24,-38,-11
3108.5539999999996,307,-152,16308,-2312,-24,-38,-11
3119.223,307,-152,16308,-2312,-24,-38,-11
3119.223,308,-232,16372,-2312,-41,-32,-2
3122.5260000000003,308,-232,16372,-2312,-41,-32,-2
3124.761,307,-232,16372,-2312,-41,-32,-2
3124.761,308,-232,16372,-2312,-41,-32,-2
3124.761,308,-232,16372,-2312,-41,-32,-2
3133.339,307,-232,16372,-2312,-41,-32,-2
3133.339,308,-232,16372,-2312,-41,-32,-2
3133.339,307,-180,16372,-2332,-55,-48,-13
3141.3799999999997,308,-180,16372,-2332,-55,-48,-13
3141.3799999999997,307,-180,16372,-2332,-55,-48,-13
3149.4970000000003,307,-180,16372,-2332,-55,-48,-13
3150.242,307,-180,16372,-2332,-55,-48,-13
3150.242,307,-180,16372,-2332,-55,-48,-13
3157.629,308,-180,16372,-2332,-55,-48,-13
3157.629,307,-244,16388,-2308,-33,-56,-10
3157.629,307,-244,16388,-2308,-33,-56,-10
3165.684,307,-244,16388,-2308,-33,-56,-10
3165.684,307,-244,16388,-2308,-33,-56,-10
3165.684,306,-244,16388,-2308,-33,-56,-10
3173.961,307,-244,16388,-2308,-33,-56,-10
3173.961,307,-244,16388,-2308,-33,-56,-10
3173.961,307,-200,16352,-2280,-36,-46,-6
3182.201,307,-200,16352,-2280,-36,-46,-6
3182.201,307,-200,16352,-2280,-36,-46,-6
3189.5,307,-200,16352,-2280,-36,-46,-6
3190.518,307,-200,16352,-2280,-36,-46,-6
3190.518,307,-200,16352,-2280,-36,-46,-6
3198.698,308,-200,16352,-2280,-36,-46,-6
3201.13,308,-208,16352,-2292,-37,-29,-4
3201.13,308,-208,16352,-2292,-37,-29,-4
3207.0029999999997,307,-208,16352,-2292,-37,-29,-4
3207.0029999999997,307,-208,16352,-2292,-37,-29,-4
3211.9,307,-208,16352,-2292,-37,-29,-4
3215.098,307,-208,16352,-2292,-37,-29,-4
3215.098,307,-208,16352,-2292,-37,-29,-4
3215.098,307,-248,16372,-2280,-20,-44,-15
3223.162,307,-248,16372,-2280,-20,-44,-15
3223.162,307,-248,16372,-2280,-20,-44,-15
3223.162,307,-248,16372,-2280,-20,-44,-15
3233.9359999999997,306,-248,16372,-2280,-20,-44,-15
3234.753,308,-248,16372,-2280,-20,-44,-15
3234.753,307,-248,16372,-2280,-20,-44,-15
3239.604,308,-252,16320,-2332,-42,-43,-19
3239.604,307,-252,16320,-2332,-42,-43,-19
3247.748,306,-252,16320,-2332,-42,-43,-19
3247.748,307,-252,16320,-2332,-42,-43,-19
3247.748,307,-252,16320,-2332,-42,-43,-19
3256.122,306,-252,16320,-2332,-42,-43,-19
3256.122,307,-252,16320,-2332,-42,-43,-19
3256.122,307,-144,16308,-2332,-34,-26,-23
3264.609,307,-144,16308,-2332,-34,-26,-23
3266.621,307,-144,16308,-2332,-34,-26,-23
3270.664,307,-144,16308,-2332,-34,-26,-23
3272.679,306,-144,16308,-2332,-34,-26,-23
3272.679,307,-144,16308,-2332,-34,-26,-23
3272.679,308,-144,16308,-2332,-34,-26,-23
3281.1240000000003,308,-208,16324,-2296,-35,-25,-14
3281.1240000000003,307,-208,16324,-2296,-35,-25,-14
3289.254,307,-208,16324,-2296,-35,-25,-14
3289.254,307,-208,16324,-2296,-35,-25,-14
3289.254,306,-208,16324,-2296,-35,-25,-14
3297.329,307,-208,16324,-2296,-35,-25,-14
3297.329,307,-228,16324,-2308,-48,-51,-2
3297.329,308,-228,16324,-2308,-48,-51,-2
3305.7889999999998,308,-228,16324,-2308,-48,-51,-2
3306.81,307,-228,16324,-2308,-48,-51,-2
3309.0009999999997,306,-228,16324,-2308,-48,-51,-2
3313.8540000000003,307,-228,16324,-2308,-48,-51,-2
3315.884,308,-228,16324,-2308,-48,-51,-2
3320.426,307,-216,16364,-2308,-60,-38,3
3323.0409999999997,308,-216,16364,-2308,-60,-38,3
3325.056,308,-216,16364,-2308,-60,-38,3
3325.056,307,-216,16364,-2308,-60,-38,3
3330.579,307,-216,16364,-2308,-60,-38,3
3330.579,307,-216,16364,-2308,-60,-38,3
3330.579,307,-216,16364,-2308,-60,-38,3
3339.261,307,-216,16364,-2308,-60,-38,3
3341.931,308,-168,16348,-2276,-48,-36,7
3342.838,308,-168,16348,-2276,-48,-36,7
3346.8070000000002,307,-168,16348,-2276,-48,-36,7
3348.818,307,-168,16348,-2276,-48,-36,7
3352.836,307,-168,16348,-2276,-48,-36,7
3354.917,307,-168,16348,-2276,-48,-36,7
3354.917,307,-168,16348,-2276,-48,-36,7
3360.367,308,-216,16348,-2320,-28,-41,-2
3363.477,307,-216,16348,-2320,-28,-41,-2
3363.477,307,-216,16348,-2320,-28,-41,-2
3363.477,306,-216,16348,-2320,-28,-41,-2
3372.171,307,-216,16348,-2320,-28,-41,-2
3372.171,307,-216,16348,-2320,-28,-41,-2
3372.171,307,-216,16348,-2320,-28,-41,-2
3380.078,308,-208,16344,-2308,-55,-40,5
3384.088,307,-208,16344,-2308,-55,-40,5
3386.092,308,-208,16344,-2308,-55,-40,5
3388.1009999999997,307,-208,16344,-2308,-55,-40,5
3388.1009999999997,307,-208,16344,-2308,-55,-40,5
3388.1009999999997,307,-208,16344,-2308,-55,-40,5
3397.763,307,-208,16344,-2308,-55,-40,5
3398.5089999999996,307,-188,16316,-2328,-40,-56,-8
3398.5089999999996,307,-188,16316,-2328,-40,-56,-8
3406.292,308,-188,16316,-2328,-40,-56,-8
3406.292,307,-188,16316,-2328,-40,-56,-8
3406.292,307,-188,16316,-2328,-40,-56,-8
3412.611,307,-188,16316,-2328,-40,-56,-8
3412.611,307,-188,16316,-2328,-40,-56,-8
3412.611,307,-192,16348,-2308,10,-45,-25
3420.795,307,-192,16348,-2308,10,-45,-25
3420.795,307,-192,16348,-2308,10,-45,-25
3430.593,307,-192,16348,-2308,10,-45,-25
3430.972,307,-192,16348,-2308,10,-45,-25
3431.718,306,-192,16348,-2308,10,-45,-25
3437.29,307,-192,16348,-2308,10,-45,-25
3437.29,308,-196,16332,-2340,-29,-31,-18
3437.29,307,-196,16332,-2340,-29,-31,-18
3446.647,307,-196,16332,-2340,-29,-31,-18
3446.647,307,-196,16332,-2340,-29,-31,-18
3451.0429999999997,306,-196,16332,-2340,-29,-31,-18
3455.203,306,-196,16332,-2340,-29,-31,-18
3455.711,307,-196,16332,-2340,-29,-31,-18
3455.711,307,-176,16376,-2312,-67,-40,-23
3463.1859999999997,307,-176,16376,-2312,-67,-40,-23
3463.1859999999997,307,-176,16376,-2312,-67,-40,-23
3463.1859999999997,306,-176,16376,-2312,-67,-40,-23
3471.1409999999996,307,-176,16376,-2312,-67,-40,-23
3471.1409999999996,306,-176,16376,-2312,-67,-40,-23
3478.678,307,-176,16376,-2312,-67,-40,-23
3478.678,308,-272,16384,-2300,-25,-43,-19
3478.678,307,-272,16384,-2300,-25,-43,-19
3488.049,307,-272,16384,-2300,-25,-43,-19
3488.049,307,-272,16384,-2300,-25,-43,-19
3488.049,307,-272,16384,-2300,-25,-43,-19
3495.475,306,-272,16384,-2300,-25,-43,-19
3499.628,307,-272,16384,-2300,-25,-43,-19
3499.628,307,-228,16344,-2324,-1,-21,-14
3504.068,307,-228,16344,-2324,-1,-21,-14
3506.6000000000004,307,-228,16344,-2324,-1,-21,-14
3506.6000000000004,306,-228,16344,-2324,-1,-21,-14
3512.252,306,-228,16344,-2324,-1,-21,-14
3513.3549999999996,306,-228,16344,-2324,-1,-21,-14
3517.931,307,-228,16344,-2324,-1,-21,-14
3520.6279999999997,307,-220,16336,-2264,-35,-34,-35
3520.6279999999997,307,-220,16336,-2264,-35,-34,-35
3520.6279999999997,306,-220,16336,-2264,-35,-34,-35
3529.111,306,-220,16336,-2264,-35,-34,-35
3529.111,307,-220,16336,-2264,-35,-34,-35
3537.217,306,-220,16336,-2264,-35,-34,-35
3537.217,307,-220,16336,-2264,-35,-34,-35
3537.217,307,-224,16316,-2260,-51,-18,-4
3545.366,307,-224,16316,-2260,-51,-18,-4
3545.366,307,-224,16316,-2260,-51,-18,-4
3545.366,307,-224,16316,-2260,-51,-18,-4
3553.461,306,-224,16316,-2260,-51,-18,-4
3553.461,307,-224,16316,-2260,-51,-18,-4
3553.461,307,-224,16316,-2260,-51,-18,-4
3561.5350000000003,307,-204,16308,-2300,-43,-34,-8
3565.533,307,-204,16308,-2300,-43,-34,-8
3565.533,307,-204,16308,-2300,-43,-34,-8
3569.807,306,-204,16308,-2300,-43,-34,-8
3569.807,306,-204,16308,-2300,-43,-34,-8
3569.807,306,-204,16308,-2300,-43,-34,-8
3577.907,306,-204,16308,-2300,-43,-34,-8
3577.907,306,-184,16380,-2272,-30,-29,-19
3586.177,307,-184,16380,-2272,-30,-29,-19
3586.177,307,-184,16380,-2272,-30,-29,-19
3586.177,307,-184,16380,-2272,-30,-29,-19
3594.36,306,-184,16380,-2272,-30,-29,-19
3594.36,306,-184,16380,-2272,-30,-29,-19
3594.36,306,-184,16380,-2272,-30,-29,-19
3602.761,306,-184,16348,-2320,-20,-11,-9
3605.204,307,-184,16348,-2320,-20,-11,-9
3608.728,307,-184,16348,-2320,-20,-11,-9
3610.741,307,-184,16348,-2320,-20,-11,-9
3613.803,307,-184,16348,-2320,-20,-11,-9
3613.803,307,-184,16348,-2320,-20,-11,-9
3619.062,307,-184,16348,-2320,-20,-11,-9
3623.087,307,-180,16344,-2312,-58,-42,-2
3623.087,307,-180,16344,-2312,-58,-42,-2
3627.076,307,-180,16344,-2312,-58,-42,-2
3627.076,307,-180,16344,-2312,-58,-42,-2
3627.076,307,-180,16344,-2312,-58,-42,-2
3635.26,307,-180,16344,-2312,-58,-42,-2
3639.3469999999998,306,-180,16344,-2312,-58,-42,-2
3643.284,307,-200,16316,-2348,-21,-32,-14
3643.284,307,-200,16316,-2348,-21,-32,-14
3647.442,307,-200,16316,-2348,-21,-32,-14
3651.607,306,-200,16316,-2348,-21,-32,-14
3651.607,306,-200,16316,-2348,-21,-32,-14
3654.909,307,-200,16316,-2348,-21,-32,-14
3659.819,307,-200,16316,-2348,-21,-32,-14
3659.819,307,-184,16344,-2328,-44,-31,6
3659.819,307,-184,16344,-2328,-44,-31,6
3667.983,307,-184,16344,-2328,-44,-31,6
3667.983,307,-184,16344,-2328,-44,-31,6
3672.6969999999997,306,-184,16344,-2328,-44,-31,6
3675.7960000000003,307,-184,16344,-2328,-44,-31,6
3678.116,306,-184,16344,-2328,-44,-31,6
3678.116,307,-224,16336,-2284,-41,-61,-2
3684.103,307,-224,16336,-2284,-41,-61,-2
3688.282,307,-224,16336,-2284,-41,-61,-2
3690.29,307,-224,16336,-2284,-41,-61,-2
3692.304,306,-224,16336,-2284,-41,-61,-2
3696.602,307,-224,16336,-2284,-41,-61,-2
3696.602,307,-224,16336,-2284,-41,-61,-2
3700.6929999999998,307,-240,16348,-2268,6,-47,-17
3700.6929999999998,307,-240,16348,-2268,6,-47,-17
3705.184,307,-240,16348,-2268,6,-47,-17
3709.1479999999997,306,-240,16348,-2268,6,-47,-17
3710.579,307,-240,16348,-2268,6,-47,-17
3710.579,306,-240,16348,-2268,6,-47,-17
3717.227,307,-240,16348,-2268,6,-47,-17
3721.777,307,-184,16320,-2300,-28,-34,-6
3723.793,307,-184,16320,-2300,-28,-34,-6
3725.535,307,-184,16320,-2300,-28,-34,-6
3727.575,307,-184,16320,-2300,-28,-34,-6
3727.575,307,-184,16320,-2300,-28,-34,-6
3733.8650000000002,307,-184,16320,-2300,-28,-34,-6
3737.879,307,-184,16320,-2300,-28,-34,-6
3741.895,307,-184,16320,-2300,-28,-34,-6
3741.895,307,-196,16356,-2336,-60,-24,-19
3744.941,307,-196,16356,-2336,-60,-24,-19
3744.941,307,-196,16356,-2336,-60,-24,-19
3753.946,306,-196,16356,-2336,-60,-24,-19
3754.8089999999997,306,-196,16356,-2336,-60,-24,-19
3756.817,307,-196,16356,-2336,-60,-24,-19
3762.109,307,-212,16252,-2312,-26,-35,-10
3762.109,308,-212,16252,-2312,-26,-35,-10
3766.206,307,-212,16252,-2312,-26,-35,-10
3766.206,307,-212,16252,-2312,-26,-35,-10
3774.089,306,-212,16252,-2312,-26,-35,-10
3774.089,307,-212,16252,-2312,-26,-35,-10
3774.089,307,-212,16252,-2312,-26,-35,-10
3782.3190000000004,307,-212,16280,-2284,-62,-36,-1
3782.3190000000004,307,-212,16280,-2284,-62,-36,-1
3786.727,307,-212,16280,-2284,-62,-36,-1
3790.493,306,-212,16280,-2284,-62,-36,-1
3792.666,307,-212,16280,-2284,-62,-36,-1
3794.82,306,-212,16280,-2284,-62,-36,-1
3798.887,307,-212,16280,-2284,-62,-36,-1
3802.946,307,-224,16336,-2288,-22,-29,-7
3802.946,307,-224,16336,-2288,-22,-29,-7
3806.9790000000003,307,-224,16336,-2288,-22,-29,-7
3810.7540000000004,307,-224,16336,-2288,-22,-29,-7
3810.7540000000004,306,-224,16336,-2288,-22,-29,-7
3815.4300000000003,306,-224,16336,-2288,-22,-29,-7
3815.4300000000003,307,-224,16336,-2288,-22,-29,-7
3815.4300000000003,307,-212,16332,-2276,-47,-29,-9
3823.52,307,-212,16332,-2276,-47,-29,-9
3825.531,308,-212,16332,-2276,-47,-29,-9
3825.531,307,-212,16332,-2276,-47,-29,-9
3831.701,306,-212,16332,-2276,-47,-29,-9
3833.714,307,-212,16332,-2276,-47,-29,-9
3839.883,307,-212,16332,-2276,-47,-29,-9
3839.883,307,-240,16256,-2300,-54,-36,-28
3839.883,306,-240,16256,-2300,-54,-36,-28
3848.15,307,-240,16256,-2300,-54,-36,-28
3848.15,307,-240,16256,-2300,-54,-36,-28
3852.254,307,-240,16256,-2300,-54,-36,-28
3856.4759999999997,307,-240,16256,-2300,-54,-36,-28
3860.359,307,-240,16256,-2300,-54,-36,-28
3860.359,307,-204,16300,-2272,-31,-36,-5
3864.865,307,-204,16300,-2272,-31,-36,-5
3868.394,307,-204,16300,-2272,-31,-36,-5
3868.394,307,-204,16300,-2272,-31,-36,-5
3874.33,307,-204,16300,-2272,-31,-36,-5
3875.218,307,-204,16300,-2272,-31,-36,-5
3875.218,307,-204,16300,-2272,-31,-36,-5
3880.9010000000003,307,-188,16324,-2348,-27,-22,-2
3880.9010000000003,307,-188,16324,-2348,-27,-22,-2
3880.9010000000003,307,-188,16324,-2348,-27,-22,-2
3889.1659999999997,306,-188,16324,-2348,-27,-22,-2
3889.1659999999997,306,-188,16324,-2348,-27,-22,-2
3897.321,307,-188,16324,-2348,-27,-22,-2
3897.321,307,-188,16324,-2348,-27,-22,-2
3897.321,307,-196,16328,-2304,-63,-38,-26
3905.465,307,-196,16328,-2304,-63,-38,-26
3906.975,306,-196,16328,-2304,-63,-38,-26
3906.975,307,-196,16328,-2304,-63,-38,-26
3913.8289999999997,306,-196,16328,-2304,-63,-38,-26
3915.8360000000002,308,-196,16328,-2304,-63,-38,-26
3915.8360000000002,307,-196,16328,-2304,-63,-38,-26
3921.929,307,-224,16332,-2276,-33,-35,-7
3923.937,307,-224,16332,-2276,-33,-35,-7
3923.937,307,-224,16332,-2276,-33,-35,-7
3930.164,307,-224,16332,-2276,-33,-35,-7
3930.164,306,-224,16332,-2276,-33,-35,-7
3930.164,307,-224,16332,-2276,-33,-35,-7
3938.561,307,-224,16332,-2276,-33,-35,-7
3942.582,307,-176,16340,-2264,-8,-42,-20
3942.582,307,-176,16340,-2264,-8,-42,-20
3946.796,307,-176,16340,-2264,-8,-42,-20
3950.513,306,-176,16340,-2264,-8,-42,-20
3950.513,307,-176,16340,-2264,-8,-42,-20
3955.281,307,-176,16340,-2264,-8,-42,-20
3958.903,308,-176,16340,-2264,-8,-42,-20
3961.812,307,-204,16352,-2276,-75,-35,-3
3963.6040000000003,307,-204,16352,-2276,-75,-35,-3
3965.992,307,-204,16352,-2276,-75,-35,-3
3965.992,308,-204,16352,-2276,-75,-35,-3
3972.0930000000003,307,-204,16352,-2276,-75,-35,-3
3972.0930000000003,307,-204,16352,-2276,-75,-35,-3
3972.0930000000003,307,-204,16352,-2276,-75,-35,-3
3983.294,307,-184,16392,-2280,-40,-36,-10
3983.294,308,-184,16392,-2280,-40,-36,-10
3988.583,308,-184,16392,-2280,-40,-36,-10
3990.592,307,-184,16392,-2280,-40,-36,-10
3990.592,307,-184,16392,-2280,-40,-36,-10
3990.592,307,-184,16392,-2280,-40,-36,-10
3999.683,307,-184,16392,-2280,-40,-36,-10
3999.683,308,-220,16328,-2288,-4,-23,2
4004.7680000000005,308,-220,16328,-2288,-4,-23,2
4006.9309999999996,307,-220,16328,-2288,-4,-23,2
4008.9449999999997,307,-220,16328,-2288,-4,-23,2
4011.9939999999997,308,-220,16328,-2288,-4,-23,2
4013.006,307,-220,16328,-2288,-4,-23,2
4013.006,307,-220,16328,-2288,-4,-23,2
4018.358,307,-220,16328,-2288,-4,-23,2
4021.4590000000003,307,-216,16396,-2300,-78,-30,-19
4025.1820000000002,308,-216,16396,-2300,-78,-30,-19
4026.6440000000002,307,-216,16396,-2300,-78,-30,-19
4029.554,307,-216,16396,-2300,-78,-30,-19
4029.554,307,-216,16396,-2300,-78,-30,-19
4038.029,307,-216,16396,-2300,-78,-30,-19
4040.9040000000005,307,-216,16396,-2300,-78,-30,-19
4044.3030000000003,307,-232,16336,-2276,-32,-29,-7
4044.3030000000003,308,-232,16336,-2276,-32,-29,-7
4049.3639999999996,307,-232,16336,-2276,-32,-29,-7
4049.3639999999996,307,-232,16336,-2276,-32,-29,-7
4056.591,307,-232,16336,-2276,-32,-29,-7
4056.591,307,-232,16336,-2276,-32,-29,-7
4060.064,307,-232,16336,-2276,-32,-29,-7
4065.0969999999998,307,-276,16328,-2340,20,-24,-21
4066.1569999999997,307,-276,16328,-2340,20,-24,-21
4067.1869999999994,307,-276,16328,-2340,20,-24,-21
4071.702,306,-276,16328,-2340,20,-24,-21
4073.709,307,-276,16328,-2340,20,-24,-21
4073.709,307,-276,16328,-2340,20,-24,-21
4081.1000000000004,308,-276,16328,-2340,20,-24,-21
4081.1000000000004,307,-208,16264,-2280,-74,-19,-21
4081.1000000000004,307,-208,16264,-2280,-74,-19,-21
4089.474,307,-208,16264,-2280,-74,-19,-21
4091.483,307,-208,16264,-2280,-74,-19,-21
4091.483,307,-208,16264,-2280,-74,-19,-21
4096.193,307,-208,16264,-2280,-74,-19,-21
4101.759,307,-208,16264,-2280,-74,-19,-21
4101.759,307,-228,16360,-2320,-75,-56,2
4103.512000000001,307,-228,16360,-2320,-75,-56,2
4106.753000000001,307,-228,16360,-2320,-75,-56,2
4106.753000000001,307,-228,16360,-2320,-75,-56,2
4112.082,307,-228,16360,-2320,-75,-56,2
4112.082,308,-228,16360,-2320,-75,-56,2
4119.946,307,-228,16360,-2320,-75,-56,2
4119.946,307,-212,16372,-2308,-16,-45,-17
4119.946,308,-212,16372,-2308,-16,-45,-17
4128.316,307,-212,16372,-2308,-16,-45,-17
4128.316,307,-212,16372,-2308,-16,-45,-17
4128.316,307,-212,16372,-2308,-16,-45,-17
4136.558,307,-212,16372,-2308,-16,-45,-17
4136.558,307,-212,16372,-2308,-16,-45,-17
4136.558,308,-240,16352,-2316,-36,-41,10
4147.312999999999,308,-240,16352,-2316,-36,-41,10
4148.113,308,-240,16352,-2316,-36,-41,10
4148.113,307,-240,16352,-2316,-36,-41,10
4153.079,307,-240,16352,-2316,-36,-41,10
4153.079,307,-240,16352,-2316,-36,-41,10
4153.079,307,-240,16352,-2316,-36,-41,10
4161.533,308,-148,16328,-2272,-80,-43,-21
4161.533,308,-148,16328,-2272,-80,-43,-21
4161.533,307,-148,16328,-2272,-80,-43,-21
4169.793000000001,307,-148,16328,-2272,-80,-43,-21
4169.793000000001,307,-148,16328,-2272,-80,-43,-21
4180.084,307,-148,16328,-2272,-80,-43,-21
4180.608,307,-148,16328,-2272,-80,-43,-21
4180.608,308,-200,16360,-2264,1,-29,-10
4186.114,307,-200,16360,-2264,1,-29,-10
4186.114,307,-200,16360,-2264,1,-29,-10
4186.114,307,-200,16360,-2264,1,-29,-10
4194.299,306,-200,16360,-2264,1,-29,-10
4194.299,307,-200,16360,-2264,1,-29,-10
4194.299,306,-200,16360,-2264,1,-29,-10
4202.418,307,-232,16316,-2284,-18,-16,-24
4202.418,306,-232,16316,-2284,-18,-16,-24
4208.615,306,-232,16316,-2284,-18,-16,-24
4210.974,306,-232,16316,-2284,-18,-16,-24
4210.974,306,-232,16316,-2284,-18,-16,-24
4210.974,306,-232,16316,-2284,-18,-16,-24
4219.278,306,-232,16316,-2284,-18,-16,-24
4219.278,306,-192,16368,-2356,-82,-52,-19
4219.278,303,-192,16368,-2356,-82,-52,-19
4230.217,303,-192,16368,-2356,-82,-52,-19
4232.088,302,-192,16368,-2356,-82,-52,-19
4235.636,303,-192,16368,-2356,-82,-52,-19
4235.636,303,-192,16368,-2356,-82,-52,-19
4235.636,303,-192,16368,-2356,-82,-52,-19
4245.573,303,-268,16272,-2252,3,-33,-16
4246.081,304,-268,16272,-2252,3,-33,-16
4246.081,303,-268,16272,-2252,3,-33,-16
4252.0740000000005,303,-268,16272,-2252,3,-33,-16
4254.083,303,-268,16272,-2252,3,-33,-16
4258.103,303,-268,16272,-2252,3,-33,-16
4260.122,303,-268,16272,-2252,3,-33,-16
4262.1320000000005,303,-188,16376,-2324,-4,-20,2
4266.147,303,-188,16376,-2324,-4,-20,2
4270.165000000001,303,-188,16376,-2324,-4,-20,2
4270.165000000001,303,-188,16376,-2324,-4,-20,2
4274.184,303,-188,16376,-2324,-4,-20,2
4278.2,303,-188,16376,-2324,-4,-20,2
4278.2,302,-188,16376,-2324,-4,-20,2
4282.213,301,-232,16328,-2300,-88,-40,-13
4286.227,300,-232,16328,-2300,-88,-40,-13
4286.227,300,-232,16328,-2300,-88,-40,-13
4286.227,298,-232,16328,-2300,-88,-40,-13
4294.323,299,-232,16328,-2300,-88,-40,-13
4297.2429999999995,300,-232,16328,-2300,-88,-40,-13
4299.249,300,-232,16328,-2300,-88,-40,-13
4300.755999999999,300,-220,16336,-2244,-32,-31,-19
4306.87,298,-220,16336,-2244,-32,-31,-19
4306.87,296,-220,16336,-2244,-32,-31,-19
4308.968,293,-220,16336,-2244,-32,-31,-19
4308.968,295,-220,16336,-2244,-32,-31,-19
4317.107,294,-220,16336,-2244,-32,-31,-19
4317.107,296,-220,16336,-2244,-32,-31,-19
4317.107,298,-204,16336,-2328,1,-22,7
4325.63,298,-204,16336,-2328,1,-22,7
4325.63,298,-204,16336,-2328,1,-22,7
4325.63,297,-204,16336,-2328,1,-22,7
4325.63,295,-204,16336,-2328,1,-22,7
4333.704,294,-204,16336,-2328,1,-22,7
4333.704,295,-204,16336,-2328,1,-22,7
4333.704,297,-204,16336,-2328,1,-22,7
4341.822999999999,298,-284,16336,-2284,-67,-23,-8
4341.822999999999,298,-284,16336,-2284,-67,-23,-8
4341.822999999999,298,-284,16336,-2284,-67,-23,-8
4349.955,297,-284,16336,-2284,-67,-23,-8
4349.955,295,-284,16336,-2284,-67,-23,-8
4360.15,296,-284,16336,-2284,-67,-23,-8
4362.165,297,-284,16336,-2284,-67,-23,-8
4362.165,298,-224,16284,-2308,-46,-51,-15
4366.542,300,-224,16284,-2308,-46,-51,-15
4366.542,301,-224,16284,-2308,-46,-51,-15
4366.542,300,-224,16284,-2308,-46,-51,-15
4374.792,300,-224,16284,-2308,-46,-51,-15
4374.792,298,-224,16284,-2308,-46,-51,-15
4374.792,299,-224,16284,-2308,-46,-51,-15
4383.666,298,-220,16328,-2300,-16,-14,-31
4383.666,299,-220,16328,-2300,-16,-14,-31
4383.666,299,-220,16328,-2300,-16,-14,-31
4390.975,301,-220,16328,-2300,-16,-14,-31
4390.975,300,-220,16328,-2300,-16,-14,-31
4399.152,301,-220,16328,-2300,-16,-14,-31
4399.152,303,-220,16328,-2300,-16,-14,-31
4399.152,302,-164,16352,-2364,-52,-44,-3
4407.126,300,-164,16352,-2364,-52,-44,-3
4407.126,299,-164,16352,-2364,-52,-44,-3
4407.126,297,-164,16352,-2364,-52,-44,-3
4415.439,296,-164,16352,-2364,-52,-44,-3
4415.439,296,-164,16352,-2364,-52,-44,-3
4415.439,296,-164,16352,-2364,-52,-44,-3
4423.909,296,-220,16336,-2284,-37,-23,3
4423.909,297,-220,16336,-2284,-37,-23,3
4423.909,297,-220,16336,-2284,-37,-23,3
4432.467,298,-220,16336,-2284,-37,-23,3
4432.467,299,-220,16336,-2284,-37,-23,3
4437.861,300,-220,16336,-2284,-37,-23,3
4440.548,300,-220,16336,-2284,-37,-23,3
4440.548,301,-196,16340,-2276,-49,-34,-4
4440.548,301,-196,16340,-2276,-49,-34,-4
4450.369000000001,302,-196,16340,-2276,-49,-34,-4
4451.362999999999,302,-196,16340,-2276,-49,-34,-4
4451.362999999999,301,-196,16340,-2276,-49,-34,-4
4456.797,302,-196,16340,-2276,-49,-34,-4
4456.797,303,-196,16340,-2276,-49,-34,-4
4465.005999999999,303,-220,16280,-2284,-48,-37,-2
4465.005999999999,304,-220,16280,-2284,-48,-37,-2
4465.005999999999,304,-220,16280,-2284,-48,-37,-2
4473.191,302,-220,16280,-2284,-48,-37,-2
4476.0689999999995,303,-220,16280,-2284,-48,-37,-2
4479.467,302,-220,16280,-2284,-48,-37,-2
4483.192,303,-220,16280,-2284,-48,-37,-2
4483.535,303,-224,16372,-2308,-34,-31,6
4483.535,303,-224,16372,-2308,-34,-31,6
4489.347000000001,304,-224,16372,-2308,-34,-31,6
4492.9529999999995,304,-224,16372,-2308,-34,-31,6
4492.9529999999995,303,-224,16372,-2308,-34,-31,6
4497.649,303,-224,16372,-2308,-34,-31,6
4497.649,303,-224,16372,-2308,-34,-31,6
4497.649,303,-168,16360,-2296,-36,-36,-12
4507.382,304,-168,16360,-2296,-36,-36,-12
4507.382,304,-168,16360,-2296,-36,-36,-12
4507.382,304,-168,16360,-2296,-36,-36,-12
4514.485,304,-168,16360,-2296,-36,-36,-12
4514.485,305,-168,16360,-2296,-36,-36,-12
4514.485,303,-168,16360,-2296,-36,-36,-12
4522.7339999999995,301,-224,16344,-2288,-69,-7,-20
4522.7339999999995,300,-224,16344,-2288,-69,-7,-20
4522.7339999999995,300,-224,16344,-2288,-69,-7,-20
4530.837,300,-224,16344,-2288,-69,-7,-20
4530.837,301,-224,16344,-2288,-69,-7,-20
4539.0,301,-224,16344,-2288,-69,-7,-20
4539.0,302,-224,16344,-2288,-69,-7,-20
4539.0,302,-200,16328,-2288,-26,-25,-7
4539.0,302,-200,16328,-2288,-26,-25,-7
4547.096,303,-200,16328,-2288,-26,-25,-7
4547.096,304,-200,16328,-2288,-26,-25,-7
4555.437000000001,304,-200,16328,-2288,-26,-25,-7
4555.437000000001,305,-200,16328,-2288,-26,-25,-7
4555.437000000001,305,-200,16328,-2288,-26,-25,-7
4563.516,306,-220,16320,-2304,-22,-33,-24
4563.516,306,-220,16320,-2304,-22,-33,-24
4563.516,305,-220,16320,-2304,-22,-33,-24
4571.954,305,-220,16320,-2304,-22,-33,-24
4571.954,305,-220,16320,-2304,-22,-33,-24
4571.954,305,-220,16320,-2304,-22,-33,-24
4580.138,307,-220,16320,-2304,-22,-33,-24
4580.138,307,-264,16368,-2288,-59,-35,-4
4580.138,307,-264,16368,-2288,-59,-35,-4
4588.573,306,-264,16368,-2288,-59,-35,-4
4588.573,307,-264,16368,-2288,-59,-35,-4
4588.573,306,-264,16368,-2288,-59,-35,-4
4597.083,307,-264,16368,-2288,-59,-35,-4
4602.2,306,-264,16368,-2288,-59,-35,-4
4602.2,304,-180,16372,-2316,-33,-27,7
4605.32,303,-180,16372,-2316,-33,-27,7
4607.745000000001,305,-180,16372,-2316,-33,-27,7
4607.745000000001,305,-180,16372,-2316,-33,-27,7
4613.8820000000005,306,-180,16372,-2316,-33,-27,7
4616.856000000001,306,-180,16372,-2316,-33,-27,7
4616.856000000001,307,-180,16372,-2316,-33,-27,7
4622.122,308,-156,16364,-2328,-9,-37,-13
4622.122,308,-156,16364,-2328,-9,-37,-13
4630.6810000000005,306,-156,16364,-2328,-9,-37,-13
4630.6810000000005,307,-156,16364,-2328,-9,-37,-13
4630.6810000000005,307,-156,16364,-2328,-9,-37,-13
4638.82,307,-156,16364,-2328,-9,-37,-13
4638.82,309,-156,16364,-2328,-9,-37,-13
4638.82,309,-168,16320,-2324,-56,-27,-13
4646.885,310,-168,16320,-2324,-56,-27,-13
4650.04,309,-168,16320,-2324,-56,-27,-13
4650.04,309,-168,16320,-2324,-56,-27,-13
4655.084000000001,309,-168,16320,-2324,-56,-27,-13
4657.0960000000005,309,-168,16320,-2324,-56,-27,-13
4657.0960000000005,309,-168,16320,-2324,-56,-27,-13
4663.258,310,-192,16312,-2268,-43,-42,-7
4663.258,309,-192,16312,-2268,-43,-42,-7
4663.258,310,-192,16312,-2268,-43,-42,-7
4671.6939999999995,310,-192,16312,-2268,-43,-42,-7
4673.704,310,-192,16312,-2268,-43,-42,-7
4679.7339999999995,310,-192,16312,-2268,-43,-42,-7
4679.7339999999995,311,-192,16312,-2268,-43,-42,-7
4683.7210000000005,311,-220,16376,-2308,-6,-25,-17
4688.04,311,-220,16376,-2308,-6,-25,-17
4690.049,311,-220,16376,-2308,-6,-25,-17
4690.049,311,-220,16376,-2308,-6,-25,-17
4696.068,309,-220,16376,-2308,-6,-25,-17
4696.068,309,-220,16376,-2308,-6,-25,-17
4700.064,309,-220,16376,-2308,-6,-25,-17
4704.49,309,-208,16340,-2280,-50,-52,-14
4708.018,310,-208,16340,-2280,-50,-52,-14
4709.401,310,-208,16340,-2280,-50,-52,-14
4712.722000000001,308,-208,16340,-2280,-50,-52,-14
4712.722000000001,307,-208,16340,-2280,-50,-52,-14
4712.722000000001,307,-208,16340,-2280,-50,-52,-14
4721.18,308,-208,16340,-2280,-50,-52,-14
4723.371,309,-220,16312,-2308,-42,-38,-11
4723.371,310,-220,16312,-2308,-42,-38,-11
4723.371,309,-220,16312,-2308,-42,-38,-11
4729.624000000001,309,-220,16312,-2308,-42,-38,-11
4735.86,310,-220,16312,-2308,-42,-38,-11
4735.86,311,-220,16312,-2308,-42,-38,-11
4739.6,310,-220,16312,-2308,-42,-38,-11
4744.001,311,-196,16360,-2232,-1,-41,-16
4744.001,312,-196,16360,-2232,-1,-41,-16
4748.974999999999,311,-196,16360,-2232,-1,-41,-16
4750.592000000001,311,-196,16360,-2232,-1,-41,-16
4755.737,310,-196,16360,-2232,-1,-41,-16
4755.737,311,-196,16360,-2232,-1,-41,-16
4761.309,311,-196,16360,-2232,-1,-41,-16
4765.524,312,-276,16348,-2280,-78,-30,2
4765.524,312,-276,16348,-2280,-78,-30,2
4765.524,312,-276,16348,-2280,-78,-30,2
4773.3189999999995,312,-276,16348,-2280,-78,-30,2
4773.3189999999995,311,-276,16348,-2280,-78,-30,2
4773.3189999999995,311,-276,16348,-2280,-78,-30,2
4781.621999999999,310,-276,16348,-2280,-78,-30,2
4781.621999999999,311,-240,16284,-2244,-48,-31,-21
4785.635,311,-240,16284,-2244,-48,-31,-21
4790.284,310,-240,16284,-2244,-48,-31,-21
4791.472,310,-240,16284,-2244,-48,-31,-21
4791.472,310,-240,16284,-2244,-48,-31,-21
4795.657,309,-240,16284,-2244,-48,-31,-21
4795.657,310,-240,16284,-2244,-48,-31,-21
4795.657,311,-196,16368,-2312,46,-36,-13
4804.541,310,-196,16368,-2312,46,-36,-13
4808.1849999999995,310,-196,16368,-2312,46,-36,-13
4811.558,309,-196,16368,-2312,46,-36,-13
4811.558,310,-196,16368,-2312,46,-36,-13
4811.558,310,-196,16368,-2312,46,-36,-13
4820.817,311,-196,16368,-2312,46,-36,-13
4823.141,311,-208,16388,-2312,-50,-35,-25
4826.379,311,-208,16388,-2312,-50,-35,-25
4829.521,311,-208,16388,-2312,-50,-35,-25
4829.521,311,-208,16388,-2312,-50,-35,-25
4832.112,311,-208,16388,-2312,-50,-35,-25
4838.143,311,-208,16388,-2312,-50,-35,-25
4838.143,311,-208,16388,-2312,-50,-35,-25
4838.143,312,-196,16380,-2292,-96,-31,-3
4847.572,311,-196,16380,-2292,-96,-31,-3
4847.572,311,-196,16380,-2292,-96,-31,-3
4847.572,311,-196,16380,-2292,-96,-31,-3
4855.1669999999995,311,-196,16380,-2292,-96,-31,-3
4859.687,310,-196,16380,-2292,-96,-31,-3
4859.687,311,-196,16380,-2292,-96,-31,-3
4861.441,312,-200,16320,-2240,-4,-26,-4
4861.441,311,-200,16320,-2240,-4,-26,-4
4861.441,310,-200,16320,-2240,-4,-26,-4
4871.508000000001,310,-200,16320,-2240,-4,-26,-4
4873.515,311,-200,16320,-2240,-4,-26,-4
4873.515,310,-200,16320,-2240,-4,-26,-4
4877.968,310,-200,16320,-2240,-4,-26,-4
4877.968,310,-188,16348,-2312,10,-24,-35
4877.968,310,-188,16348,-2312,10,-24,-35
4888.091,310,-188,16348,-2312,10,-24,-35
4890.097,310,-188,16348,-2312,10,-24,-35
4896.687,309,-188,16348,-2312,10,-24,-35
4896.687,310,-188,16348,-2312,10,-24,-35
4896.687,311,-188,16348,-2312,10,-24,-35
4904.466,311,-188,16348,-2312,10,-24,-35
4904.466,311,-168,16360,-2332,-114,-37,-30
4908.423,311,-168,16360,-2332,-114,-37,-30
4911.383,310,-168,16360,-2332,-114,-37,-30
4911.383,310,-168,16360,-2332,-114,-37,-30
4911.383,311,-168,16360,-2332,-114,-37,-30
4919.599,311,-168,16360,-2332,-114,-37,-30
4922.627,311,-204,16340,-2324,-27,-44,7
4922.627,311,-204,16340,-2324,-27,-44,7
4928.129,311,-204,16340,-2324,-27,-44,7
4928.129,311,-204,16340,-2324,-27,-44,7
4928.129,311,-204,16340,-2324,-27,-44,7
4938.347000000001,312,-204,16340,-2324,-27,-44,7
4940.354,312,-204,16340,-2324,-27,-44,7
4940.354,311,-176,16292,-2324,1,-42,-20
4945.848,311,-176,16292,-2324,1,-42,-20
4949.938999999999,312,-176,16292,-2324,1,-42,-20
4949.938999999999,310,-176,16292,-2324,1,-42,-20
4954.95,309,-176,16292,-2324,1,-42,-20
4956.957,308,-176,16292,-2324,1,-42,-20
4956.957,309,-176,16292,-2324,1,-42,-20
4961.198,309,-176,16292,-2324,1,-42,-20
4966.351000000001,309,-196,16372,-2304,-63,-26,-8
4969.37,309,-196,16372,-2304,-63,-26,-8
4971.378,310,-196,16372,-2304,-63,-26,-8
4973.384,310,-196,16372,-2304,-63,-26,-8
4977.629,310,-196,16372,-2304,-63,-26,-8
4977.629,311,-196,16372,-2304,-63,-26,-8
4977.629,311,-196,16372,-2304,-63,-26,-8
4986.809,311,-204,16296,-2236,-62,-43,15
4988.101000000001,311,-204,16296,-2236,-62,-43,15
4989.647,310,-204,16296,-2236,-62,-43,15
4994.259,310,-204,16296,-2236,-62,-43,15
4995.902,310,-204,16296,-2236,-62,-43,15
4995.902,310,-204,16296,-2236,-62,-43,15
5002.786,310,-204,16296,-2236,-62,-43,15
5004.798,311,-196,16340,-2336,7,-3,-21
5004.798,311,-196,16340,-2336,7,-3,-21
5010.874000000001,311,-196,16340,-2336,7,-3,-21
5010.874000000001,311,-196,16340,-2336,7,-3,-21
5010.874000000001,310,-196,16340,-2336,7,-3,-21
5019.352,310,-196,16340,-2336,7,-3,-21
5020.186,311,-196,16340,-2336,7,-3,-21
5023.929,312,-188,16384,-2268,-28,-50,-7
5027.5869999999995,312,-188,16384,-2268,-28,-50,-7
5027.5869999999995,312,-188,16384,-2268,-28,-50,-7
5027.5869999999995,312,-188,16384,-2268,-28,-50,-7
5035.938,311,-188,16384,-2268,-28,-50,-7
5035.938,311,-188,16384,-2268,-28,-50,-7
5035.938,311,-188,16384,-2268,-28,-50,-7
5044.401,312,-200,16340,-2304,-64,-40,-13
5048.2519999999995,311,-200,16340,-2304,-64,-40,-13
5048.2519999999995,310,-200,16340,-2304,-64,-40,-13
5052.464,310,-200,16340,-2304,-64,-40,-13
5052.464,311,-200,16340,-2304,-64,-40,-13
5060.487,311,-200,16340,-2304,-64,-40,-13
5060.487,311,-200,16340,-2304,-64,-40,-13
5060.487,310,-212,16344,-2256,-4,-40,-19
5068.899,311,-212,16344,-2256,-4,-40,-19
5068.899,310,-212,16344,-2256,-4,-40,-19
5071.503,309,-212,16344,-2256,-4,-40,-19
5076.968,309,-212,16344,-2256,-4,-40,-19
5078.978,310,-212,16344,-2256,-4,-40,-19
5081.008,310,-212,16344,-2256,-4,-40,-19
5085.15,310,-248,16340,-2288,-20,-27,-6
5085.15,310,-248,16340,-2288,-20,-27,-6
5089.171,310,-248,16340,-2288,-20,-27,-6
5093.224,310,-248,16340,-2288,-20,-27,-6
5094.268,309,-248,16340,-2288,-20,-27,-6
5094.268,310,-248,16340,-2288,-20,-27,-6
5101.452,309,-248,16340,-2288,-20,-27,-6
5105.017,310,-216,16324,-2296,-72,-33,0
5107.027,310,-216,16324,-2296,-72,-33,0
5109.039,310,-216,16324,-2296,-72,-33,0
5113.795999999999,310,-216,16324,-2296,-72,-33,0
5113.795999999999,309,-216,16324,-2296,-72,-33,0
5117.223,310,-216,16324,-2296,-72,-33,0
5121.753,309,-216,16324,-2296,-72,-33,0
5121.753,310,-216,16324,-2296,-72,-33,0
5125.981000000001,309,-200,16328,-2292,-33,-39,-19
5127.724,309,-200,16328,-2292,-33,-39,-19
5134.112,308,-200,16328,-2292,-33,-39,-19
5134.112,308,-200,16328,-2292,-33,-39,-19
5137.592,309,-200,16328,-2292,-33,-39,-19
5141.356,310,-200,16328,-2292,-33,-39,-19
5143.3099999999995,310,-200,16328,-2292,-33,-39,-19
5144.451,310,-240,16380,-2300,8,-31,-7
5150.638,309,-240,16380,-2300,8,-31,-7
5150.638,309,-240,16380,-2300,8,-31,-7
5155.0599999999995,308,-240,16380,-2300,8,-31,-7
5158.075,308,-240,16380,-2300,8,-31,-7
5158.075,308,-240,16380,-2300,8,-31,-7
5158.075,308,-240,16380,-2300,8,-31,-7
5166.628000000001,309,-208,16392,-2324,-58,-49,1
5166.628000000001,309,-208,16392,-2324,-58,-49,1
5171.65,308,-208,16392,-2324,-58,-49,1
5174.661,309,-208,16392,-2324,-58,-49,1
5174.661,310,-208,16392,-2324,-58,-49,1
5174.661,309,-208,16392,-2324,-58,-49,1
5182.908,309,-208,16392,-2324,-58,-49,1
5182.908,309,-220,16296,-2260,-74,-34,-25
5187.463,310,-220,16296,-2260,-74,-34,-25
5190.956,309,-220,16296,-2260,-74,-34,-25
5190.956,308,-220,16296,-2260,-74,-34,-25
5190.956,308,-220,16296,-2260,-74,-34,-25
5199.205,308,-220,16296,-2260,-74,-34,-25
5201.215,309,-220,16296,-2260,-74,-34,-25
5204.917,309,-192,16316,-2264,16,-29,0
5206.931,308,-192,16316,-2264,16,-29,0
5208.945,308,-192,16316,-2264,16,-29,0
5208.945,309,-192,16316,-2264,16,-29,0
5216.166,308,-192,16316,-2264,16,-29,0
5220.486,308,-192,16316,-2264,16,-29,0
5222.096,310,-192,16316,-2264,16,-29,0
5224.583,309,-192,16316,-2264,16,-29,0
5226.638999999999,310,-200,16360,-2316,-25,-20,-18
5229.504000000001,309,-200,16360,-2316,-25,-20,-18
5232.726000000001,309,-200,16360,-2316,-25,-20,-18
5236.695,309,-200,16360,-2316,-25,-20,-18
5236.695,309,-200,16360,-2316,-25,-20,-18
5240.844,309,-200,16360,-2316,-25,-20,-18
5244.456999999999,308,-200,16360,-2316,-25,-20,-18
5248.509,309,-196,16324,-2284,-115,-43,-19
5249.637,309,-196,16324,-2284,-115,-43,-19
5252.65,308,-196,16324,-2284,-115,-43,-19
5256.818,307,-196,16324,-2284,-115,-43,-19
5260.463,308,-196,16324,-2284,-115,-43,-19
5260.463,308,-196,16324,-2284,-115,-43,-19
5265.277,309,-172,16304,-2292,-21,-46,-20
5265.277,309,-172,16304,-2292,-21,-46,-20
5271.5509999999995,307,-172,16304,-2292,-21,-46,-20
5273.119000000001,307,-172,16304,-2292,-21,-46,-20
5274.573,307,-172,16304,-2292,-21,-46,-20
5281.723,308,-172,16304,-2292,-21,-46,-20
5282.058,308,-172,16304,-2292,-21,-46,-20
5283.174,308,-228,16324,-2284,17,-23,-13
5289.796,309,-228,16324,-2284,17,-23,-13
5290.63,308,-228,16324,-2284,17,-23,-13
5290.63,308,-228,16324,-2284,17,-23,-13
5298.036,308,-228,16324,-2284,17,-23,-13
5298.036,308,-228,16324,-2284,17,-23,-13
5298.036,308,-228,16324,-2284,17,-23,-13
5306.243,308,-188,16380,-2328,-79,-10,2
5306.243,309,-188,16380,-2328,-79,-10,2
5309.055,309,-188,16380,-2328,-79,-10,2
5314.406,308,-188,16380,-2328,-79,-10,2
5314.406,308,-188,16380,-2328,-79,-10,2
5318.423,309,-188,16380,-2328,-79,-10,2
5322.436,309,-188,16380,-2328,-79,-10,2
5322.436,309,-212,16292,-2284,-60,-48,-6
5322.436,309,-212,16292,-2284,-60,-48,-6
5330.69,310,-212,16292,-2284,-60,-48,-6
5330.69,309,-212,16292,-2284,-60,-48,-6
5330.69,308,-212,16292,-2284,-60,-48,-6
5338.967000000001,308,-212,16292,-2284,-60,-48,-6
5338.967000000001,308,-212,16292,-2284,-60,-48,-6
5338.967000000001,308,-184,16284,-2300,32,-43,-13
5347.353,309,-184,16284,-2300,32,-43,-13
5351.320000000001,309,-184,16284,-2300,32,-43,-13
5351.320000000001,308,-184,16284,-2300,32,-43,-13
5355.575,308,-184,16284,-2300,32,-43,-13
5355.575,309,-184,16284,-2300,32,-43,-13
5363.6359999999995,309,-184,16284,-2300,32,-43,-13
5364.056,309,-188,16380,-2364,-30,-41,-10
5365.334,309,-188,16380,-2364,-30,-41,-10
5371.991999999999,309,-188,16380,-2364,-30,-41,-10
5373.202,309,-188,16380,-2364,-30,-41,-10
5373.791,308,-188,16380,-2364,-30,-41,-10
5373.791,308,-188,16380,-2364,-30,-41,-10
5382.413,309,-188,16380,-2364,-30,-41,-10
5384.42,308,-240,16348,-2292,-108,-34,-8
5388.45,309,-240,16348,-2292,-108,-34,-8
5389.22,308,-240,16348,-2292,-108,-34,-8
5389.22,308,-240,16348,-2292,-108,-34,-8
5396.981000000001,308,-240,16348,-2292,-108,-34,-8
5400.141,309,-240,16348,-2292,-108,-34,-8
5400.141,309,-240,16348,-2292,-108,-34,-8
5405.077,309,-184,16384,-2304,2,-51,-11
5409.099999999999,309,-184,16384,-2304,2,-51,-11
5409.099999999999,308,-184,16384,-2304,2,-51,-11
5413.242,308,-184,16384,-2304,2,-51,-11
5413.242,307,-184,16384,-2304,2,-51,-11
5421.287,307,-184,16384,-2304,2,-51,-11
5423.3,308,-184,16384,-2304,2,-51,-11
5423.3,309,-188,16408,-2312,-17,-39,0
5423.3,308,-188,16408,-2312,-17,-39,0
5429.58,308,-188,16408,-2312,-17,-39,0
5433.245,306,-188,16408,-2312,-17,-39,0
5437.692,306,-188,16408,-2312,-17,-39,0
5437.692,306,-188,16408,-2312,-17,-39,0
5437.692,308,-188,16408,-2312,-17,-39,0
5445.808,307,-188,16408,-2312,-17,-39,0
5445.808,308,-132,16320,-2292,-73,-40,-3
5449.627,307,-132,16320,-2292,-73,-40,-3
5453.8859999999995,308,-132,16320,-2292,-73,-40,-3
5455.9,307,-132,16320,-2292,-73,-40,-3
5455.9,307,-132,16320,-2292,-73,-40,-3
5462.4259999999995,308,-132,16320,-2292,-73,-40,-3
5462.4259999999995,308,-132,16320,-2292,-73,-40,-3
5464.341,308,-224,16332,-2284,-35,-25,4
5471.212,308,-224,16332,-2284,-35,-25,4
5471.842,309,-224,16332,-2284,-35,-25,4
5471.842,308,-224,16332,-2284,-35,-25,4
5471.842,307,-224,16332,-2284,-35,-25,4
5479.152,308,-224,16332,-2284,-35,-25,4
5479.152,308,-224,16332,-2284,-35,-25,4
5487.246,309,-220,16336,-2324,20,-31,-12
5488.1630000000005,308,-220,16336,-2324,20,-31,-12
5491.831,309,-220,16336,-2324,20,-31,-12
5494.773999999999,309,-220,16336,-2324,20,-31,-12
5494.773999999999,308,-220,16336,-2324,20,-31,-12
5494.773999999999,309,-220,16336,-2324,20,-31,-12
5503.505999999999,309,-220,16336,-2324,20,-31,-12
5504.568,309,-248,16376,-2320,-82,-35,-29
5508.033,307,-248,16376,-2320,-82,-35,-29
5511.901,308,-248,16376,-2320,-82,-35,-29
5514.726,308,-248,16376,-2320,-82,-35,-29
5519.585,307,-248,16376,-2320,-82,-35,-29
5519.585,307,-248,16376,-2320,-82,-35,-29
5519.585,308,-248,16376,-2320,-82,-35,-29
5527.783,309,-204,16380,-2260,-91,-48,-8
5528.974,308,-204,16380,-2260,-91,-48,-8
5528.974,307,-204,16380,-2260,-91,-48,-8
5528.974,308,-204,16380,-2260,-91,-48,-8
5537.861000000001,308,-204,16380,-2260,-91,-48,-8
5539.912,307,-204,16380,-2260,-91,-48,-8
5539.912,308,-204,16380,-2260,-91,-48,-8
5544.843,308,-188,16356,-2316,22,-34,-13
5544.843,308,-188,16356,-2316,22,-34,-13
5544.843,308,-188,16356,-2316,22,-34,-13
5553.286,307,-188,16356,-2316,22,-34,-13
5553.286,307,-188,16356,-2316,22,-34,-13
5553.286,308,-188,16356,-2316,22,-34,-13
5561.536,308,-188,16356,-2316,22,-34,-13
5561.536,308,-208,16400,-2300,-27,-33,-15
5561.536,308,-208,16400,-2300,-27,-33,-15
5569.883,308,-208,16400,-2300,-27,-33,-15
5569.883,307,-208,16400,-2300,-27,-33,-15
5569.883,308,-208,16400,-2300,-27,-33,-15
5580.71,308,-208,16400,-2300,-27,-33,-15
5584.789,308,-208,16400,-2300,-27,-33,-15
5584.789,308,-212,16320,-2268,-121,-31,2
5589.291,308,-212,16320,-2268,-121,-31,2
5592.907,307,-212,16320,-2268,-121,-31,2
5594.85,307,-212,16320,-2268,-121,-31,2
5594.85,308,-212,16320,-2268,-121,-31,2
5594.85,307,-212,16320,-2268,-121,-31,2
5604.954000000001,307,-212,16320,-2268,-121,-31,2
5604.954000000001,308,-184,16316,-2272,12,-17,-10
5608.969,308,-184,16316,-2272,12,-17,-10
5611.655,308,-184,16316,-2272,12,-17,-10
5611.655,308,-184,16316,-2272,12,-17,-10
5611.655,308,-184,16316,-2272,12,-17,-10
5621.95,307,-184,16316,-2272,12,-17,-10
5623.956999999999,307,-184,16316,-2272,12,-17,-10
5623.956999999999,307,-220,16328,-2348,16,-29,-4
5628.617,307,-220,16328,-2348,16,-29,-4
5628.617,307,-220,16328,-2348,16,-29,-4
5628.617,308,-220,16328,-2348,16,-29,-4
5638.319,307,-220,16328,-2348,16,-29,-4
5638.319,306,-220,16328,-2348,16,-29,-4
5638.319,307,-220,16328,-2348,16,-29,-4
5646.245000000001,308,-204,16344,-2332,-93,-32,-13
5649.442,307,-204,16344,-2332,-93,-32,-13
5649.442,308,-204,16344,-2332,-93,-32,-13
5652.472000000001,307,-204,16344,-2332,-93,-32,-13
5656.7480000000005,308,-204,16344,-2332,-93,-32,-13
5656.7480000000005,307,-204,16344,-2332,-93,-32,-13
5662.647,308,-204,16344,-2332,-93,-32,-13
5665.768,308,-248,16356,-2252,-36,-21,-19
5670.804,308,-248,16356,-2252,-36,-21,-19
5670.804,308,-248,16356,-2252,-36,-21,-19
5670.804,308,-248,16356,-2252,-36,-21,-19
5679.026000000001,308,-248,16356,-2252,-36,-21,-19
5679.026000000001,307,-248,16356,-2252,-36,-21,-19
5679.026000000001,308,-248,16356,-2252,-36,-21,-19
5685.615000000001,309,-244,16368,-2288,50,-48,-17
5685.615000000001,309,-244,16368,-2288,50,-48,-17
5685.615000000001,308,-244,16368,-2288,50,-48,-17
5695.417,307,-244,16368,-2288,50,-48,-17
5698.543,308,-244,16368,-2288,50,-48,-17
5698.543,308,-244,16368,-2288,50,-48,-17
5701.616,309,-244,16368,-2288,50,-48,-17
5701.616,309,-200,16388,-2316,-80,-19,0
5701.616,308,-200,16388,-2316,-80,-19,0
5711.772,308,-200,16388,-2316,-80,-19,0
5711.772,307,-200,16388,-2316,-80,-19,0
5711.772,308,-200,16388,-2316,-80,-19,0
5718.1449999999995,308,-200,16388,-2316,-80,-19,0
5723.544000000001,308,-200,16388,-2316,-80,-19,0
5727.663,308,-232,16324,-2280,-88,-36,-15
5727.663,308,-232,16324,-2280,-88,-36,-15
5727.663,308,-232,16324,-2280,-88,-36,-15
5736.042,307,-232,16324,-2280,-88,-36,-15
5736.042,307,-232,16324,-2280,-88,-36,-15
5738.661999999999,307,-232,16324,-2280,-88,-36,-15
5744.3460000000005,308,-232,16324,-2280,-88,-36,-15
5745.599999999999,308,-212,16308,-2292,23,-33,-4
5748.637000000001,308,-212,16308,-2292,23,-33,-4
5752.606,307,-212,16308,-2292,23,-33,-4
5753.528,308,-212,16308,-2292,23,-33,-4
5757.545999999999,308,-212,16308,-2292,23,-33,-4
5760.861,307,-212,16308,-2292,23,-33,-4
5760.861,307,-212,16308,-2292,23,-33,-4
5760.861,309,-248,16328,-2300,-18,-46,-13
5768.8009999999995,307,-248,16328,-2300,-18,-46,-13
5771.465,307,-248,16328,-2300,-18,-46,-13
5774.599,308,-248,16328,-2300,-18,-46,-13
5777.19,308,-248,16328,-2300,-18,-46,-13
5777.19,307,-248,16328,-2300,-18,-46,-13
5785.491999999999,308,-248,16328,-2300,-18,-46,-13
5785.491999999999,308,-184,16332,-2312,-115,-36,-10
5785.491999999999,308,-184,16332,-2312,-115,-36,-10
5793.935,307,-184,16332,-2312,-115,-36,-10
5793.935,308,-184,16332,-2312,-115,-36,-10
5797.795,307,-184,16332,-2312,-115,-36,-10
5802.055,307,-184,16332,-2312,-115,-36,-10
5804.824,308,-184,16332,-2312,-115,-36,-10
5807.151,308,-196,16296,-2256,-17,-25,-2
5810.275,307,-196,16296,-2256,-17,-25,-2
5813.901000000001,307,-196,16296,-2256,-17,-25,-2
5813.901000000001,307,-196,16296,-2256,-17,-25,-2
5818.375,307,-196,16296,-2256,-17,-25,-2
5819.848999999999,307,-196,16296,-2256,-17,-25,-2
5819.848999999999,308,-196,16296,-2256,-17,-25,-2
5827.573,307,-192,16284,-2364,18,-32,-28
5830.839,308,-192,16284,-2364,18,-32,-28
5834.6,308,-192,16284,-2364,18,-32,-28
5835.349,308,-192,16284,-2364,18,-32,-28
5836.877,307,-192,16284,-2364,18,-32,-28
5842.936,308,-192,16284,-2364,18,-32,-28
5842.936,308,-192,16284,-2364,18,-32,-28
5842.936,308,-188,16360,-2288,-88,-24,-1
5850.916,307,-188,16360,-2288,-88,-24,-1
5850.916,307,-188,16360,-2288,-88,-24,-1
5850.916,307,-188,16360,-2288,-88,-24,-1
5859.139,308,-188,16360,-2288,-88,-24,-1
5863.155,307,-188,16360,-2288,-88,-24,-1
5863.155,308,-188,16360,-2288,-88,-24,-1
5867.168000000001,308,-248,16336,-2292,-47,-38,-1
5871.178,307,-248,16336,-2292,-47,-38,-1
5871.178,307,-248,16336,-2292,-47,-38,-1
5876.118,307,-248,16336,-2292,-47,-38,-1
5878.767,307,-248,16336,-2292,-47,-38,-1
5878.767,307,-248,16336,-2292,-47,-38,-1
5882.780000000001,307,-248,16336,-2292,-47,-38,-1
5886.794,307,-204,16336,-2284,8,-7,17
5886.794,308,-204,16336,-2284,8,-7,17
5890.81,307,-204,16336,-2284,8,-7,17
5896.717,308,-204,16336,-2284,8,-7,17
5896.717,307,-204,16336,-2284,8,-7,17
5899.135,308,-204,16336,-2284,8,-7,17
5901.141,308,-204,16336,-2284,8,-7,17
5903.148,308,-204,16336,-2284,8,-7,17
5907.314,307,-204,16344,-2292,-64,-29,-11
5909.326,307,-204,16344,-2292,-64,-29,-11
5909.326,307,-204,16344,-2292,-64,-29,-11
5916.735,307,-204,16344,-2292,-64,-29,-11
5916.735,307,-204,16344,-2292,-64,-29,-11
5921.124,307,-204,16344,-2292,-64,-29,-11
5923.711,308,-204,16344,-2292,-64,-29,-11
5928.845,308,-228,16352,-2276,-54,-49,-17
5931.945,308,-228,16352,-2276,-54,-49,-17
5931.945,307,-228,16352,-2276,-54,-49,-17
5931.945,308,-228,16352,-2276,-54,-49,-17
5940.229,307,-228,16352,-2276,-54,-49,-17
5940.229,307,-228,16352,-2276,-54,-49,-17
5940.229,307,-228,16352,-2276,-54,-49,-17
5949.499000000001,308,-184,16396,-2324,8,-41,-14
5950.173000000001,307,-184,16396,-2324,8,-41,-14
5950.173000000001,307,-184,16396,-2324,8,-41,-14
5956.495,306,-184,16396,-2324,8,-41,-14
5956.495,307,-184,16396,-2324,8,-41,-14
5956.495,307,-184,16396,-2324,8,-41,-14
5964.978,307,-184,16396,-2324,8,-41,-14
5964.978,307,-220,16388,-2284,-63,-34,6
5964.978,307,-220,16388,-2284,-63,-34,6
5973.312,306,-220,16388,-2284,-63,-34,6
5973.312,307,-220,16388,-2284,-63,-34,6
5973.312,307,-220,16388,-2284,-63,-34,6
5981.46,307,-220,16388,-2284,-63,-34,6
5983.742,307,-220,16388,-2284,-63,-34,6
5988.1,308,-208,16292,-2312,-34,-34,1
5989.629,307,-208,16292,-2312,-34,-34,1
5989.629,307,-208,16292,-2312,-34,-34,1
5989.629,307,-208,16292,-2312,-34,-34,1
5998.535000000001,307,-208,16292,-2312,-34,-34,1
5999.399,307,-208,16292,-2312,-34,-34,1
5999.399,308,-208,16292,-2312,-34,-34,1
6005.723,308,-200,16352,-2292,27,-37,-8
6009.469,308,-200,16352,-2292,27,-37,-8
6009.469,307,-200,16352,-2292,27,-37,-8
6013.865,307,-200,16352,-2292,27,-37,-8
6013.865,307,-200,16352,-2292,27,-37,-8
6013.865,308,-200,16352,-2292,27,-37,-8
6023.277,308,-200,16352,-2292,27,-37,-8
6023.277,308,-200,16352,-2292,27,-37,-8
6028.425,308,-152,16388,-2344,-47,-40,-7
6030.273,308,-152,16388,-2344,-47,-40,-7
6034.745,307,-152,16388,-2344,-47,-40,-7
6034.745,307,-152,16388,-2344,-47,-40,-7
6037.968,307,-152,16388,-2344,-47,-40,-7
6037.968,307,-152,16388,-2344,-47,-40,-7
6037.968,307,-152,16388,-2344,-47,-40,-7
6046.420999999999,308,-180,16324,-2272,-89,-32,6
6046.420999999999,308,-180,16324,-2272,-89,-32,6
6046.420999999999,307,-180,16324,-2272,-89,-32,6
6054.56,307,-180,16324,-2272,-89,-32,6
6054.56,307,-180,16324,-2272,-89,-32,6
6062.700000000001,307,-180,16324,-2272,-89,-32,6
6062.700000000001,307,-180,16324,-2272,-89,-32,6
6062.700000000001,308,-232,16276,-2300,13,-37,-37
6070.905,307,-232,16276,-2300,13,-37,-37
6073.155,308,-232,16276,-2300,13,-37,-37
6075.168,307,-232,16276,-2300,13,-37,-37
6079.338,307,-232,16276,-2300,13,-37,-37
6079.338,307,-232,16276,-2300,13,-37,-37
6084.696,308,-232,16276,-2300,13,-37,-37
6087.372,307,-180,16348,-2308,-2,-25,-12
6089.868,307,-180,16348,-2308,-2,-25,-12
6093.352999999999,308,-180,16348,-2308,-2,-25,-12
6097.438999999999,307,-180,16348,-2308,-2,-25,-12
6097.438999999999,308,-180,16348,-2308,-2,-25,-12
6097.438999999999,308,-180,16348,-2308,-2,-25,-12
6103.524,309,-180,16348,-2308,-2,-25,-12
6103.524,307,-216,16332,-2292,-81,-48,-22
6109.638,308,-216,16332,-2292,-81,-48,-22
6111.746,308,-216,16332,-2292,-81,-48,-22
6111.746,307,-216,16332,-2292,-81,-48,-22
6111.746,307,-216,16332,-2292,-81,-48,-22
6120.032,307,-216,16332,-2292,-81,-48,-22
6120.032,308,-216,16332,-2292,-81,-48,-22
6128.234,308,-196,16336,-2324,-42,-24,1
6128.234,308,-196,16336,-2324,-42,-24,1
6128.234,307,-196,16336,-2324,-42,-24,1
6136.4169999999995,308,-196,16336,-2324,-42,-24,1
6136.4169999999995,307,-196,16336,-2324,-42,-24,1
6136.4169999999995,307,-196,16336,-2324,-42,-24,1
6144.447,307,-196,16336,-2324,-42,-24,1
6144.447,307,-168,16316,-2320,30,-48,-27
6144.447,308,-168,16316,-2320,30,-48,-27
6152.849,306,-168,16316,-2320,30,-48,-27
6152.849,306,-168,16316,-2320,30,-48,-27
6156.85,307,-168,16316,-2320,30,-48,-27
6160.992,308,-168,16316,-2320,30,-48,-27
6165.04,308,-168,16316,-2320,30,-48,-27
6165.04,308,-204,16424,-2324,-52,-45,-11
6169.272999999999,307,-204,16424,-2324,-52,-45,-11
6173.218000000001,308,-204,16424,-2324,-52,-45,-11
6176.808,307,-204,16424,-2324,-52,-45,-11
6178.841,306,-204,16424,-2324,-52,-45,-11
6180.8550000000005,308,-204,16424,-2324,-52,-45,-11
6184.8330000000005,307,-204,16424,-2324,-52,-45,-11
6184.8330000000005,308,-204,16368,-2248,-80,-35,-18
6184.8330000000005,307,-204,16368,-2248,-80,-35,-18
6193.308,307,-204,16368,-2248,-80,-35,-18
6193.308,307,-204,16368,-2248,-80,-35,-18
6193.308,306,-204,16368,-2248,-80,-35,-18
6201.514999999999,307,-204,16368,-2248,-80,-35,-18
6205.759,307,-204,16368,-2248,-80,-35,-18
6205.759,308,-180,16372,-2284,-10,-47,-25
6211.384,307,-180,16372,-2284,-10,-47,-25
6211.384,306,-180,16372,-2284,-10,-47,-25
6217.868,306,-180,16372,-2284,-10,-47,-25
6219.8099999999995,306,-180,16372,-2284,-10,-47,-25
6219.8099999999995,307,-180,16372,-2284,-10,-47,-25
6226.289000000001,307,-180,16372,-2284,-10,-47,-25
6226.289000000001,306,-200,16332,-2316,-14,-36,9
6226.289000000001,307,-200,16332,-2316,-14,-36,9
6233.79,306,-200,16332,-2316,-14,-36,9
6233.79,306,-200,16332,-2316,-14,-36,9
6238.844,306,-200,16332,-2316,-14,-36,9
6241.784,307,-200,16332,-2316,-14,-36,9
6241.784,307,-200,16332,-2316,-14,-36,9
6246.303,306,-232,16332,-2308,-53,-27,12
6250.262000000001,306,-232,16332,-2308,-53,-27,12
6250.262000000001,307,-232,16332,-2308,-53,-27,12
6254.862,307,-232,16332,-2308,-53,-27,12
6260.894,307,-232,16332,-2308,-53,-27,12
6261.958,307,-232,16332,-2308,-53,-27,12
6263.0650000000005,307,-232,16332,-2308,-53,-27,12
6267.702,307,-196,16336,-2308,-54,-48,-24
6269.712,306,-196,16336,-2308,-54,-48,-24
6272.094,306,-196,16336,-2308,-54,-48,-24
6277.025,306,-196,16336,-2308,-54,-48,-24
6279.876,306,-196,16336,-2308,-54,-48,-24
6281.893,307,-196,16336,-2308,-54,-48,-24
6283.907,307,-196,16336,-2308,-54,-48,-24
6288.303,307,-192,16316,-2280,-16,-41,-8
6290.06,307,-192,16316,-2280,-16,-41,-8
6293.2119999999995,307,-192,16316,-2280,-16,-41,-8
6296.597000000001,307,-192,16316,-2280,-16,-41,-8
6298.355,306,-192,16316,-2280,-16,-41,-8
6300.922,307,-192,16316,-2280,-16,-41,-8
6305.06,307,-192,16316,-2280,-16,-41,-8
6306.817,307,-240,16360,-2260,-15,-57,-11
6310.115,307,-240,16360,-2260,-15,-57,-11
6310.115,306,-240,16360,-2260,-15,-57,-11
6314.928,306,-240,16360,-2260,-15,-57,-11
6314.928,306,-240,16360,-2260,-15,-57,-11
6314.928,307,-240,16360,-2260,-15,-57,-11
6323.228,307,-240,16360,-2260,-15,-57,-11
6323.228,307,-216,16364,-2288,-87,-42,-8
6331.257,306,-216,16364,-2288,-87,-42,-8
6333.271,307,-216,16364,-2288,-87,-42,-8
6333.271,307,-216,16364,-2288,-87,-42,-8
6339.574,307,-216,16364,-2288,-87,-42,-8
6339.574,307,-216,16364,-2288,-87,-42,-8
6339.574,307,-216,16364,-2288,-87,-42,-8
6347.703,307,-220,16304,-2260,-27,-50,-13
6347.703,307,-220,16304,-2260,-27,-50,-13
6347.703,307,-220,16304,-2260,-27,-50,-13
6356.209,306,-220,16304,-2260,-27,-50,-13
6359.733,306,-220,16304,-2260,-27,-50,-13
6361.172,307,-220,16304,-2260,-27,-50,-13
6364.544000000001,306,-220,16304,-2260,-27,-50,-13
6364.544000000001,307,-188,16360,-2248,-10,-14,-22
6364.544000000001,307,-188,16360,-2248,-10,-14,-22
6372.748,307,-188,16360,-2248,-10,-14,-22
6377.959,307,-188,16360,-2248,-10,-14,-22
6379.9710000000005,307,-188,16360,-2248,-10,-14,-22
6380.981000000001,307,-188,16360,-2248,-10,-14,-22
6380.981000000001,307,-188,16360,-2248,-10,-14,-22
6388.277999999999,308,-184,16316,-2284,-72,-23,-22
6389.288,307,-184,16316,-2284,-72,-23,-22
6389.288,307,-184,16316,-2284,-72,-23,-22
6397.499,307,-184,16316,-2284,-72,-23,-22
6397.499,307,-184,16316,-2284,-72,-23,-22
6404.122,308,-184,16316,-2284,-72,-23,-22
6405.8640000000005,308,-184,16316,-2284,-72,-23,-22
6405.8640000000005,308,-208,16364,-2296,-53,-57,-18
6410.406,306,-208,16364,-2296,-53,-57,-18
6413.946,307,-208,16364,-2296,-53,-57,-18
6413.946,306,-208,16364,-2296,-53,-57,-18
6421.513,306,-208,16364,-2296,-53,-57,-18
6423.4349999999995,307,-208,16364,-2296,-53,-57,-18
6425.451,307,-192,16420,-2256,1,-43,-1
6429.749,308,-192,16420,-2256,1,-43,-1
6429.749,307,-192,16420,-2256,1,-43,-1
6436.536,307,-192,16420,-2256,1,-43,-1
6437.677,306,-192,16420,-2256,1,-43,-1
6440.974999999999,307,-192,16420,-2256,1,-43,-1
6440.974999999999,307,-192,16420,-2256,1,-43,-1
6440.974999999999,307,-192,16420,-2256,1,-43,-1
6446.264,307,-232,16400,-2276,-40,-37,-8
6446.264,307,-232,16400,-2276,-40,-37,-8
6446.264,307,-232,16400,-2276,-40,-37,-8
6456.764999999999,307,-232,16400,-2276,-40,-37,-8
6458.776,307,-232,16400,-2276,-40,-37,-8
6463.121,307,-232,16400,-2276,-40,-37,-8
6465.596,308,-232,16400,-2276,-40,-37,-8
6465.596,308,-200,16316,-2280,-60,-26,6
6471.696,307,-200,16316,-2280,-60,-26,6
6471.696,307,-200,16316,-2280,-60,-26,6
6477.64,307,-200,16316,-2280,-60,-26,6
6479.4,307,-200,16316,-2280,-60,-26,6
6479.4,307,-200,16316,-2280,-60,-26,6
6479.4,308,-200,16316,-2280,-60,-26,6
6487.94,308,-208,16356,-2260,-6,-42,-22
6487.94,307,-208,16356,-2260,-6,-42,-22
6487.94,307,-208,16356,-2260,-6,-42,-22
6496.517,306,-208,16356,-2260,-6,-42,-22
6496.517,307,-208,16356,-2260,-6,-42,-22
6496.517,308,-208,16356,-2260,-6,-42,-22
6503.929,308,-208,16356,-2260,-6,-42,-22
6503.929,308,-256,16304,-2304,-39,-39,-11
6510.458,307,-256,16304,-2304,-39,-39,-11
6512.214,307,-256,16304,-2304,-39,-39,-11
6512.214,306,-256,16304,-2304,-39,-39,-11
6512.214,307,-256,16304,-2304,-39,-39,-11
6522.647,307,-256,16304,-2304,-39,-39,-11
6522.647,307,-256,16304,-2304,-39,-39,-11
6528.522,308,-216,16316,-2268,-70,-28,0
6528.522,307,-216,16316,-2268,-70,-28,0
6528.522,307,-216,16316,-2268,-70,-28,0
6536.881,307,-216,16316,-2268,-70,-28,0
6536.881,308,-216,16316,-2268,-70,-28,0
6536.881,308,-216,16316,-2268,-70,-28,0
6544.932,308,-216,16316,-2268,-70,-28,0
6546.639,308,-168,16320,-2272,-17,-28,-11
6551.039000000001,308,-168,16320,-2272,-17,-28,-11
6555.18,307,-168,16320,-2272,-17,-28,-11
6555.692,307,-168,16320,-2272,-17,-28,-11
6555.692,307,-168,16320,-2272,-17,-28,-11
6563.646000000001,308,-168,16320,-2272,-17,-28,-11
6564.143,308,-168,16320,-2272,-17,-28,-11
6564.143,308,-236,16344,-2300,1,-34,-10
6569.794,307,-236,16344,-2300,1,-34,-10
6572.357,307,-236,16344,-2300,1,-34,-10
6572.357,307,-236,16344,-2300,1,-34,-10
6580.276,307,-236,16344,-2300,1,-34,-10
6580.276,307,-236,16344,-2300,1,-34,-10
6580.276,307,-236,16344,-2300,1,-34,-10
6586.354,307,-236,16344,-2300,1,-34,-10
6589.362999999999,308,-164,16368,-2328,-65,-20,10
6589.362999999999,308,-164,16368,-2328,-65,-20,10
6596.612,307,-164,16368,-2328,-65,-20,10
6599.123,307,-164,16368,-2328,-65,-20,10
6601.442999999999,307,-164,16368,-2328,-65,-20,10
6602.11,308,-164,16368,-2328,-65,-20,10
6602.11,308,-164,16368,-2328,-65,-20,10
6602.11,308,-240,16276,-2280,-47,-42,-2
6612.796,307,-240,16276,-2280,-47,-42,-2
6616.973,307,-240,16276,-2280,-47,-42,-2
6616.973,307,-240,16276,-2280,-47,-42,-2
6621.1630000000005,308,-240,16276,-2280,-47,-42,-2
6621.1630000000005,308,-240,16276,-2280,-47,-42,-2
6621.1630000000005,308,-240,16276,-2280,-47,-42,-2
6629.159,308,-180,16312,-2312,7,-25,-2
6629.159,307,-180,16312,-2312,7,-25,-2
6635.532,306,-180,16312,-2312,7,-25,-2
6635.532,308,-180,16312,-2312,7,-25,-2
6635.532,307,-180,16312,-2312,7,-25,-2
6635.532,307,-180,16312,-2312,7,-25,-2
6645.750999999999,308,-180,16312,-2312,7,-25,-2
6646.61,308,-176,16372,-2316,-44,-32,1
6646.61,308,-176,16372,-2316,-44,-32,1
6652.129999999999,307,-176,16372,-2316,-44,-32,1
6652.129999999999,307,-176,16372,-2316,-44,-32,1
6658.826999999999,307,-176,16372,-2316,-44,-32,1
6660.566,307,-176,16372,-2316,-44,-32,1
6660.566,307,-176,16372,-2316,-44,-32,1
6660.566,307,-188,16364,-2292,-65,-45,-2
6670.229,307,-188,16364,-2292,-65,-45,-2
6670.229,307,-188,16364,-2292,-65,-45,-2
6676.842,307,-188,16364,-2292,-65,-45,-2
6678.340999999999,307,-188,16364,-2292,-65,-45,-2
6678.340999999999,307,-188,16364,-2292,-65,-45,-2
6685.264,307,-188,16364,-2292,-65,-45,-2
6685.264,307,-188,16364,-2292,-65,-45,-2
6685.264,308,-212,16348,-2260,-26,-19,-4
6693.293,306,-212,16348,-2260,-26,-19,-4
6695.309,307,-212,16348,-2260,-26,-19,-4
6695.309,307,-212,16348,-2260,-26,-19,-4
6702.94,307,-212,16348,-2260,-26,-19,-4
6705.077,308,-212,16348,-2260,-26,-19,-4
6705.077,307,-212,16348,-2260,-26,-19,-4
6711.420999999999,307,-172,16320,-2316,-9,-56,-13
6715.283,306,-172,16320,-2316,-9,-56,-13
6715.283,306,-172,16320,-2316,-9,-56,-13
6719.411,307,-172,16320,-2316,-9,-56,-13
6721.670999999999,307,-172,16320,-2316,-9,-56,-13
6724.436,307,-172,16320,-2316,-9,-56,-13
6726.734,307,-172,16320,-2316,-9,-56,-13
6726.734,308,-208,16320,-2296,-41,-43,-4
6726.734,307,-208,16320,-2296,-41,-43,-4
6735.691,307,-208,16320,-2296,-41,-43,-4
6735.691,308,-208,16320,-2296,-41,-43,-4
6741.155,307,-208,16320,-2296,-41,-43,-4
6743.503,308,-208,16320,-2296,-41,-43,-4
6743.503,307,-208,16320,-2296,-41,-43,-4
6751.614,307,-212,16372,-2272,-32,-38,6
6751.614,307,-212,16372,-2272,-32,-38,6
6756.802000000001,307,-212,16372,-2272,-32,-38,6
6759.83,307,-212,16372,-2272,-32,-38,6
6759.83,307,-212,16372,-2272,-32,-38,6
6763.13,307,-212,16372,-2272,-32,-38,6
6768.104,307,-212,16372,-2272,-32,-38,6
6770.115,307,-220,16396,-2260,-16,-29,-18
6771.576999999999,307,-220,16396,-2260,-16,-29,-18
6776.384,307,-220,16396,-2260,-16,-29,-18
6777.872,307,-220,16396,-2260,-16,-29,-18
6780.657,306,-220,16396,-2260,-16,-29,-18
6784.4800000000005,307,-220,16396,-2260,-16,-29,-18
6789.143,308,-220,16396,-2260,-16,-29,-18
6790.171,307,-156,16252,-2308,-45,-47,-22
6792.775,307,-156,16252,-2308,-45,-47,-22
6792.775,306,-156,16252,-2308,-45,-47,-22
6792.775,306,-156,16252,-2308,-45,-47,-22
6801.014,307,-156,16252,-2308,-45,-47,-22
6804.1669999999995,307,-156,16252,-2308,-45,-47,-22
6809.034,307,-156,16252,-2308,-45,-47,-22
6809.905,307,-204,16320,-2256,-46,-34,-15
6812.725,307,-204,16320,-2256,-46,-34,-15
6817.257,307,-204,16320,-2256,-46,-34,-15
6818.380999999999,307,-204,16320,-2256,-46,-34,-15
6821.789,307,-204,16320,-2256,-46,-34,-15
6826.065,307,-204,16320,-2256,-46,-34,-15
6826.065,307,-204,16320,-2256,-46,-34,-15
6826.065,307,-252,16380,-2272,-11,-35,-21
6833.8640000000005,307,-252,16380,-2272,-11,-35,-21
6837.886,307,-252,16380,-2272,-11,-35,-21
6838.393,307,-252,16380,-2272,-11,-35,-21
6842.299,308,-252,16380,-2272,-11,-35,-21
6844.3279999999995,307,-252,16380,-2272,-11,-35,-21
6850.335,307,-192,16396,-2264,-52,-61,-20
6850.335,307,-192,16396,-2264,-52,-61,-20
6853.27,308,-192,16396,-2264,-52,-61,-20
6858.478,307,-192,16396,-2264,-52,-61,-20
6859.396000000001,307,-192,16396,-2264,-52,-61,-20
6860.188,307,-192,16396,-2264,-52,-61,-20
6866.660000000001,307,-192,16396,-2264,-52,-61,-20
6868.677,308,-192,16384,-2268,-37,-33,-12
6872.662,307,-192,16384,-2268,-37,-33,-12
6874.676,307,-192,16384,-2268,-37,-33,-12
6876.444,307,-192,16384,-2268,-37,-33,-12
6880.407,307,-192,16384,-2268,-37,-33,-12
6883.201,306,-192,16384,-2268,-37,-33,-12
6883.201,307,-192,16384,-2268,-37,-33,-12
6889.816,307,-244,16356,-2312,-44,-32,7
6892.165,307,-244,16356,-2312,-44,-32,7
6895.414,308,-244,16356,-2312,-44,-32,7
6899.579,307,-244,16356,-2312,-44,-32,7
6899.579,307,-244,16356,-2312,-44,-32,7
6899.579,307,-244,16356,-2312,-44,-32,7
6907.784000000001,307,-244,16356,-2312,-44,-32,7
6907.784000000001,308,-224,16368,-2324,-31,-32,1
6911.691,308,-224,16368,-2324,-31,-32,1
6916.055,307,-224,16368,-2324,-31,-32,1
6916.055,307,-224,16368,-2324,-31,-32,1
6918.061,307,-224,16368,-2324,-31,-32,1
6924.16,307,-224,16368,-2324,-31,-32,1
6924.16,307,-224,16368,-2324,-31,-32,1
6928.205,306,-224,16368,-2324,-31,-32,1
6932.493,308,-184,16340,-2312,-64,-43,-25
6933.415,307,-184,16340,-2312,-64,-43,-25
6936.437,308,-184,16340,-2312,-64,-43,-25
6940.744,307,-184,16340,-2312,-64,-43,-25
6940.744,308,-184,16340,-2312,-64,-43,-25
6940.744,308,-184,16340,-2312,-64,-43,-25
6948.862,308,-184,16340,-2312,-64,-43,-25
6952.8460000000005,307,-188,16356,-2356,-35,-27,2
6952.8460000000005,307,-188,16356,-2356,-35,-27,2
6957.099,307,-188,16356,-2356,-35,-27,2
6960.938999999999,306,-188,16356,-2356,-35,-27,2
6960.938999999999,307,-188,16356,-2356,-35,-27,2
6965.283,308,-188,16356,-2356,-35,-27,2
6969.148999999999,308,-188,16356,-2356,-35,-27,2
6969.148999999999,307,-184,16368,-2304,-25,-37,-38
6973.526,307,-184,16368,-2304,-25,-37,-38
6973.526,307,-184,16368,-2304,-25,-37,-38
6973.526,306,-184,16368,-2304,-25,-37,-38
6981.6359999999995,306,-184,16368,-2304,-25,-37,-38
6981.6359999999995,307,-184,16368,-2304,-25,-37,-38
6988.169,307,-184,16368,-2304,-25,-37,-38
6990.487,307,-192,16360,-2296,-73,-39,6
6992.4929999999995,306,-192,16360,-2296,-73,-39,6
6998.081,306,-192,16360,-2296,-73,-39,6
6998.081,306,-192,16360,-2296,-73,-39,6
7001.526,306,-192,16360,-2296,-73,-39,6
7005.528,307,-192,16360,-2296,-73,-39,6
7006.54,308,-192,16360,-2296,-73,-39,6
7008.81,308,-228,16300,-2272,-42,-34,-24
7012.481,307,-228,16300,-2272,-42,-34,-24
7014.732999999999,307,-228,16300,-2272,-42,-34,-24
7014.732999999999,307,-228,16300,-2272,-42,-34,-24
7023.568,307,-228,16300,-2272,-42,-34,-24
7024.414,307,-228,16300,-2272,-42,-34,-24
7027.952,308,-228,16300,-2272,-42,-34,-24
7031.046,307,-176,16360,-2296,-39,-16,-11
7031.046,307,-176,16360,-2296,-39,-16,-11
7031.046,307,-176,16360,-2296,-39,-16,-11
7039.492,307,-176,16360,-2296,-39,-16,-11
7043.224,307,-176,16360,-2296,-39,-16,-11
7043.224,307,-176,16360,-2296,-39,-16,-11
7048.36,307,-176,16360,-2296,-39,-16,-11
7051.152,308,-192,16348,-2336,-69,-45,-24
7051.152,307,-192,16348,-2336,-69,-45,-24
7056.563,307,-192,16348,-2336,-69,-45,-24
7058.327,307,-192,16348,-2336,-69,-45,-24
7063.237,307,-192,16348,-2336,-69,-45,-24
7066.7660000000005,306,-192,16348,-2336,-69,-45,-24
7066.7660000000005,306,-212,16356,-2240,-12,-33,-22
7072.615,308,-212,16356,-2240,-12,-33,-22
7076.053,307,-212,16356,-2240,-12,-33,-22
7076.053,306,-212,16356,-2240,-12,-33,-22
7080.395,306,-212,16356,-2240,-12,-33,-22
7083.906,307,-212,16356,-2240,-12,-33,-22
7087.557000000001,308,-212,16356,-2240,-12,-33,-22
7088.766,307,-212,16388,-2260,-40,-27,-20
7090.779,308,-212,16388,-2260,-40,-27,-20
7093.583,307,-212,16388,-2260,-40,-27,-20
7096.8460000000005,307,-212,16388,-2260,-40,-27,-20
7096.8460000000005,307,-212,16388,-2260,-40,-27,-20
7096.8460000000005,308,-212,16388,-2260,-40,-27,-20
7108.584,307,-212,16388,-2260,-40,-27,-20
7108.584,308,-196,16364,-2260,-38,-47,-15
7112.26,307,-196,16364,-2260,-38,-47,-15
7115.791,308,-196,16364,-2260,-38,-47,-15
7117.799,307,-196,16364,-2260,-38,-47,-15
7117.799,308,-196,16364,-2260,-38,-47,-15
7122.005,308,-196,16364,-2260,-38,-47,-15
7126.400000000001,308,-196,16364,-2260,-38,-47,-15
7126.400000000001,308,-180,16380,-2284,-2,-33,-18
7130.406,307,-180,16380,-2284,-2,-33,-18
7130.406,307,-180,16380,-2284,-2,-33,-18
7138.612,307,-180,16380,-2284,-2,-33,-18
7141.211,307,-180,16380,-2284,-2,-33,-18
7145.085,307,-180,16380,-2284,-2,-33,-18
7146.054999999999,307,-180,16380,-2284,-2,-33,-18
7149.441000000001,307,-216,16328,-2308,-33,-42,-25
7149.441000000001,308,-216,16328,-2308,-33,-42,-25
7156.568,308,-216,16328,-2308,-33,-42,-25
7159.226000000001,307,-216,16328,-2308,-33,-42,-25
7159.226000000001,307,-216,16328,-2308,-33,-42,-25
7163.468,308,-216,16328,-2308,-33,-42,-25
7163.468,307,-216,16328,-2308,-33,-42,-25
7163.468,308,-220,16340,-2324,-59,-14,-5
7174.428,307,-220,16340,-2324,-59,-14,-5
7174.428,307,-220,16340,-2324,-59,-14,-5
7179.923,307,-220,16340,-2324,-59,-14,-5
7179.923,307,-220,16340,-2324,-59,-14,-5
7179.923,308,-220,16340,-2324,-59,-14,-5
7187.814,308,-220,16340,-2324,-59,-14,-5
7187.814,308,-224,16304,-2312,-10,-29,-9
7191.429,307,-224,16304,-2312,-10,-29,-9
7195.873,307,-224,16304,-2312,-10,-29,-9
7198.78,308,-224,16304,-2312,-10,-29,-9
7198.78,308,-224,16304,-2312,-10,-29,-9
7205.817,308,-224,16304,-2312,-10,-29,-9
7205.817,308,-224,16304,-2312,-10,-29,-9
7205.817,308,-180,16332,-2292,-34,-44,-10
7215.147,307,-180,16332,-2292,-34,-44,-10
7215.147,307,-180,16332,-2292,-34,-44,-10
7215.147,307,-180,16332,-2292,-34,-44,-10
7222.161,309,-180,16332,-2292,-34,-44,-10
7224.177,307,-180,16332,-2292,-34,-44,-10
7226.2029999999995,307,-180,16332,-2292,-34,-44,-10
7228.969,307,-220,16328,-2280,-70,-28,-5
7228.969,308,-220,16328,-2280,-70,-28,-5
7236.901,308,-220,16328,-2280,-70,-28,-5
7240.123,307,-220,16328,-2280,-70,-28,-5
7240.123,307,-220,16328,-2280,-70,-28,-5
7244.983,308,-220,16328,-2280,-70,-28,-5
7244.983,308,-220,16328,-2280,-70,-28,-5
7244.983,308,-228,16296,-2316,-39,-23,0
7253.289,308,-228,16296,-2316,-39,-23,0
7253.863,307,-228,16296,-2316,-39,-23,0
7257.379,307,-228,16296,-2316,-39,-23,0
7261.612999999999,307,-228,16296,-2316,-39,-23,0
7264.326,307,-228,16296,-2316,-39,-23,0
7264.326,308,-228,16296,-2316,-39,-23,0
7269.948,307,-188,16364,-2308,-6,-39,-10
7269.948,307,-188,16364,-2308,-6,-39,-10
7269.948,307,-188,16364,-2308,-6,-39,-10
7278.123,308,-188,16364,-2308,-6,-39,-10
7280.700000000001,308,-188,16364,-2308,-6,-39,-10
7280.700000000001,308,-188,16364,-2308,-6,-39,-10
7287.611,308,-188,16364,-2308,-6,-39,-10
7287.611,308,-196,16340,-2316,-35,-33,-27
7290.884,308,-196,16340,-2316,-35,-33,-27
7296.747,308,-196,16340,-2316,-35,-33,-27
7296.747,307,-196,16340,-2316,-35,-33,-27
7296.747,308,-196,16340,-2316,-35,-33,-27
7302.93,308,-196,16340,-2316,-35,-33,-27
7302.93,308,-196,16340,-2316,-35,-33,-27
7302.93,308,-236,16284,-2256,-80,-36,-14
7313.038,307,-236,16284,-2256,-80,-36,-14
7313.038,307,-236,16284,-2256,-80,-36,-14
7319.397999999999,307,-236,16284,-2256,-80,-36,-14
7319.397999999999,307,-236,16284,-2256,-80,-36,-14
7319.397999999999,308,-236,16284,-2256,-80,-36,-14
7329.675,308,-236,16284,-2256,-80,-36,-14
7330.714999999999,308,-204,16392,-2288,-28,-44,-3
7332.349,307,-204,16392,-2288,-28,-44,-3
7336.282999999999,306,-204,16392,-2288,-28,-44,-3
7336.282999999999,307,-204,16392,-2288,-28,-44,-3
7336.282999999999,307,-204,16392,-2288,-28,-44,-3
7346.044,307,-204,16392,-2288,-28,-44,-3
7346.695000000001,308,-204,16392,-2288,-28,-44,-3
7346.695000000001,308,-208,16308,-2288,-24,-30,10
7352.898,308,-208,16308,-2288,-24,-30,10
7352.898,307,-208,16308,-2288,-24,-30,10
7352.898,307,-208,16308,-2288,-24,-30,10
7362.362,308,-208,16308,-2288,-24,-30,10
7362.362,308,-208,16308,-2288,-24,-30,10
7362.362,308,-208,16308,-2288,-24,-30,10
7369.575,308,-176,16344,-2312,-81,-25,-34
7371.599,308,-176,16344,-2312,-81,-25,-34
7371.599,307,-176,16344,-2312,-81,-25,-34
7377.709000000001,307,-176,16344,-2312,-81,-25,-34
7377.709000000001,307,-176,16344,-2312,-81,-25,-34
7385.938999999999,308,-176,16344,-2312,-81,-25,-34
7385.938999999999,308,-176,16344,-2312,-81,-25,-34
7385.938999999999,308,-240,16304,-2352,-38,-43,-14
7395.106,308,-240,16304,-2352,-38,-43,-14
7395.622,308,-240,16304,-2352,-38,-43,-14
7395.622,308,-240,16304,-2352,-38,-43,-14
7402.325,307,-240,16304,-2352,-38,-43,-14
7404.347,308,-240,16304,-2352,-38,-43,-14
7404.347,308,-240,16304,-2352,-38,-43,-14
7410.673,308,-164,16372,-2324,13,-31,-16
7415.211,308,-164,16372,-2324,13,-31,-16
7415.211,307,-164,16372,-2324,13,-31,-16
7418.993,307,-164,16372,-2324,13,-31,-16
7423.031,307,-164,16372,-2324,13,-31,-16
7425.039,308,-164,16372,-2324,13,-31,-16
7427.06,308,-164,16372,-2324,13,-31,-16
7431.106,308,-196,16364,-2320,-79,-44,-12
7435.46,306,-196,16364,-2320,-79,-44,-12
7437.468,305,-196,16364,-2320,-79,-44,-12
7440.326,306,-196,16364,-2320,-79,-44,-12
7443.863,307,-196,16364,-2320,-79,-44,-12
7443.863,307,-196,16364,-2320,-79,-44,-12
7447.896,308,-196,16364,-2320,-79,-44,-12
7451.924,308,-220,16328,-2268,-65,-36,-11
7455.546,307,-220,16328,-2268,-65,-36,-11
7457.553,307,-220,16328,-2268,-65,-36,-11
7459.567,308,-220,16328,-2268,-65,-36,-11
7463.329,308,-220,16328,-2268,-65,-36,-11
7465.345,308,-220,16328,-2268,-65,-36,-11
7469.384,308,-220,16328,-2268,-65,-36,-11
7471.393,308,-168,16376,-2304,20,-23,-10
7475.422,307,-168,16376,-2304,20,-23,-10
7477.442,307,-168,16376,-2304,20,-23,-10
7481.471,307,-168,16376,-2304,20,-23,-10
7483.49,308,-168,16376,-2304,20,-23,-10
7485.503,307,-168,16376,-2304,20,-23,-10
7489.532999999999,308,-168,16376,-2304,20,-23,-10
7493.567,308,-176,16388,-2304,-61,-52,-28
7493.567,307,-176,16388,-2304,-61,-52,-28
7497.597,307,-176,16388,-2304,-61,-52,-28
7502.246,307,-176,16388,-2304,-61,-52,-28
7504.26,307,-176,16388,-2304,-61,-52,-28
7504.26,307,-176,16388,-2304,-61,-52,-28
7508.188999999999,309,-180,16316,-2364,-104,-27,-19
7513.232999999999,308,-180,16316,-2364,-104,-27,-19
7518.28,307,-180,16316,-2364,-104,-27,-19
7521.034000000001,307,-180,16316,-2364,-104,-27,-19
7521.034000000001,308,-180,16316,-2364,-104,-27,-19
7525.438,308,-180,16316,-2364,-104,-27,-19
7526.648,308,-180,16316,-2364,-104,-27,-19
7530.678,308,-224,16336,-2236,4,-40,18
7532.688,307,-224,16336,-2236,4,-40,18
7532.688,307,-224,16336,-2236,4,-40,18
7532.688,307,-224,16336,-2236,4,-40,18
7540.795,308,-224,16336,-2236,4,-40,18
7540.795,307,-224,16336,-2236,4,-40,18
7540.795,308,-224,16336,-2236,4,-40,18
7548.973,308,-224,16336,-2236,4,-40,18
7548.973,308,-216,16368,-2292,-1,-27,-7
7548.973,307,-216,16368,-2292,-1,-27,-7
7557.348,309,-216,16368,-2292,-1,-27,-7
7557.348,307,-216,16368,-2292,-1,-27,-7
7557.348,307,-216,16368,-2292,-1,-27,-7
7567.075,308,-216,16368,-2292,-1,-27,-7
7567.075,308,-216,16368,-2292,-1,-27,-7
7567.075,309,-208,16300,-2328,-114,-39,-17
7575.285,307,-208,16300,-2328,-114,-39,-17
7579.276,307,-208,16300,-2328,-114,-39,-17
7579.276,307,-208,16300,-2328,-114,-39,-17
7583.814,307,-208,16300,-2328,-114,-39,-17
7584.482999999999,308,-208,16300,-2328,-114,-39,-17
7590.626,308,-208,16300,-2328,-114,-39,-17
7590.626,308,-200,16332,-2256,-24,-36,-12
7590.626,307,-200,16332,-2256,-24,-36,-12
7599.107,306,-200,16332,-2256,-24,-36,-12
7599.107,307,-200,16332,-2256,-24,-36,-12
7599.107,308,-200,16332,-2256,-24,-36,-12
7607.255,308,-200,16332,-2256,-24,-36,-12
7607.255,308,-220,16380,-2288,35,-22,-15
7613.607,308,-220,16380,-2288,35,-22,-15
7615.414000000001,308,-220,16380,-2288,35,-22,-15
7615.414000000001,307,-220,16380,-2288,35,-22,-15
7615.414000000001,307,-220,16380,-2288,35,-22,-15
7625.057,307,-220,16380,-2288,35,-22,-15
7625.057,308,-220,16380,-2288,35,-22,-15
7625.057,307,-204,16340,-2348,-94,-45,-7
7631.433,307,-204,16340,-2348,-94,-45,-7
7631.433,307,-204,16340,-2348,-94,-45,-7
7631.433,307,-204,16340,-2348,-94,-45,-7
7639.947,307,-204,16340,-2348,-94,-45,-7
7639.947,307,-204,16340,-2348,-94,-45,-7
7648.117,307,-204,16340,-2348,-94,-45,-7
7648.117,308,-204,16340,-2348,-94,-45,-7
7648.117,307,-208,16300,-2224,-71,-26,-11
7656.302000000001,308,-208,16300,-2224,-71,-26,-11
7656.302000000001,307,-208,16300,-2224,-71,-26,-11
7656.302000000001,307,-208,16300,-2224,-71,-26,-11
7664.737999999999,307,-208,16300,-2224,-71,-26,-11
7669.624,308,-208,16300,-2224,-71,-26,-11
7669.624,307,-188,16340,-2300,70,-35,-21
7672.888999999999,307,-188,16340,-2300,70,-35,-21
7672.888999999999,307,-188,16340,-2300,70,-35,-21
7672.888999999999,307,-188,16340,-2300,70,-35,-21
7681.992,306,-188,16340,-2300,70,-35,-21
7682.991,307,-188,16340,-2300,70,-35,-21
7688.005,308,-188,16340,-2300,70,-35,-21
7689.866,308,-204,16388,-2336,-29,-27,-4
7689.866,307,-204,16388,-2336,-29,-27,-4
7689.866,307,-204,16388,-2336,-29,-27,-4
7698.344,307,-204,16388,-2336,-29,-27,-4
7699.596,307,-204,16388,-2336,-29,-27,-4
7706.608,307,-204,16388,-2336,-29,-27,-4
7706.608,307,-204,16388,-2336,-29,-27,-4
7706.608,308,-204,16388,-2336,-29,-27,-4
7713.972,307,-144,16332,-2268,-86,-25,-25
7715.073,307,-144,16332,-2268,-86,-25,-25
7715.073,307,-144,16332,-2268,-86,-25,-25
7723.414,307,-144,16332,-2268,-86,-25,-25
7723.414,307,-144,16332,-2268,-86,-25,-25
7723.414,307,-144,16332,-2268,-86,-25,-25
7731.514,307,-204,16364,-2228,13,-40,-10
7735.636,308,-204,16364,-2228,13,-40,-10
7735.636,307,-204,16364,-2228,13,-40,-10
7739.695000000001,307,-204,16364,-2228,13,-40,-10
7743.808,307,-204,16364,-2228,13,-40,-10
7743.808,308,-204,16364,-2228,13,-40,-10
7748.061,308,-204,16364,-2228,13,-40,-10
7751.527,308,-216,16308,-2280,-4,-17,5
7751.527,307,-216,16308,-2280,-4,-17,5
7756.15,307,-216,16308,-2280,-4,-17,5
7756.15,307,-216,16308,-2280,-4,-17,5
7756.15,306,-216,16308,-2280,-4,-17,5
7764.257,307,-216,16308,-2280,-4,-17,5
7764.257,308,-216,16308,-2280,-4,-17,5
7764.257,307,-216,16308,-2280,-4,-17,5
7772.546,307,-200,16320,-2264,-89,-22,-5
7774.553,307,-200,16320,-2264,-89,-22,-5
7774.553,307,-200,16320,-2264,-89,-22,-5
7780.698,307,-200,16320,-2264,-89,-22,-5
7784.312,307,-200,16320,-2264,-89,-22,-5
7784.312,308,-200,16320,-2264,-89,-22,-5
7789.018999999999,308,-200,16320,-2264,-89,-22,-5
7789.018999999999,308,-168,16336,-2292,-11,-50,-17
7789.018999999999,307,-168,16336,-2292,-11,-50,-17
7797.43,307,-168,16336,-2292,-11,-50,-17
7800.595,307,-168,16336,-2292,-11,-50,-17
7800.595,307,-168,16336,-2292,-11,-50,-17
7806.4169999999995,307,-168,16336,-2292,-11,-50,-17
7809.213,307,-168,16336,-2292,-11,-50,-17
7809.213,308,-240,16356,-2276,-17,-36,-13
7814.211,308,-240,16356,-2276,-17,-36,-13
7814.211,307,-240,16356,-2276,-17,-36,-13
7814.211,307,-240,16356,-2276,-17,-36,-13
7822.647,307,-240,16356,-2276,-17,-36,-13
7822.647,308,-240,16356,-2276,-17,-36,-13
7830.773,308,-240,16356,-2276,-17,-36,-13
7830.773,308,-220,16376,-2300,-79,-36,-27
7830.773,307,-220,16376,-2300,-79,-36,-27
7839.084,307,-220,16376,-2300,-79,-36,-27
7841.0960000000005,307,-220,16376,-2300,-79,-36,-27
7841.0960000000005,308,-220,16376,-2300,-79,-36,-27
7847.117,307,-220,16376,-2300,-79,-36,-27
7849.848,308,-220,16376,-2300,-79,-36,-27
7849.848,307,-160,16372,-2284,-41,-36,-8
7855.944,307,-160,16372,-2284,-41,-36,-8
7855.944,307,-160,16372,-2284,-41,-36,-8
7855.944,307,-160,16372,-2284,-41,-36,-8
7865.997,307,-160,16372,-2284,-41,-36,-8
7865.997,307,-160,16372,-2284,-41,-36,-8
7871.321,308,-160,16372,-2284,-41,-36,-8
7874.5830000000005,308,-260,16336,-2316,-6,-27,-19
7874.5830000000005,307,-260,16336,-2316,-6,-27,-19
7874.5830000000005,306,-260,16336,-2316,-6,-27,-19
7882.570000000001,307,-260,16336,-2316,-6,-27,-19
7882.570000000001,307,-260,16336,-2316,-6,-27,-19
7882.570000000001,307,-260,16336,-2316,-6,-27,-19
7889.512,307,-260,16336,-2316,-6,-27,-19
7894.880999999999,307,-256,16340,-2296,-73,-33,-9
7894.880999999999,306,-256,16340,-2296,-73,-33,-9
7899.13,307,-256,16340,-2296,-73,-33,-9
7903.139,307,-256,16340,-2296,-73,-33,-9
7904.46,307,-256,16340,-2296,-73,-33,-9
7907.57,307,-256,16340,-2296,-73,-33,-9
7907.57,307,-256,16340,-2296,-73,-33,-9
7907.57,307,-200,16252,-2288,-40,-37,9
7915.353999999999,307,-200,16252,-2288,-40,-37,9
7916.214,307,-200,16252,-2288,-40,-37,9
7916.214,307,-200,16252,-2288,-40,-37,9
7924.326,307,-200,16252,-2288,-40,-37,9
7924.326,308,-200,16252,-2288,-40,-37,9
7924.326,307,-200,16252,-2288,-40,-37,9
7930.468,307,-260,16352,-2356,-2,-59,0
7930.468,307,-260,16352,-2356,-2,-59,0
7938.603,307,-260,16352,-2356,-2,-59,0
7940.624,307,-260,16352,-2356,-2,-59,0
7943.142,307,-260,16352,-2356,-2,-59,0
7946.683,307,-260,16352,-2356,-2,-59,0
7946.683,307,-260,16352,-2356,-2,-59,0
7952.38,308,-188,16336,-2324,-65,-62,-11
7954.524,307,-188,16336,-2324,-65,-62,-11
7956.637,307,-188,16336,-2324,-65,-62,-11
7956.637,307,-188,16336,-2324,-65,-62,-11
7964.419000000001,306,-188,16336,-2324,-65,-62,-11
7964.419000000001,307,-188,16336,-2324,-65,-62,-11
7968.625,307,-188,16336,-2324,-65,-62,-11
7971.418,308,-184,16396,-2328,-84,-26,-11
7971.418,306,-184,16396,-2328,-84,-26,-11
7971.418,307,-184,16396,-2328,-84,-26,-11
7979.62,306,-184,16396,-2328,-84,-26,-11
7979.62,308,-184,16396,-2328,-84,-26,-11
7988.333,307,-184,16396,-2328,-84,-26,-11
7989.414,307,-184,16396,-2328,-84,-26,-11
7989.414,308,-204,16364,-2276,-35,-40,-18
7989.414,307,-204,16364,-2276,-35,-40,-18
7997.485000000001,307,-204,16364,-2276,-35,-40,-18
7997.485000000001,306,-204,16364,-2276,-35,-40,-18
8004.3589999999995,307,-204,16364,-2276,-35,-40,-18
8006.385,307,-204,16364,-2276,-35,-40,-18
8008.404,307,-204,16364,-2276,-35,-40,-18
8012.442,307,-220,16340,-2336,-20,-47,-7
8014.459000000001,307,-220,16340,-2336,-20,-47,-7
8014.459000000001,307,-220,16340,-2336,-20,-47,-7
8020.554000000001,307,-220,16340,-2336,-20,-47,-7
8020.554000000001,306,-220,16340,-2336,-20,-47,-7
8026.574999999999,307,-220,16340,-2336,-20,-47,-7
8028.597,308,-220,16340,-2336,-20,-47,-7
8028.597,307,-180,16320,-2288,-46,-30,-6
8028.597,306,-180,16320,-2288,-46,-30,-6
8036.782999999999,307,-180,16320,-2288,-46,-30,-6
8036.782999999999,307,-180,16320,-2288,-46,-30,-6
8036.782999999999,306,-180,16320,-2288,-46,-30,-6
8044.867,307,-180,16320,-2288,-46,-30,-6
8044.867,307,-180,16320,-2288,-46,-30,-6
8044.867,307,-204,16336,-2312,-37,-39,2
8054.945999999999,307,-204,16336,-2312,-37,-39,2
8054.945999999999,307,-204,16336,-2312,-37,-39,2
8054.945999999999,307,-204,16336,-2312,-37,-39,2
8061.552000000001,307,-204,16336,-2312,-37,-39,2
8061.552000000001,307,-204,16336,-2312,-37,-39,2
8069.653,307,-204,16336,-2312,-37,-39,2
8071.685,308,-212,16316,-2288,-24,-33,1
8071.685,308,-212,16316,-2288,-24,-33,1
8077.8,307,-212,16316,-2288,-24,-33,1
8077.8,307,-212,16316,-2288,-24,-33,1
8077.8,308,-212,16316,-2288,-24,-33,1
8086.182000000001,307,-212,16316,-2288,-24,-33,1
8089.0830000000005,308,-212,16316,-2288,-24,-33,1
8091.836000000001,308,-212,16316,-2288,-24,-33,1
8094.2699999999995,308,-156,16284,-2280,-27,-16,-16
8097.645999999999,308,-156,16284,-2280,-27,-16,-16
8098.209000000001,307,-156,16284,-2280,-27,-16,-16
8102.736999999999,307,-156,16284,-2280,-27,-16,-16
8104.683,308,-156,16284,-2280,-27,-16,-16
8104.683,307,-156,16284,-2280,-27,-16,-16
8111.985000000001,308,-156,16284,-2280,-27,-16,-16
8114.903,308,-196,16388,-2280,-41,-41,-8
8114.903,307,-196,16388,-2280,-41,-41,-8
8119.103000000001,307,-196,16388,-2280,-41,-41,-8
8119.103000000001,307,-196,16388,-2280,-41,-41,-8
8127.25,308,-196,16388,-2280,-41,-41,-8
8127.25,307,-196,16388,-2280,-41,-41,-8
8127.25,308,-196,16388,-2280,-41,-41,-8
8127.25,308,-224,16312,-2340,-43,-29,-11
8135.683,307,-224,16312,-2340,-43,-29,-11
8135.683,307,-224,16312,-2340,-43,-29,-11
8144.634999999999,307,-224,16312,-2340,-43,-29,-11
8147.373,308,-224,16312,-2340,-43,-29,-11
8149.084,308,-224,16312,-2340,-43,-29,-11
8152.937,308,-168,16288,-2296,-62,-41,-7
8152.937,307,-168,16288,-2296,-62,-41,-7
8152.937,308,-168,16288,-2296,-62,-41,-7
8160.356,307,-168,16288,-2296,-62,-41,-7
8160.356,308,-168,16288,-2296,-62,-41,-7
8160.356,307,-168,16288,-2296,-62,-41,-7
8168.577000000001,308,-168,16288,-2296,-62,-41,-7
8168.577000000001,308,-168,16288,-2296,-62,-41,-7
8175.184,308,-232,16324,-2300,-9,-33,-3
8176.919,308,-232,16324,-2300,-9,-33,-3
8181.5960000000005,308,-232,16324,-2300,-9,-33,-3
8181.5960000000005,307,-232,16324,-2300,-9,-33,-3
8185.169,307,-232,16324,-2300,-9,-33,-3
8189.835999999999,308,-232,16324,-2300,-9,-33,-3
8192.314,309,-232,16324,-2300,-9,-33,-3
8193.331,308,-204,16400,-2272,-37,-28,-10
8193.331,308,-204,16400,-2272,-37,-28,-10
8193.331,307,-204,16400,-2272,-37,-28,-10
8201.366,307,-204,16400,-2272,-37,-28,-10
8201.366,308,-204,16400,-2272,-37,-28,-10
8209.875,307,-204,16400,-2272,-37,-28,-10
8209.875,307,-204,16400,-2272,-37,-28,-10
8215.213,308,-164,16312,-2340,-71,-45,-5
8217.973,308,-164,16312,-2340,-71,-45,-5
8219.355,307,-164,16312,-2340,-71,-45,-5
8219.355,307,-164,16312,-2340,-71,-45,-5
8225.865,308,-164,16312,-2340,-71,-45,-5
8225.865,308,-164,16312,-2340,-71,-45,-5
8225.865,308,-164,16312,-2340,-71,-45,-5
8234.009,307,-212,16288,-2312,-23,-16,-9
8234.009,307,-212,16288,-2312,-23,-16,-9
8234.009,307,-212,16288,-2312,-23,-16,-9
8242.08,308,-212,16288,-2312,-23,-16,-9
8244.731,308,-212,16288,-2312,-23,-16,-9
8244.731,309,-212,16288,-2312,-23,-16,-9
8250.228,309,-212,16288,-2312,-23,-16,-9
8250.228,307,-212,16348,-2260,-7,-24,8
8257.279,307,-212,16348,-2260,-7,-24,8
8258.295,307,-212,16348,-2260,-7,-24,8
8258.295,307,-212,16348,-2260,-7,-24,8
8258.295,308,-212,16348,-2260,-7,-24,8
8267.723,309,-212,16348,-2260,-7,-24,8
8267.723,307,-212,16348,-2260,-7,-24,8
8267.723,308,-192,16328,-2324,-77,-47,-13
8276.673999999999,308,-192,16328,-2324,-77,-47,-13
8278.693000000001,307,-192,16328,-2324,-77,-47,-13
8278.693000000001,307,-192,16328,-2324,-77,-47,-13
8282.868,307,-192,16328,-2324,-77,-47,-13
8282.868,307,-192,16328,-2324,-77,-47,-13
8290.934,308,-192,16328,-2324,-77,-47,-13
8293.749,307,-192,16288,-2244,-72,-40,-12
8293.749,307,-192,16288,-2244,-72,-40,-12
8299.007,307,-192,16288,-2244,-72,-40,-12
8299.007,308,-192,16288,-2244,-72,-40,-12
8299.007,307,-192,16288,-2244,-72,-40,-12
8307.124,308,-192,16288,-2244,-72,-40,-12
8312.077000000001,308,-192,16288,-2244,-72,-40,-12
8312.077000000001,308,-232,16388,-2264,18,-37,-2
8316.481,308,-232,16388,-2264,18,-37,-2
8316.481,307,-232,16388,-2264,18,-37,-2
8321.698,307,-232,16388,-2264,18,-37,-2
8323.713,308,-232,16388,-2264,18,-37,-2
8323.713,308,-232,16388,-2264,18,-37,-2
8323.713,308,-232,16388,-2264,18,-37,-2
8331.973,308,-208,16380,-2296,-42,-42,-2
8331.973,308,-208,16380,-2296,-42,-42,-2
8340.131,308,-208,16380,-2296,-42,-42,-2
8340.131,308,-208,16380,-2296,-42,-42,-2
8344.082,307,-208,16380,-2296,-42,-42,-2
8344.082,307,-208,16380,-2296,-42,-42,-2
8348.213,308,-208,16380,-2296,-42,-42,-2
8348.213,308,-204,16372,-2276,-57,-44,-17
8356.572999999999,307,-204,16372,-2276,-57,-44,-17
8358.59,307,-204,16372,-2276,-57,-44,-17
8361.847,307,-204,16372,-2276,-57,-44,-17
8364.800000000001,307,-204,16372,-2276,-57,-44,-17
8364.800000000001,308,-204,16372,-2276,-57,-44,-17
8364.800000000001,308,-204,16372,-2276,-57,-44,-17
8373.092,308,-204,16304,-2276,-13,-43,2
8373.092,308,-204,16304,-2276,-13,-43,2
8373.092,308,-204,16304,-2276,-13,-43,2
8381.364,308,-204,16304,-2276,-13,-43,2
8381.364,307,-204,16304,-2276,-13,-43,2
8381.364,307,-204,16304,-2276,-13,-43,2
8389.534,308,-204,16304,-2276,-13,-43,2
8389.534,308,-196,16304,-2316,-32,-41,9
8389.534,308,-196,16304,-2316,-32,-41,9
8397.844,307,-196,16304,-2316,-32,-41,9
8399.855000000001,307,-196,16304,-2316,-32,-41,9
8399.855000000001,306,-196,16304,-2316,-32,-41,9
8406.282,308,-196,16304,-2316,-32,-41,9
8409.891,308,-196,16304,-2316,-32,-41,9
8411.137999999999,307,-196,16304,-2316,-32,-41,9
8414.752999999999,306,-192,16368,-2304,-66,-23,-4
8415.768,307,-192,16368,-2304,-66,-23,-4
8415.768,306,-192,16368,-2304,-66,-23,-4
8422.612000000001,307,-192,16368,-2304,-66,-23,-4
8427.411,307,-192,16368,-2304,-66,-23,-4
8429.588000000002,307,-192,16368,-2304,-66,-23,-4
8431.1,308,-192,16368,-2304,-66,-23,-4
8431.1,307,-236,16340,-2264,-19,-33,-27
8431.1,306,-236,16340,-2264,-19,-33,-27
8439.263,307,-236,16340,-2264,-19,-33,-27
8441.899,306,-236,16340,-2264,-19,-33,-27
8447.712,307,-236,16340,-2264,-19,-33,-27
8449.726,307,-236,16340,-2264,-19,-33,-27
8449.726,307,-236,16340,-2264,-19,-33,-27
8455.875,307,-236,16324,-2284,-15,-45,-10
8455.875,306,-236,16324,-2284,-15,-45,-10
8455.875,306,-236,16324,-2284,-15,-45,-10
8464.055999999999,307,-236,16324,-2284,-15,-45,-10
8464.055999999999,307,-236,16324,-2284,-15,-45,-10
8464.055999999999,307,-236,16324,-2284,-15,-45,-10
8472.493999999999,307,-196,16292,-2316,-73,-45,-21
8472.493999999999,306,-196,16292,-2316,-73,-45,-21
8472.493999999999,306,-196,16292,-2316,-73,-45,-21
8480.522,306,-196,16292,-2316,-73,-45,-21
8480.522,306,-196,16292,-2316,-73,-45,-21
8488.751,307,-196,16292,-2316,-73,-45,-21
8490.771,307,-196,16292,-2316,-73,-45,-21
8490.771,307,-196,16280,-2264,-19,-48,-15
8496.483,306,-196,16280,-2264,-19,-48,-15
8496.483,306,-196,16280,-2264,-19,-48,-15
8502.453,306,-196,16280,-2264,-19,-48,-15
8504.645999999999,306,-196,16280,-2264,-19,-48,-15
8507.55,306,-196,16280,-2264,-19,-48,-15
8507.55,307,-196,16280,-2264,-19,-48,-15
8512.901,306,-204,16456,-2276,2,-30,-9
8516.203000000001,306,-204,16456,-2276,2,-30,-9
8516.203000000001,307,-204,16456,-2276,2,-30,-9
8521.079,306,-204,16456,-2276,2,-30,-9
8522.435,306,-204,16456,-2276,2,-30,-9
8522.435,307,-204,16456,-2276,2,-30,-9
8529.351999999999,307,-204,16456,-2276,2,-30,-9
8529.351999999999,307,-204,16456,-2276,2,-30,-9
8536.139000000001,307,-200,16336,-2296,-86,-50,-17
8538.349999999999,307,-200,16336,-2296,-86,-50,-17
8538.349999999999,307,-200,16336,-2296,-86,-50,-17
8544.428,306,-200,16336,-2296,-86,-50,-17
8545.949,308,-200,16336,-2296,-86,-50,-17
8550.483,307,-200,16336,-2296,-86,-50,-17
8554.283,308,-200,16336,-2296,-86,-50,-17
8554.283,307,-196,16308,-2284,-44,-20,7
8557.159,307,-196,16308,-2284,-44,-20,7
8562.645,308,-196,16308,-2284,-44,-20,7
8562.645,307,-196,16308,-2284,-44,-20,7
8562.645,306,-196,16308,-2284,-44,-20,7
8570.788,307,-196,16308,-2284,-44,-20,7
8570.788,307,-196,16308,-2284,-44,-20,7
8570.788,306,-188,16336,-2304,11,-27,1
8578.855000000001,306,-188,16336,-2304,11,-27,1
8580.868,307,-188,16336,-2304,11,-27,1
8580.868,307,-188,16336,-2304,11,-27,1
8580.868,307,-188,16336,-2304,11,-27,1
8586.949,307,-188,16336,-2304,11,-27,1
8586.949,307,-188,16336,-2304,11,-27,1
8592.646,307,-148,16416,-2248,-30,-23,-3
8595.249000000002,307,-148,16416,-2248,-30,-23,-3
8595.249000000002,307,-148,16416,-2248,-30,-23,-3
8603.576000000001,306,-148,16416,-2248,-30,-23,-3
8603.576000000001,307,-148,16416,-2248,-30,-23,-3
8603.576000000001,307,-148,16416,-2248,-30,-23,-3
8603.576000000001,308,-148,16416,-2248,-30,-23,-3
8613.694000000001,307,-188,16340,-2284,-72,-46,4
8616.474999999999,307,-188,16340,-2284,-72,-46,4
8618.594,307,-188,16340,-2284,-72,-46,4
8620.362000000001,307,-188,16340,-2284,-72,-46,4
8623.687,307,-188,16340,-2284,-72,-46,4
8628.539999999999,307,-188,16340,-2284,-72,-46,4
8628.539999999999,307,-188,16340,-2284,-72,-46,4
8628.539999999999,307,-188,16340,-2284,-72,-46,4
8636.755000000001,307,-176,16292,-2304,-4,-41,7
8637.728,308,-176,16292,-2304,-4,-41,7
8637.728,306,-176,16292,-2304,-4,-41,7
8637.728,307,-176,16292,-2304,-4,-41,7
8645.084,307,-176,16292,-2304,-4,-41,7
8648.237,308,-176,16292,-2304,-4,-41,7
8648.237,307,-176,16292,-2304,-4,-41,7
8653.301000000001,308,-180,16356,-2296,-24,-36,-11
8653.301000000001,307,-180,16356,-2296,-24,-36,-11
8657.994,307,-180,16356,-2296,-24,-36,-11
8661.424,307,-180,16356,-2296,-24,-36,-11
8661.424,308,-180,16356,-2296,-24,-36,-11
8669.537999999999,308,-180,16356,-2296,-24,-36,-11
8673.242,308,-180,16356,-2296,-24,-36,-11
8677.759999999998,307,-212,16408,-2292,-58,-20,-21
8677.759999999998,307,-212,16408,-2292,-58,-20,-21
8677.759999999998,307,-212,16408,-2292,-58,-20,-21
8684.103000000001,306,-212,16408,-2292,-58,-20,-21
8685.833,307,-212,16408,-2292,-58,-20,-21
8689.384,308,-212,16408,-2292,-58,-20,-21
8691.393,308,-212,16408,-2292,-58,-20,-21
8694.063,307,-200,16320,-2276,-73,-36,-12
8694.063,307,-200,16320,-2276,-73,-36,-12
8702.338,306,-200,16320,-2276,-73,-36,-12
8702.338,307,-200,16320,-2276,-73,-36,-12
8707.045,307,-200,16320,-2276,-73,-36,-12
8710.825,308,-200,16320,-2276,-73,-36,-12
8710.825,308,-200,16320,-2276,-73,-36,-12
8710.825,308,-232,16340,-2312,17,-35,-7
8718.859999999999,306,-232,16340,-2312,17,-35,-7
8721.556,306,-232,16340,-2312,17,-35,-7
8726.488,307,-232,16340,-2312,17,-35,-7
8726.488,307,-232,16340,-2312,17,-35,-7
8728.479,307,-232,16340,-2312,17,-35,-7
8728.479,307,-232,16340,-2312,17,-35,-7
8734.67,307,-184,16356,-2312,-33,-27,-8
8738.492,307,-184,16356,-2312,-33,-27,-8
8740.506,307,-184,16356,-2312,-33,-27,-8
8742.52,307,-184,16356,-2312,-33,-27,-8
8746.678,307,-184,16356,-2312,-33,-27,-8
8749.398,306,-184,16356,-2312,-33,-27,-8
8750.912,307,-184,16356,-2312,-33,-27,-8
8750.912,307,-220,16340,-2264,-118,-17,-16
8758.649,307,-220,16340,-2264,-118,-17,-16
8758.649,306,-220,16340,-2264,-118,-17,-16
8758.649,307,-220,16340,-2264,-118,-17,-16
8767.146,307,-220,16340,-2264,-118,-17,-16
8769.161,308,-220,16340,-2264,-118,-17,-16
8772.264,308,-220,16340,-2264,-118,-17,-16
8775.29,307,-188,16328,-2272,35,-37,-19
8775.29,307,-188,16328,-2272,35,-37,-19
8775.29,307,-188,16328,-2272,35,-37,-19
8783.383,307,-188,16328,-2272,35,-37,-19
8788.672,308,-188,16328,-2272,35,-37,-19
8789.926,308,-188,16328,-2272,35,-37,-19
8791.707,308,-188,16328,-2272,35,-37,-19
8793.596000000001,308,-184,16416,-2344,-14,-29,-3
8799.886,308,-184,16416,-2344,-14,-29,-3
8799.886,308,-184,16416,-2344,-14,-29,-3
8799.886,307,-184,16416,-2344,-14,-29,-3
8808.141000000001,307,-184,16416,-2344,-14,-29,-3
8809.900000000001,308,-184,16416,-2344,-14,-29,-3
8811.915,308,-184,16416,-2344,-14,-29,-3
8816.659,307,-188,16348,-2252,-136,-34,-5
8816.659,307,-188,16348,-2252,-136,-34,-5
8816.659,308,-188,16348,-2252,-136,-34,-5
8824.688,307,-188,16348,-2252,-136,-34,-5
8824.688,308,-188,16348,-2252,-136,-34,-5
8824.688,307,-188,16348,-2252,-136,-34,-5
8832.929,308,-188,16348,-2252,-136,-34,-5
8832.929,307,-228,16372,-2240,16,-50,-37
8839.439,307,-228,16372,-2240,16,-50,-37
8841.196,307,-228,16372,-2240,16,-50,-37
8841.196,308,-228,16372,-2240,16,-50,-37
8841.196,308,-228,16372,-2240,16,-50,-37
8849.384,307,-228,16372,-2240,16,-50,-37
8849.384,308,-228,16372,-2240,16,-50,-37
8856.005,307,-212,16376,-2300,16,-28,-14
8857.764,306,-212,16376,-2300,16,-28,-14
8857.764,307,-212,16376,-2300,16,-28,-14
8865.857,308,-212,16376,-2300,16,-28,-14
8865.857,307,-212,16376,-2300,16,-28,-14
8865.857,308,-212,16376,-2300,16,-28,-14
8874.237000000001,308,-212,16376,-2300,16,-28,-14
8874.237000000001,308,-224,16340,-2312,-116,-40,-18
8874.237000000001,308,-224,16340,-2312,-116,-40,-18
8882.814,307,-224,16340,-2312,-116,-40,-18
8886.099,308,-224,16340,-2312,-116,-40,-18
8886.099,308,-224,16340,-2312,-116,-40,-18
8891.171,308,-224,16340,-2312,-116,-40,-18
8891.851,308,-220,16352,-2232,-36,-35,-2
8891.851,308,-220,16352,-2232,-36,-35,-2
8899.312,307,-220,16352,-2232,-36,-35,-2
8899.312,308,-220,16352,-2232,-36,-35,-2
8899.312,307,-220,16352,-2232,-36,-35,-2
8907.344000000001,307,-220,16352,-2232,-36,-35,-2
8907.344000000001,307,-220,16352,-2232,-36,-35,-2
8907.344000000001,307,-180,16400,-2292,59,-31,-9
8916.038999999999,307,-180,16400,-2292,59,-31,-9
8918.592999999999,307,-180,16400,-2292,59,-31,-9
8920.232,306,-180,16400,-2292,59,-31,-9
8924.473,306,-180,16400,-2292,59,-31,-9
8924.473,307,-180,16400,-2292,59,-31,-9
8931.603000000001,308,-180,16400,-2292,59,-31,-9
8931.603000000001,308,-180,16400,-2292,59,-31,-9
8931.603000000001,307,-164,16348,-2316,-105,-35,6
8939.792000000001,307,-164,16348,-2316,-105,-35,6
8941.807999999999,307,-164,16348,-2316,-105,-35,6
8943.823,307,-164,16348,-2316,-105,-35,6
8947.853000000001,307,-164,16348,-2316,-105,-35,6
8951.881,307,-164,16348,-2316,-105,-35,6
8959.934000000001,308,-164,16348,-2316,-105,-35,6
8961.947,307,-192,16328,-2264,-49,-44,-24
8965.977,306,-192,16328,-2264,-49,-44,-24
8967.993999999999,307,-192,16328,-2264,-49,-44,-24
8970.007000000001,308,-192,16328,-2264,-49,-44,-24
8972.019,308,-192,16328,-2264,-49,-44,-24
8984.105,308,-192,16328,-2264,-49,-44,-24
8998.206,308,-192,16328,-2264,-49,-44,-24
9004.247,307,-204,16292,-2276,53,-43,-10
9019.371,307,-204,16292,-2276,53,-43,-10
9030.45,307,-204,16292,-2276,53,-43,-10
9038.909,307,-204,16292,-2276,53,-43,-10
9042.939,308,-204,16292,-2276,53,-43,-10
9047.126,308,-204,16292,-2276,53,-43,-10
9047.126,308,-204,16292,-2276,53,-43,-10
9047.126,308,-212,16324,-2296,-60,-37,-16
9047.126,307,-212,16324,-2296,-60,-37,-16
9063.546,307,-212,16324,-2296,-60,-37,-16
9065.562,307,-212,16324,-2296,-60,-37,-16
9069.928000000002,307,-212,16324,-2296,-60,-37,-16
9073.956,307,-212,16324,-2296,-60,-37,-16
9078.029,307,-212,16324,-2296,-60,-37,-16
9079.087,307,-228,16336,-2288,-104,-24,-21
9081.234,307,-228,16336,-2288,-104,-24,-21
9081.234,307,-228,16336,-2288,-104,-24,-21
9081.234,308,-228,16336,-2288,-104,-24,-21
9086.114,308,-228,16336,-2288,-104,-24,-21
9086.114,308,-228,16336,-2288,-104,-24,-21
9089.927,308,-180,16292,-2280,16,-28,-3
9089.927,308,-180,16292,-2280,16,-28,-3
9094.322,308,-180,16292,-2280,16,-28,-3
9094.322,307,-180,16292,-2280,16,-28,-3
9094.322,307,-180,16292,-2280,16,-28,-3
9094.322,308,-180,16292,-2280,16,-28,-3
9094.322,308,-180,16292,-2280,16,-28,-3
9102.507,307,-180,16292,-2280,16,-28,-3
9102.507,307,-188,16340,-2300,-12,-42,-15
9102.507,307,-188,16340,-2300,-12,-42,-15
9102.507,308,-188,16340,-2300,-12,-42,-15
9110.659,307,-188,16340,-2300,-12,-42,-15
9110.659,308,-188,16340,-2300,-12,-42,-15
9110.659,307,-188,16340,-2300,-12,-42,-15
9110.659,307,-212,16388,-2276,-124,-51,-23
9117.571999999998,307,-212,16388,-2276,-124,-51,-23
9119.180999999999,307,-212,16388,-2276,-124,-51,-23
9119.180999999999,307,-212,16388,-2276,-124,-51,-23
9119.180999999999,307,-212,16388,-2276,-124,-51,-23
9126.611,307,-212,16388,-2276,-124,-51,-23
9128.537,308,-212,16388,-2276,-124,-51,-23
9128.537,308,-184,16292,-2200,-26,-53,-18
9128.537,307,-184,16292,-2200,-26,-53,-18
9133.518,307,-184,16292,-2200,-26,-53,-18
9135.531,306,-184,16292,-2200,-26,-53,-18
9137.612000000001,307,-184,16292,-2200,-26,-53,-18
9138.162,307,-184,16292,-2200,-26,-53,-18
9138.162,307,-184,16292,-2200,-26,-53,-18
9143.582999999999,307,-208,16360,-2292,35,-53,4
9143.582999999999,306,-208,16360,-2292,35,-53,4
9143.582999999999,306,-208,16360,-2292,35,-53,4
9143.582999999999,307,-208,16360,-2292,35,-53,4
9143.582999999999,307,-208,16360,-2292,35,-53,4
9151.669,307,-208,16360,-2292,35,-53,4
9151.669,307,-208,16360,-2292,35,-53,4
9151.669,308,-240,16388,-2320,-57,-23,-11
9159.784,307,-240,16388,-2320,-57,-23,-11
9159.784,307,-240,16388,-2320,-57,-23,-11
9159.784,308,-240,16388,-2320,-57,-23,-11
9159.784,308,-240,16388,-2320,-57,-23,-11
9168.134,308,-240,16388,-2320,-57,-23,-11
9170.156,308,-240,16388,-2320,-57,-23,-11
9170.156,307,-220,16312,-2288,-102,-51,-9
9170.156,307,-220,16312,-2288,-102,-51,-9
9176.684,307,-220,16312,-2288,-102,-51,-9
9176.684,307,-220,16312,-2288,-102,-51,-9
9176.684,309,-220,16312,-2288,-102,-51,-9
9176.684,308,-220,16312,-2288,-102,-51,-9
9184.848,308,-220,16312,-2288,-102,-51,-9
9184.848,308,-192,16352,-2296,31,-26,8
9184.848,308,-192,16352,-2296,31,-26,8
9193.229000000001,307,-192,16352,-2296,31,-26,8
9193.229000000001,308,-192,16352,-2296,31,-26,8
9193.229000000001,308,-192,16352,-2296,31,-26,8
9193.229000000001,308,-192,16352,-2296,31,-26,8
9193.229000000001,308,-192,16352,-2296,31,-26,8
9201.577000000001,308,-192,16352,-2296,31,-26,8
9203.588,308,-204,16348,-2356,-39,-47,-1
9203.588,307,-204,16348,-2356,-39,-47,-1
9203.588,306,-204,16348,-2356,-39,-47,-1
9209.692000000001,308,-204,16348,-2356,-39,-47,-1
9211.726,308,-204,16348,-2356,-39,-47,-1
9213.742,308,-204,16348,-2356,-39,-47,-1
9215.754,308,-204,16348,-2356,-39,-47,-1
9217.765,308,-148,16332,-2244,-118,-31,-14
9219.778,307,-148,16332,-2244,-118,-31,-14
9219.778,307,-148,16332,-2244,-118,-31,-14
9226.082,307,-148,16332,-2244,-118,-31,-14
9226.082,308,-148,16332,-2244,-118,-31,-14
9226.082,308,-148,16332,-2244,-118,-31,-14
9234.106,308,-180,16384,-2232,6,-41,-20
9234.106,308,-180,16384,-2232,6,-41,-20
9241.899,307,-180,16384,-2232,6,-41,-20
9241.899,308,-180,16384,-2232,6,-41,-20
9241.899,307,-180,16384,-2232,6,-41,-20
9249.198,308,-180,16384,-2232,6,-41,-20
9250.212,308,-180,16384,-2232,6,-41,-20
9252.224,308,-180,16384,-2232,6,-41,-20
9255.889,307,-188,16348,-2332,2,-39,-10
9258.248,306,-188,16348,-2332,2,-39,-10
9262.903,307,-188,16348,-2332,2,-39,-10
9262.903,307,-188,16348,-2332,2,-39,-10
9266.436,307,-188,16348,-2332,2,-39,-10
9266.436,307,-188,16348,-2332,2,-39,-10
9274.737,308,-188,16348,-2332,2,-39,-10
9275.344000000001,308,-220,16324,-2296,-126,-34,-16
9278.717999999999,307,-220,16324,-2296,-126,-34,-16
9283.002,306,-220,16324,-2296,-126,-34,-16
9283.002,307,-220,16324,-2296,-126,-34,-16
9283.002,308,-220,16324,-2296,-126,-34,-16
9291.399,308,-220,16324,-2296,-126,-34,-16
9294.741,307,-220,16324,-2296,-126,-34,-16
9294.741,307,-236,16364,-2260,-28,-49,-4
9299.567,307,-236,16364,-2260,-28,-49,-4
9301.587,307,-236,16364,-2260,-28,-49,-4
9305.396,308,-236,16364,-2260,-28,-49,-4
9307.412,308,-236,16364,-2260,-28,-49,-4
9312.238000000001,308,-236,16364,-2260,-28,-49,-4
9315.225,308,-236,16364,-2260,-28,-49,-4
9315.225,308,-216,16360,-2336,24,-48,-6
9318.137999999999,307,-216,16360,-2336,24,-48,-6
9323.436,307,-216,16360,-2336,24,-48,-6
9325.452000000001,307,-216,16360,-2336,24,-48,-6
9325.452000000001,307,-216,16360,-2336,24,-48,-6
9331.573,307,-216,16360,-2336,24,-48,-6
9331.573,308,-216,16360,-2336,24,-48,-6
9331.573,307,-220,16348,-2312,-93,-27,-20
9339.768,307,-220,16348,-2312,-93,-27,-20
9339.768,307,-220,16348,-2312,-93,-27,-20
9339.768,307,-220,16348,-2312,-93,-27,-20
9348.72,308,-220,16348,-2312,-93,-27,-20
9348.72,307,-220,16348,-2312,-93,-27,-20
9348.72,308,-220,16348,-2312,-93,-27,-20
9356.309,307,-240,16308,-2252,-75,-46,-6
9359.39,307,-240,16308,-2252,-75,-46,-6
9359.39,306,-240,16308,-2252,-75,-46,-6
9364.579000000002,307,-240,16308,-2252,-75,-46,-6
9364.579000000002,307,-240,16308,-2252,-75,-46,-6
9372.668000000001,308,-240,16308,-2252,-75,-46,-6
9372.668000000001,308,-240,16308,-2252,-75,-46,-6
9372.668000000001,307,-176,16296,-2288,21,-40,-11
9372.668000000001,306,-176,16296,-2288,21,-40,-11
9380.800000000001,306,-176,16296,-2288,21,-40,-11
9380.800000000001,307,-176,16296,-2288,21,-40,-11
9389.756,307,-176,16296,-2288,21,-40,-11
9389.756,308,-176,16296,-2288,21,-40,-11
9389.756,307,-176,16296,-2288,21,-40,-11
9397.086,307,-220,16372,-2316,-41,-28,0
9399.732,307,-220,16372,-2316,-41,-28,0
9402.364,306,-220,16372,-2316,-41,-28,0
9405.393,306,-220,16372,-2316,-41,-28,0
9405.393,307,-220,16372,-2316,-41,-28,0
9405.393,307,-220,16372,-2316,-41,-28,0
9413.541000000001,306,-220,16372,-2316,-41,-28,0
9413.541000000001,307,-216,16308,-2308,-111,-50,-7
9418.803,306,-216,16308,-2308,-111,-50,-7
9422.637999999999,307,-216,16308,-2308,-111,-50,-7
9424.656,307,-216,16308,-2308,-111,-50,-7
9424.656,307,-216,16308,-2308,-111,-50,-7
9429.584,307,-216,16308,-2308,-111,-50,-7
9429.584,307,-216,16308,-2308,-111,-50,-7
9429.584,307,-164,16292,-2300,13,-33,-10
9438.515000000001,307,-164,16292,-2300,13,-33,-10
9438.515000000001,307,-164,16292,-2300,13,-33,-10
9438.515000000001,307,-164,16292,-2300,13,-33,-10
9446.229000000001,308,-164,16292,-2300,13,-33,-10
