Time (ms),EMG,AccX,AccY,AccZ,GyroX,GyroY,GyroZ
3.0829999999999997,308,-204,16388,-2332,-119,-39,-27
5.594,308,-204,16388,-2332,-119,-39,-27
7.335999999999999,308,-204,16388,-2332,-119,-39,-27
8.455,308,-204,16388,-2332,-119,-39,-27
9.461,308,-204,16388,-2332,-119,-39,-27
9.461,308,-204,16388,-2332,-119,-39,-27
1549.903,0,0,0,0,0,0,0
1550.92,307,0,0,0,0,0,0
1550.92,306,0,0,0,0,0,0
1550.92,306,0,0,0,0,0,0
1550.92,307,0,0,0,0,0,0
1550.92,306,0,0,0,0,0,0
1559.432,306,0,0,0,0,0,0
1561.476,306,0,0,0,0,0,0
1563.862,306,0,0,0,0,0,0
1565.8780000000002,306,0,0,0,0,0,0
1567.6399999999999,306,0,0,0,0,0,0
1569.655,305,0,0,0,0,0,0
1571.077,306,0,0,0,0,0,0
1572.004,306,0,0,0,0,0,0
1573.259,306,0,0,0,0,0,0
1573.259,306,0,0,0,0,0,0
1573.259,306,0,0,0,0,0,0
1576.0320000000002,306,0,0,0,0,0,0
1576.0320000000002,307,-180,16300,-2244,-62,-25,-4
1576.0320000000002,307,-180,16300,-2244,-62,-25,-4
1576.0320000000002,306,-180,16300,-2244,-62,-25,-4
1584.505,306,-180,16300,-2244,-62,-25,-4
1584.505,306,-180,16300,-2244,-62,-25,-4
1584.505,305,-180,16300,-2244,-62,-25,-4
1592.046,306,-180,16300,-2244,-62,-25,-4
1597.184,306,-200,16360,-2272,-13,-36,-12
1597.184,306,-200,16360,-2272,-13,-36,-12
1602.0520000000001,306,-200,16360,-2272,-13,-36,-12
1605.347,306,-200,16360,-2272,-13,-36,-12
1608.3799999999999,306,-200,16360,-2272,-13,-36,-12
1608.3799999999999,306,-200,16360,-2272,-13,-36,-12
1608.3799999999999,306,-200,16360,-2272,-13,-36,-12
1618.4460000000001,306,-164,16364,-2248,-40,-31,1
1618.4460000000001,305,-164,16364,-2248,-40,-31,1
1618.4460000000001,305,-164,16364,-2248,-40,-31,1
1626.618,306,-164,16364,-2248,-40,-31,1
1627.123,305,-164,16364,-2248,-40,-31,1
1631.14,306,-164,16364,-2248,-40,-31,1
1634.974,306,-164,16364,-2248,-40,-31,1
1634.974,306,-160,16304,-2216,-38,-38,-20
1638.8799999999999,306,-160,16304,-2216,-38,-38,-20
1641.623,306,-160,16304,-2216,-38,-38,-20
1647.0439999999999,306,-160,16304,-2216,-38,-38,-20
1649.053,306,-160,16304,-2216,-38,-38,-20
1650.3980000000001,306,-160,16304,-2216,-38,-38,-20
1652.155,307,-160,16304,-2216,-38,-38,-20
1656.662,307,-204,16356,-2248,-36,-28,-22
1657.672,306,-204,16356,-2248,-36,-28,-22
1663.514,306,-204,16356,-2248,-36,-28,-22
1667.229,306,-204,16356,-2248,-36,-28,-22
1668.254,306,-204,16356,-2248,-36,-28,-22
1669.916,306,-204,16356,-2248,-36,-28,-22
1675.779,307,-204,16356,-2248,-36,-28,-22
1676.3319999999999,307,-236,16304,-2232,-21,-43,-21
1679.656,306,-236,16304,-2232,-21,-43,-21
1681.829,306,-236,16304,-2232,-21,-43,-21
1681.829,306,-236,16304,-2232,-21,-43,-21
1688.983,306,-236,16304,-2232,-21,-43,-21
1692.2189999999998,306,-236,16304,-2232,-21,-43,-21
1695.805,306,-236,16304,-2232,-21,-43,-21
1697.818,306,-176,16376,-2212,-68,-42,-18
1699.316,306,-176,16376,-2212,-68,-42,-18
1704.162,306,-176,16376,-2212,-68,-42,-18
1708.235,306,-176,16376,-2212,-68,-42,-18
1708.235,306,-176,16376,-2212,-68,-42,-18
1712.2450000000001,306,-176,16376,-2212,-68,-42,-18
1716.77,306,-176,16376,-2212,-68,-42,-18
1716.77,306,-208,16304,-2284,-54,-45,-15
1716.77,306,-208,16304,-2284,-54,-45,-15
1723.683,306,-208,16304,-2284,-54,-45,-15
1726.529,305,-208,16304,-2284,-54,-45,-15
1730.0240000000001,306,-208,16304,-2284,-54,-45,-15
1731.7959999999998,306,-208,16304,-2284,-54,-45,-15
1731.7959999999998,306,-208,16304,-2284,-54,-45,-15
1731.7959999999998,307,-216,16372,-2240,-17,-55,-13
1739.589,307,-216,16372,-2240,-17,-55,-13
1739.589,306,-216,16372,-2240,-17,-55,-13
1747.346,306,-216,16372,-2240,-17,-55,-13
1749.677,306,-216,16372,-2240,-17,-55,-13
1749.677,307,-216,16372,-2240,-17,-55,-13
1756.355,307,-216,16372,-2240,-17,-55,-13
1756.355,307,-172,16332,-2260,-58,-42,14
1756.355,306,-172,16332,-2260,-58,-42,14
1763.756,306,-172,16332,-2260,-58,-42,14
1763.756,307,-172,16332,-2260,-58,-42,14
1763.756,306,-172,16332,-2260,-58,-42,14
1771.9,306,-172,16332,-2260,-58,-42,14
1771.9,307,-172,16332,-2260,-58,-42,14
1779.538,307,-224,16360,-2212,-39,-42,-4
1782.687,307,-224,16360,-2212,-39,-42,-4
1785.5749999999998,307,-224,16360,-2212,-39,-42,-4
1787.5810000000001,306,-224,16360,-2212,-39,-42,-4
1787.5810000000001,307,-224,16360,-2212,-39,-42,-4
1787.5810000000001,307,-224,16360,-2212,-39,-42,-4
1796.071,307,-224,16360,-2212,-39,-42,-4
1796.071,307,-148,16380,-2252,6,-38,-22
1796.071,307,-148,16380,-2252,6,-38,-22
1796.071,307,-148,16380,-2252,6,-38,-22
1806.4579999999999,307,-148,16380,-2252,6,-38,-22
1806.4579999999999,307,-148,16380,-2252,6,-38,-22
1813.288,307,-148,16380,-2252,6,-38,-22
1816.271,307,-148,16380,-2252,6,-38,-22
1816.271,307,-216,16352,-2252,-97,-53,-17
1822.354,307,-216,16352,-2252,-97,-53,-17
1822.354,307,-216,16352,-2252,-97,-53,-17
1826.636,306,-216,16352,-2252,-97,-53,-17
1830.6229999999998,307,-216,16352,-2252,-97,-53,-17
1832.647,307,-216,16352,-2252,-97,-53,-17
1832.647,307,-216,16352,-2252,-97,-53,-17
1837.521,307,-240,16368,-2216,-37,-33,7
1837.521,308,-240,16368,-2216,-37,-33,7
1837.521,307,-240,16368,-2216,-37,-33,7
1845.752,307,-240,16368,-2216,-37,-33,7
1845.752,307,-240,16368,-2216,-37,-33,7
1845.752,307,-240,16368,-2216,-37,-33,7
1855.8349999999998,308,-240,16368,-2216,-37,-33,7
1857.8410000000001,307,-264,16452,-2264,22,-35,-11
1857.8410000000001,308,-264,16452,-2264,22,-35,-11
1862.862,308,-264,16452,-2264,22,-35,-11
1867.3999999999999,307,-264,16452,-2264,22,-35,-11
1867.3999999999999,307,-264,16452,-2264,22,-35,-11
1869.969,307,-264,16452,-2264,22,-35,-11
1869.969,308,-264,16452,-2264,22,-35,-11
1869.969,308,-184,16312,-2344,-99,-37,2
1879.644,308,-184,16312,-2344,-99,-37,2
1883.045,307,-184,16312,-2344,-99,-37,2
1883.045,308,-184,16312,-2344,-99,-37,2
1887.008,308,-184,16312,-2344,-99,-37,2
1887.008,307,-184,16312,-2344,-99,-37,2
1887.008,308,-184,16312,-2344,-99,-37,2
1896.7240000000002,308,-140,16304,-2192,-53,-24,-2
1896.7240000000002,308,-140,16304,-2192,-53,-24,-2
1903.2849999999999,308,-140,16304,-2192,-53,-24,-2
1903.2849999999999,307,-140,16304,-2192,-53,-24,-2
1903.2849999999999,307,-140,16304,-2192,-53,-24,-2
1912.22,308,-140,16304,-2192,-53,-24,-2
1915.998,308,-140,16304,-2192,-53,-24,-2
1917.486,309,-196,16344,-2232,31,-32,-3
1921.578,308,-196,16344,-2232,31,-32,-3
1921.578,307,-196,16344,-2232,31,-32,-3
1921.578,307,-196,16344,-2232,31,-32,-3
1929.6299999999999,307,-196,16344,-2232,31,-32,-3
1931.65,308,-196,16344,-2232,31,-32,-3
1933.661,308,-196,16344,-2232,31,-32,-3
1937.821,308,-196,16344,-2232,31,-32,-3
1937.821,309,-216,16364,-2272,-33,-35,0
1939.827,308,-216,16364,-2272,-33,-35,0
1946.867,308,-216,16364,-2272,-33,-35,0
1946.867,307,-216,16364,-2272,-33,-35,0
1948.876,307,-216,16364,-2272,-33,-35,0
1954.041,308,-216,16364,-2272,-33,-35,0
1954.041,308,-216,16364,-2272,-33,-35,0
1958.463,308,-216,16336,-2264,-79,-38,-8
1962.358,307,-216,16336,-2264,-79,-38,-8
1966.378,308,-216,16336,-2264,-79,-38,-8
1966.378,307,-216,16336,-2264,-79,-38,-8
1970.716,308,-216,16336,-2264,-79,-38,-8
1974.729,307,-216,16336,-2264,-79,-38,-8
1974.729,308,-216,16336,-2264,-79,-38,-8
1979.004,308,-240,16276,-2244,2,-28,-12
1982.7820000000002,308,-240,16276,-2244,2,-28,-12
1982.7820000000002,308,-240,16276,-2244,2,-28,-12
1985.73,308,-240,16276,-2244,2,-28,-12
1991.08,308,-240,16276,-2244,2,-28,-12
1991.08,308,-240,16276,-2244,2,-28,-12
1995.308,308,-240,16276,-2244,2,-28,-12
1999.457,308,-220,16388,-2284,-3,-23,-4
1999.457,308,-220,16388,-2284,-3,-23,-4
2003.386,308,-220,16388,-2284,-3,-23,-4
2003.386,308,-220,16388,-2284,-3,-23,-4
2003.386,307,-220,16388,-2284,-3,-23,-4
2012.416,308,-220,16388,-2284,-3,-23,-4
2012.9969999999998,308,-220,16388,-2284,-3,-23,-4
2012.9969999999998,308,-220,16388,-2284,-3,-23,-4
2019.89,308,-180,16360,-2248,-78,-38,-14
2022.9599999999998,308,-180,16360,-2248,-78,-38,-14
2022.9599999999998,307,-180,16360,-2248,-78,-38,-14
2028.0300000000002,308,-180,16360,-2248,-78,-38,-14
2029.5169999999998,308,-180,16360,-2248,-78,-38,-14
2029.5169999999998,308,-180,16360,-2248,-78,-38,-14
2037.1950000000002,308,-192,16268,-2244,-51,-48,-15
2037.1950000000002,309,-192,16268,-2244,-51,-48,-15
2044.511,308,-192,16268,-2244,-51,-48,-15
2044.511,308,-192,16268,-2244,-51,-48,-15
2044.511,308,-192,16268,-2244,-51,-48,-15
2052.646,308,-192,16268,-2244,-51,-48,-15
2052.646,308,-192,16268,-2244,-51,-48,-15
2052.646,309,-216,16384,-2220,9,-35,-21
2060.796,308,-216,16384,-2220,9,-35,-21
2062.9300000000003,308,-216,16384,-2220,9,-35,-21
2062.9300000000003,307,-216,16384,-2220,9,-35,-21
2069.018,308,-216,16384,-2220,9,-35,-21
2069.018,307,-216,16384,-2220,9,-35,-21
2069.018,308,-216,16384,-2220,9,-35,-21
2077.488,309,-216,16384,-2220,9,-35,-21
2077.488,309,-212,16316,-2240,-73,-45,-7
2077.488,308,-212,16316,-2240,-73,-45,-7
2085.677,308,-212,16316,-2240,-73,-45,-7
2085.677,307,-212,16316,-2240,-73,-45,-7
2090.474,308,-212,16316,-2240,-73,-45,-7
2093.866,309,-212,16316,-2240,-73,-45,-7
2097.0559999999996,308,-212,16316,-2240,-73,-45,-7
2099.069,308,-160,16332,-2252,-68,-48,0
2102.2059999999997,308,-160,16332,-2252,-68,-48,0
2106.0240000000003,308,-160,16332,-2252,-68,-48,0
2107.971,308,-160,16332,-2252,-68,-48,0
2110.616,308,-160,16332,-2252,-68,-48,0
2113.357,308,-160,16332,-2252,-68,-48,0
2117.377,308,-160,16332,-2252,-68,-48,0
2118.886,309,-200,16352,-2264,5,-29,-20
2120.898,308,-200,16352,-2264,5,-29,-20
2125.9190000000003,308,-200,16352,-2264,5,-29,-20
2126.925,307,-200,16352,-2264,5,-29,-20
2129.598,308,-200,16352,-2264,5,-29,-20
2132.744,308,-200,16352,-2264,5,-29,-20
2135.1429999999996,308,-200,16352,-2264,5,-29,-20
2138.313,309,-212,16352,-2264,-40,-39,-13
2142.765,308,-212,16352,-2264,-40,-39,-13
2143.536,308,-212,16352,-2264,-40,-39,-13
2143.536,308,-212,16352,-2264,-40,-39,-13
2150.9109999999996,308,-212,16352,-2264,-40,-39,-13
2150.9109999999996,308,-212,16352,-2264,-40,-39,-13
2150.9109999999996,308,-212,16352,-2264,-40,-39,-13
2159.16,308,-208,16360,-2216,-37,-35,-21
2159.16,309,-208,16360,-2216,-37,-35,-21
2159.16,308,-208,16360,-2216,-37,-35,-21
2167.3450000000003,308,-208,16360,-2216,-37,-35,-21
2171.413,307,-208,16360,-2216,-37,-35,-21
2175.5260000000003,308,-208,16360,-2216,-37,-35,-21
2175.5260000000003,308,-208,16360,-2216,-37,-35,-21
2175.5260000000003,309,-228,16360,-2272,-21,-38,-14
2183.894,308,-228,16360,-2272,-21,-38,-14
2184.412,308,-228,16360,-2272,-21,-38,-14
2184.412,308,-228,16360,-2272,-21,-38,-14
2191.9080000000004,308,-228,16360,-2272,-21,-38,-14
2195.587,308,-228,16360,-2272,-21,-38,-14
2197.234,309,-228,16360,-2272,-21,-38,-14
2200.037,308,-172,16344,-2292,-41,-45,-27
2200.037,308,-172,16344,-2292,-41,-45,-27
2200.037,308,-172,16344,-2292,-41,-45,-27
2208.285,307,-172,16344,-2292,-41,-45,-27
2209.328,308,-172,16344,-2292,-41,-45,-27
2216.551,309,-172,16344,-2292,-41,-45,-27
2217.7030000000004,309,-172,16344,-2292,-41,-45,-27
2217.7030000000004,309,-244,16336,-2220,-34,-33,-4
2224.8070000000002,308,-244,16336,-2220,-34,-33,-4
2224.8070000000002,308,-244,16336,-2220,-34,-33,-4
2228.7400000000002,308,-244,16336,-2220,-34,-33,-4
2233.045,308,-244,16336,-2220,-34,-33,-4
2233.045,308,-244,16336,-2220,-34,-33,-4
2235.552,308,-244,16336,-2220,-34,-33,-4
2241.347,309,-180,16352,-2252,-11,-42,-24
2241.347,308,-180,16352,-2252,-11,-42,-24
2246.801,308,-180,16352,-2252,-11,-42,-24
2249.6589999999997,308,-180,16352,-2252,-11,-42,-24
2249.6589999999997,308,-180,16352,-2252,-11,-42,-24
2249.6589999999997,308,-180,16352,-2252,-11,-42,-24
2257.812,309,-180,16352,-2252,-11,-42,-24
2261.483,309,-168,16284,-2236,-46,-57,-21
2261.483,308,-168,16284,-2236,-46,-57,-21
2265.942,308,-168,16284,-2236,-46,-57,-21
2269.7,308,-168,16284,-2236,-46,-57,-21
2274.018,307,-168,16284,-2236,-46,-57,-21
2274.018,308,-168,16284,-2236,-46,-57,-21
2274.018,308,-192,16276,-2244,-49,-37,-13
2282.266,308,-192,16276,-2244,-49,-37,-13
2286.099,308,-192,16276,-2244,-49,-37,-13
2286.099,308,-192,16276,-2244,-49,-37,-13
2290.5989999999997,308,-192,16276,-2244,-49,-37,-13
2294.4840000000004,307,-192,16276,-2244,-49,-37,-13
2297.375,308,-192,16276,-2244,-49,-37,-13
2298.8900000000003,308,-164,16296,-2236,-30,-26,2
2298.8900000000003,308,-164,16296,-2236,-30,-26,2
2298.8900000000003,308,-164,16296,-2236,-30,-26,2
2306.959,308,-164,16296,-2236,-30,-26,2
2306.959,308,-164,16296,-2236,-30,-26,2
2306.959,308,-164,16296,-2236,-30,-26,2
2315.234,308,-164,16296,-2236,-30,-26,2
2317.4640000000004,308,-164,16296,-2236,-30,-26,2
2317.4640000000004,308,-156,16376,-2228,-27,-39,-6
2323.376,308,-156,16376,-2228,-27,-39,-6
2327.001,308,-156,16376,-2228,-27,-39,-6
2330.314,308,-156,16376,-2228,-27,-39,-6
2331.921,307,-156,16376,-2228,-27,-39,-6
2331.921,308,-156,16376,-2228,-27,-39,-6
2331.921,308,-156,16376,-2228,-27,-39,-6
2340.065,308,-184,16368,-2288,-26,-34,2
2343.403,307,-184,16368,-2288,-26,-34,2
2346.6079999999997,307,-184,16368,-2288,-26,-34,2
2348.4219999999996,307,-184,16368,-2288,-26,-34,2
2348.4219999999996,308,-184,16368,-2288,-26,-34,2
2348.4219999999996,308,-184,16368,-2288,-26,-34,2
2356.576,307,-184,16368,-2288,-26,-34,2
2358.371,308,-168,16360,-2264,-16,-48,-1
2363.3289999999997,308,-168,16360,-2264,-16,-48,-1
2365.176,308,-168,16360,-2264,-16,-48,-1
2367.21,307,-168,16360,-2264,-16,-48,-1
2367.21,308,-168,16360,-2264,-16,-48,-1
2373.222,307,-168,16360,-2264,-16,-48,-1
2373.222,308,-168,16360,-2264,-16,-48,-1
2379.945,308,-224,16344,-2232,-33,-52,-6
2384.574,308,-224,16344,-2232,-33,-52,-6
2385.237,307,-224,16344,-2232,-33,-52,-6
2385.237,308,-224,16344,-2232,-33,-52,-6
2390.273,307,-224,16344,-2232,-33,-52,-6
2390.273,307,-224,16344,-2232,-33,-52,-6
2397.573,308,-224,16344,-2232,-33,-52,-6
2398.7560000000003,308,-204,16352,-2228,-45,-33,-20
2404.655,307,-204,16352,-2228,-45,-33,-20
2404.655,307,-204,16352,-2228,-45,-33,-20
2409.582,307,-204,16352,-2228,-45,-33,-20
2409.582,307,-204,16352,-2228,-45,-33,-20
2414.026,307,-204,16352,-2228,-45,-33,-20
2414.026,308,-204,16352,-2228,-45,-33,-20
2421.261,307,-220,16356,-2240,-11,-30,2
2422.036,308,-220,16356,-2240,-11,-30,2
2422.036,308,-220,16356,-2240,-11,-30,2
2430.145,307,-220,16356,-2240,-11,-30,2
2431.766,307,-220,16356,-2240,-11,-30,2
2431.766,307,-220,16356,-2240,-11,-30,2
2436.918,307,-220,16356,-2240,-11,-30,2
2438.4410000000003,309,-232,16340,-2236,-47,-49,-17
2440.45,308,-232,16340,-2236,-47,-49,-17
2446.4719999999998,307,-232,16340,-2236,-47,-49,-17
2448.483,307,-232,16340,-2236,-47,-49,-17
2448.483,307,-232,16340,-2236,-47,-49,-17
2448.483,307,-232,16340,-2236,-47,-49,-17
2458.1330000000003,308,-232,16340,-2236,-47,-49,-17
2458.1330000000003,307,-180,16384,-2224,-35,-45,-1
2463.053,307,-180,16384,-2224,-35,-45,-1
2466.6899999999996,307,-180,16384,-2224,-35,-45,-1
2470.4,307,-180,16384,-2224,-35,-45,-1
2471.414,306,-180,16384,-2224,-35,-45,-1
2471.414,307,-180,16384,-2224,-35,-45,-1
2477.082,307,-180,16384,-2224,-35,-45,-1
2479.463,307,-184,16400,-2276,-14,-37,-2
2479.463,307,-184,16400,-2276,-14,-37,-2
2486.7870000000003,307,-184,16400,-2276,-14,-37,-2
2487.799,307,-184,16400,-2276,-14,-37,-2
2490.886,306,-184,16400,-2276,-14,-37,-2
2490.886,307,-184,16400,-2276,-14,-37,-2
2496.041,307,-184,16400,-2276,-14,-37,-2
2496.041,307,-228,16300,-2212,-52,-34,-11
2496.041,306,-228,16300,-2212,-52,-34,-11
2506.1279999999997,306,-228,16300,-2212,-52,-34,-11
2508.137,307,-228,16300,-2212,-52,-34,-11
2510.1429999999996,306,-228,16300,-2212,-52,-34,-11
2512.1479999999997,307,-228,16300,-2212,-52,-34,-11
2512.1479999999997,306,-228,16300,-2212,-52,-34,-11
2512.1479999999997,308,-224,16364,-2224,-54,-53,-8
2520.322,306,-224,16364,-2224,-54,-53,-8
2527.237,307,-224,16364,-2224,-54,-53,-8
2527.237,307,-224,16364,-2224,-54,-53,-8
2530.024,306,-224,16364,-2224,-54,-53,-8
2535.925,307,-224,16364,-2224,-54,-53,-8
2536.9359999999997,307,-224,16364,-2224,-54,-53,-8
2540.047,307,-212,16372,-2232,-8,-21,-8
2540.047,306,-212,16372,-2232,-8,-21,-8
2544.967,306,-212,16372,-2232,-8,-21,-8
2546.987,306,-212,16372,-2232,-8,-21,-8
2546.987,306,-212,16372,-2232,-8,-21,-8
2553.1290000000004,307,-212,16372,-2232,-8,-21,-8
2553.1290000000004,306,-212,16372,-2232,-8,-21,-8
2553.1290000000004,307,-256,16432,-2228,-30,-21,-7
2561.457,306,-256,16432,-2228,-30,-21,-7
2565.4900000000002,305,-256,16432,-2228,-30,-21,-7
2565.4900000000002,306,-256,16432,-2228,-30,-21,-7
2569.785,306,-256,16432,-2228,-30,-21,-7
2569.785,306,-256,16432,-2228,-30,-21,-7
2569.785,307,-256,16432,-2228,-30,-21,-7
2579.874,306,-176,16352,-2256,-71,-39,-19
2582.602,306,-176,16352,-2256,-71,-39,-19
2585.098,305,-176,16352,-2256,-71,-39,-19
2586.109,306,-176,16352,-2256,-71,-39,-19
2586.109,305,-176,16352,-2256,-71,-39,-19
2586.109,306,-176,16352,-2256,-71,-39,-19
2597.4300000000003,306,-176,16352,-2256,-71,-39,-19
2601.486,307,-176,16284,-2256,-22,-24,-2
2602.502,306,-176,16284,-2256,-22,-24,-2
2604.9880000000003,306,-176,16284,-2256,-22,-24,-2
2604.9880000000003,305,-176,16284,-2256,-22,-24,-2
2610.7870000000003,305,-176,16284,-2256,-22,-24,-2
2614.004,306,-176,16284,-2256,-22,-24,-2
2617.075,306,-176,16284,-2256,-22,-24,-2
2618.817,306,-176,16372,-2280,-18,-47,1
2621.9719999999998,305,-176,16372,-2280,-18,-47,1
2624.462,306,-176,16372,-2280,-18,-47,1
2624.462,305,-176,16372,-2280,-18,-47,1
2630.513,305,-176,16372,-2280,-18,-47,1
2632.523,305,-176,16372,-2280,-18,-47,1
2632.523,306,-176,16372,-2280,-18,-47,1
2635.631,306,-212,16332,-2220,-68,-35,-9
2635.631,305,-212,16332,-2220,-68,-35,-9
2646.837,305,-212,16332,-2220,-68,-35,-9
2647.6609999999996,305,-212,16332,-2220,-68,-35,-9
2650.75,306,-212,16332,-2220,-68,-35,-9
2651.79,305,-212,16332,-2220,-68,-35,-9
2651.79,306,-212,16332,-2220,-68,-35,-9
2651.79,306,-212,16332,-2220,-68,-35,-9
2661.761,306,-212,16348,-2212,-22,-27,0
2663.9610000000002,306,-212,16348,-2212,-22,-27,0
2665.973,306,-212,16348,-2212,-22,-27,0
2669.992,305,-212,16348,-2212,-22,-27,0
2671.998,306,-212,16348,-2212,-22,-27,0
2674.006,305,-212,16348,-2212,-22,-27,0
2678.021,306,-212,16348,-2212,-22,-27,0
2680.029,306,-156,16300,-2216,-11,-43,-19
2682.039,305,-156,16300,-2216,-11,-43,-19
2686.588,305,-156,16300,-2216,-11,-43,-19
2690.601,305,-156,16300,-2216,-11,-43,-19
2692.349,305,-156,16300,-2216,-11,-43,-19
2694.3559999999998,305,-156,16300,-2216,-11,-43,-19
2698.373,305,-156,16300,-2216,-11,-43,-19
2700.382,306,-228,16332,-2236,-89,-44,-18
2701.137,305,-228,16332,-2236,-89,-44,-18
2707.776,305,-228,16332,-2236,-89,-44,-18
2708.7850000000003,305,-228,16332,-2236,-89,-44,-18
2712.8160000000003,306,-228,16332,-2236,-89,-44,-18
2712.8160000000003,306,-228,16332,-2236,-89,-44,-18
2720.4410000000003,306,-228,16332,-2236,-89,-44,-18
2721.0209999999997,306,-248,16328,-2204,-48,-35,-21
2722.596,306,-248,16328,-2204,-48,-35,-21
2727.33,305,-248,16328,-2204,-48,-35,-21
2729.9730000000004,305,-248,16328,-2204,-48,-35,-21
2733.459,306,-248,16328,-2204,-48,-35,-21
2736.1490000000003,306,-248,16328,-2204,-48,-35,-21
2737.8239999999996,307,-276,16316,-2204,-1,-37,-10
2741.511,306,-276,16316,-2204,-1,-37,-10
2741.511,306,-276,16316,-2204,-1,-37,-10
2741.511,306,-276,16316,-2204,-1,-37,-10
2749.726,306,-276,16316,-2204,-1,-37,-10
2753.007,306,-276,16316,-2204,-1,-37,-10
2753.007,306,-276,16316,-2204,-1,-37,-10
2757.8230000000003,306,-176,16332,-2292,-36,-37,-15
2757.8230000000003,306,-176,16332,-2292,-36,-37,-15
2765.887,306,-176,16332,-2292,-36,-37,-15
2766.592,306,-176,16332,-2292,-36,-37,-15
2766.592,306,-176,16332,-2292,-36,-37,-15
2774.09,306,-176,16332,-2292,-36,-37,-15
2774.09,307,-176,16332,-2292,-36,-37,-15
2780.41,307,-220,16376,-2228,-58,-52,-14
2782.302,306,-220,16376,-2228,-58,-52,-14
2785.793,307,-220,16376,-2228,-58,-52,-14
2785.793,306,-220,16376,-2228,-58,-52,-14
2790.398,307,-220,16376,-2228,-58,-52,-14
2794.196,307,-220,16376,-2228,-58,-52,-14
2798.5679999999998,307,-220,16376,-2228,-58,-52,-14
2798.5679999999998,307,-244,16348,-2284,-13,-36,3
2798.5679999999998,307,-244,16348,-2284,-13,-36,3
2806.7259999999997,307,-244,16348,-2284,-13,-36,3
2810.3669999999997,307,-244,16348,-2284,-13,-36,3
2810.3669999999997,306,-244,16348,-2284,-13,-36,3
2814.796,306,-244,16348,-2284,-13,-36,3
2814.796,308,-244,16348,-2284,-13,-36,3
2814.796,307,-200,16368,-2228,-29,-37,-8
2822.9129999999996,307,-200,16368,-2228,-29,-37,-8
2827.406,307,-200,16368,-2228,-29,-37,-8
2827.406,306,-200,16368,-2228,-29,-37,-8
2831.0339999999997,307,-200,16368,-2228,-29,-37,-8
2832.317,307,-200,16368,-2228,-29,-37,-8
2832.317,308,-200,16368,-2228,-29,-37,-8
2839.5570000000002,307,-172,16348,-2236,-57,-43,-16
2839.5570000000002,307,-172,16348,-2236,-57,-43,-16
2846.656,308,-172,16348,-2236,-57,-43,-16
2847.828,307,-172,16348,-2236,-57,-43,-16
2847.828,307,-172,16348,-2236,-57,-43,-16
2855.951,307,-172,16348,-2236,-57,-43,-16
2857.964,307,-172,16348,-2236,-57,-43,-16
2859.973,308,-200,16320,-2228,-27,-24,7
2863.995,307,-200,16320,-2228,-27,-24,7
2865.323,307,-200,16320,-2228,-27,-24,7
2865.323,307,-200,16320,-2228,-27,-24,7
2872.4210000000003,307,-200,16320,-2228,-27,-24,7
2872.4210000000003,307,-200,16320,-2228,-27,-24,7
2872.4210000000003,307,-200,16320,-2228,-27,-24,7
2872.4210000000003,308,-200,16320,-2228,-27,-24,7
2880.937,307,-200,16344,-2244,-30,-28,-16
2880.937,307,-200,16344,-2244,-30,-28,-16
2889.131,308,-200,16344,-2244,-30,-28,-16
2889.905,307,-200,16344,-2244,-30,-28,-16
2889.905,308,-200,16344,-2244,-30,-28,-16
2897.19,308,-200,16344,-2244,-30,-28,-16
2897.19,307,-232,16360,-2260,-49,-41,-10
2897.19,308,-232,16360,-2260,-49,-41,-10
2905.564,307,-232,16360,-2260,-49,-41,-10
2905.564,307,-232,16360,-2260,-49,-41,-10
2905.564,308,-232,16360,-2260,-49,-41,-10
2914.923,307,-232,16360,-2260,-49,-41,-10
2914.923,308,-232,16360,-2260,-49,-41,-10
2919.797,307,-196,16328,-2248,-58,-45,5
2921.895,308,-196,16328,-2248,-58,-45,5
2925.042,307,-196,16328,-2248,-58,-45,5
2927.634,308,-196,16328,-2248,-58,-45,5
2930.1780000000003,308,-196,16328,-2248,-58,-45,5
2930.1780000000003,309,-196,16328,-2248,-58,-45,5
2930.1780000000003,308,-196,16328,-2248,-58,-45,5
2938.6749999999997,309,-196,16328,-2248,-58,-45,5
2938.6749999999997,308,-180,16292,-2244,5,-36,-11
2938.6749999999997,308,-180,16292,-2244,5,-36,-11
2948.109,308,-180,16292,-2244,5,-36,-11
2948.109,307,-180,16292,-2244,5,-36,-11
2948.109,308,-180,16292,-2244,5,-36,-11
2955.221,308,-180,16292,-2244,5,-36,-11
2955.221,308,-180,16292,-2244,5,-36,-11
2955.221,309,-188,16312,-2272,-37,-36,-11
2965.377,308,-188,16312,-2272,-37,-36,-11
2967.317,307,-188,16312,-2272,-37,-36,-11
2967.317,308,-188,16312,-2272,-37,-36,-11
2971.692,308,-188,16312,-2272,-37,-36,-11
2976.596,308,-188,16312,-2272,-37,-36,-11
2979.931,308,-188,16312,-2272,-37,-36,-11
2979.931,308,-220,16316,-2268,-47,-52,-10
2986.4809999999998,308,-220,16316,-2268,-47,-52,-10
2988.257,307,-220,16316,-2268,-47,-52,-10
2988.257,308,-220,16316,-2268,-47,-52,-10
2993.744,308,-220,16316,-2268,-47,-52,-10
2997.109,309,-220,16316,-2268,-47,-52,-10
2997.109,308,-220,16316,-2268,-47,-52,-10
2997.109,308,-204,16356,-2264,-20,-32,-20
3006.9759999999997,308,-204,16356,-2264,-20,-32,-20
3006.9759999999997,308,-204,16356,-2264,-20,-32,-20
3006.9759999999997,308,-204,16356,-2264,-20,-32,-20
3012.698,308,-204,16356,-2264,-20,-32,-20
3012.698,309,-204,16356,-2264,-20,-32,-20
3012.698,309,-232,16308,-2248,-56,-45,-12
3020.81,308,-232,16308,-2248,-56,-45,-12
3026.422,309,-232,16308,-2248,-56,-45,-12
3029.929,308,-232,16308,-2248,-56,-45,-12
3029.929,308,-232,16308,-2248,-56,-45,-12
3033.5480000000002,308,-232,16308,-2248,-56,-45,-12
3037.235,309,-232,16308,-2248,-56,-45,-12
3041.254,309,-204,16392,-2216,-28,-27,-12
3043.2670000000003,308,-204,16392,-2216,-28,-27,-12
3047.421,309,-204,16392,-2216,-28,-27,-12
3051.1279999999997,308,-204,16392,-2216,-28,-27,-12
3053.556,308,-204,16392,-2216,-28,-27,-12
3053.556,308,-204,16392,-2216,-28,-27,-12
3053.556,308,-204,16392,-2216,-28,-27,-12
3053.556,308,-188,16384,-2260,-23,-27,1
3063.533,309,-188,16384,-2260,-23,-27,1
3063.533,308,-188,16384,-2260,-23,-27,1
3070.172,308,-188,16384,-2260,-23,-27,1
3072.181,309,-188,16384,-2260,-23,-27,1
3076.799,308,-188,16384,-2260,-23,-27,1
3078.723,309,-188,16384,-2260,-23,-27,1
3078.723,309,-192,16292,-2220,-73,-37,-1
3078.723,309,-192,16292,-2220,-73,-37,-1
3078.723,308,-192,16292,-2220,-73,-37,-1
3087.101,309,-192,16292,-2220,-73,-37,-1
3087.101,308,-192,16292,-2220,-73,-37,-1
3087.101,309,-192,16292,-2220,-73,-37,-1
3095.559,309,-192,16292,-2220,-73,-37,-1
3095.559,309,-192,16292,-2220,-73,-37,-1
3095.559,309,-176,16300,-2204,-24,-39,-23
3104.012,308,-176,16300,-2204,-24,-39,-23
3104.012,309,-176,16300,-2204,-24,-39,-23
3113.581,308,-176,16300,-2204,-24,-39,-23
3113.581,308,-176,16300,-2204,-24,-39,-23
3113.581,309,-176,16300,-2204,-24,-39,-23
3121.18,309,-176,16392,-2212,3,-38,2
3122.2729999999997,309,-176,16392,-2212,3,-38,2
3125.73,308,-176,16392,-2212,3,-38,2
3128.2999999999997,308,-176,16392,-2212,3,-38,2
3128.2999999999997,308,-176,16392,-2212,3,-38,2
3128.2999999999997,308,-176,16392,-2212,3,-38,2
3128.2999999999997,308,-176,16392,-2212,3,-38,2
3136.603,309,-176,16392,-2212,3,-38,2
3136.603,309,-204,16364,-2248,-80,-39,-13
3144.664,309,-204,16364,-2248,-80,-39,-13
3147.344,308,-204,16364,-2248,-80,-39,-13
3147.344,308,-204,16364,-2248,-80,-39,-13
3154.509,308,-204,16364,-2248,-80,-39,-13
3155.409,308,-204,16364,-2248,-80,-39,-13
3158.5200000000004,309,-204,16364,-2248,-80,-39,-13
3161.239,309,-184,16356,-2236,-49,-22,-4
3161.239,309,-184,16356,-2236,-49,-22,-4
3161.239,308,-184,16356,-2236,-49,-22,-4
3170.964,309,-184,16356,-2236,-49,-22,-4
3171.8799999999997,309,-184,16356,-2236,-49,-22,-4
3171.8799999999997,309,-184,16356,-2236,-49,-22,-4
3177.428,310,-184,16356,-2236,-49,-22,-4
3177.428,309,-188,16396,-2248,20,-35,9
3177.428,308,-188,16396,-2248,20,-35,9
3185.586,309,-188,16396,-2248,20,-35,9
3185.586,308,-188,16396,-2248,20,-35,9
3185.586,308,-188,16396,-2248,20,-35,9
3193.668,309,-188,16396,-2248,20,-35,9
3197.201,309,-188,16396,-2248,20,-35,9
3197.201,308,-188,16396,-2248,20,-35,9
3201.8970000000004,309,-180,16352,-2256,-61,-51,-18
3201.8970000000004,308,-180,16352,-2256,-61,-51,-18
3201.8970000000004,307,-180,16352,-2256,-61,-51,-18
3210.181,309,-180,16352,-2256,-61,-51,-18
3213.7799999999997,308,-180,16352,-2256,-61,-51,-18
3213.7799999999997,308,-180,16352,-2256,-61,-51,-18
3218.397,309,-208,16356,-2168,-66,-32,5
3218.397,308,-208,16356,-2168,-66,-32,5
3218.397,308,-208,16356,-2168,-66,-32,5
3228.469,308,-208,16356,-2168,-66,-32,5
3230.456,309,-208,16356,-2168,-66,-32,5
3234.542,308,-208,16356,-2168,-66,-32,5
3234.542,309,-208,16356,-2168,-66,-32,5
3234.542,309,-208,16356,-2168,-66,-32,5
3234.542,309,-172,16356,-2248,5,-55,-9
3243.6929999999998,308,-172,16356,-2248,5,-55,-9
3243.6929999999998,308,-172,16356,-2248,5,-55,-9
3243.6929999999998,308,-172,16356,-2248,5,-55,-9
3252.785,308,-172,16356,-2248,5,-55,-9
3252.785,309,-172,16356,-2248,5,-55,-9
3252.785,309,-172,16356,-2248,5,-55,-9
3259.614,309,-184,16392,-2244,-43,-20,-5
3263.7999999999997,308,-184,16392,-2244,-43,-20,-5
3263.7999999999997,308,-184,16392,-2244,-43,-20,-5
3268.974,309,-184,16392,-2244,-43,-20,-5
3268.974,308,-184,16392,-2244,-43,-20,-5
3276.236,309,-184,16392,-2244,-43,-20,-5
3276.236,309,-184,16392,-2244,-43,-20,-5
3276.236,308,-232,16340,-2252,-48,-27,-4
3284.713,308,-232,16340,-2252,-48,-27,-4
3284.713,308,-232,16340,-2252,-48,-27,-4
3284.713,308,-232,16340,-2252,-48,-27,-4
3293.163,308,-232,16340,-2252,-48,-27,-4
3293.163,308,-232,16340,-2252,-48,-27,-4
3293.163,308,-232,16340,-2252,-48,-27,-4
3301.958,309,-164,16364,-2216,-20,-37,-10
3302.6949999999997,308,-164,16364,-2216,-20,-37,-10
3302.6949999999997,308,-164,16364,-2216,-20,-37,-10
3309.91,308,-164,16364,-2216,-20,-37,-10
3309.91,308,-164,16364,-2216,-20,-37,-10
3309.91,309,-164,16364,-2216,-20,-37,-10
3317.9599999999996,309,-164,16364,-2216,-20,-37,-10
3317.9599999999996,308,-156,16280,-2272,-30,-19,10
3317.9599999999996,308,-156,16280,-2272,-30,-19,10
3326.237,308,-156,16280,-2272,-30,-19,10
3331.298,308,-156,16280,-2272,-30,-19,10
3334.4170000000004,309,-156,16280,-2272,-30,-19,10
3334.4170000000004,309,-156,16280,-2272,-30,-19,10
3334.4170000000004,308,-156,16280,-2272,-30,-19,10
3343.023,308,-204,16292,-2208,-60,-8,-2
3347.334,308,-204,16292,-2208,-60,-8,-2
3348.493,309,-204,16292,-2208,-60,-8,-2
3351.2599999999998,308,-204,16292,-2208,-60,-8,-2
3351.2599999999998,308,-204,16292,-2208,-60,-8,-2
3355.095,309,-204,16292,-2208,-60,-8,-2
3356.377,309,-204,16292,-2208,-60,-8,-2
3359.5350000000003,309,-204,16292,-2208,-60,-8,-2
3364.094,309,-220,16404,-2228,1,-50,-20
3364.094,308,-220,16404,-2228,1,-50,-20
3368.362,308,-220,16404,-2228,1,-50,-20
3372.47,308,-220,16404,-2228,1,-50,-20
3372.47,308,-220,16404,-2228,1,-50,-20
3376.384,308,-220,16404,-2228,1,-50,-20
3376.384,309,-220,16404,-2228,1,-50,-20
3376.384,308,-192,16344,-2280,-45,-48,-19
3384.5649999999996,308,-192,16344,-2280,-45,-48,-19
3384.5649999999996,308,-192,16344,-2280,-45,-48,-19
3384.5649999999996,307,-192,16344,-2280,-45,-48,-19
3396.4249999999997,308,-192,16344,-2280,-45,-48,-19
3396.898,308,-192,16344,-2280,-45,-48,-19
3396.898,309,-192,16344,-2280,-45,-48,-19
3401.5170000000003,309,-188,16300,-2220,-46,-35,-3
3401.5170000000003,308,-188,16300,-2220,-46,-35,-3
3401.5170000000003,308,-188,16300,-2220,-46,-35,-3
3409.7270000000003,308,-188,16300,-2220,-46,-35,-3
3409.7270000000003,308,-188,16300,-2220,-46,-35,-3
3409.7270000000003,308,-188,16300,-2220,-46,-35,-3
3420.29,308,-188,16300,-2220,-46,-35,-3
3422.301,309,-236,16312,-2208,-4,-35,-13
3426.65,308,-236,16312,-2208,-4,-35,-13
3429.258,308,-236,16312,-2208,-4,-35,-13
3429.258,308,-236,16312,-2208,-4,-35,-13
3429.258,308,-236,16312,-2208,-4,-35,-13
3437.558,308,-236,16312,-2208,-4,-35,-13
3441.2129999999997,308,-236,16312,-2208,-4,-35,-13
3442.597,309,-200,16372,-2244,-9,-24,-25
3444.651,308,-200,16372,-2244,-9,-24,-25
3444.651,308,-200,16372,-2244,-9,-24,-25
3453.4210000000003,308,-200,16372,-2244,-9,-24,-25
3453.4210000000003,308,-200,16372,-2244,-9,-24,-25
3455.265,309,-200,16372,-2244,-9,-24,-25
3459.4649999999997,309,-200,16372,-2244,-9,-24,-25
3459.4649999999997,309,-196,16304,-2268,-61,-32,-17
3459.4649999999997,308,-196,16304,-2268,-61,-32,-17
3469.938,308,-196,16304,-2268,-61,-32,-17
3470.568,308,-196,16304,-2268,-61,-32,-17
3470.568,308,-196,16304,-2268,-61,-32,-17
3478.003,308,-196,16304,-2268,-61,-32,-17
3478.003,308,-196,16304,-2268,-61,-32,-17
3478.003,308,-216,16296,-2244,-7,-40,-11
3486.392,307,-216,16296,-2244,-7,-40,-11
3486.392,307,-216,16296,-2244,-7,-40,-11
3486.392,308,-216,16296,-2244,-7,-40,-11
3492.3410000000003,307,-216,16296,-2244,-7,-40,-11
3497.297,308,-216,16296,-2244,-7,-40,-11
3497.297,308,-216,16296,-2244,-7,-40,-11
3500.67,308,-220,16324,-2300,-13,-51,-7
3500.67,307,-220,16324,-2300,-13,-51,-7
3508.924,307,-220,16324,-2300,-13,-51,-7
3512.008,307,-220,16324,-2300,-13,-51,-7
3515.017,308,-220,16324,-2300,-13,-51,-7
3518.97,308,-220,16324,-2300,-13,-51,-7
3518.97,308,-220,16324,-2300,-13,-51,-7
3518.97,308,-228,16332,-2232,-49,-40,-9
3527.12,307,-228,16332,-2232,-49,-40,-9
3529.132,307,-228,16332,-2232,-49,-40,-9
3531.145,307,-228,16332,-2232,-49,-40,-9
3535.522,308,-228,16332,-2232,-49,-40,-9
3536.2360000000003,308,-228,16332,-2232,-49,-40,-9
3536.2360000000003,308,-228,16332,-2232,-49,-40,-9
3541.912,308,-212,16336,-2212,-34,-37,-7
3541.912,308,-212,16336,-2212,-34,-37,-7
3541.912,308,-212,16336,-2212,-34,-37,-7
3550.096,308,-212,16336,-2212,-34,-37,-7
3550.096,308,-212,16336,-2212,-34,-37,-7
3550.096,308,-212,16336,-2212,-34,-37,-7
3560.077,308,-212,16336,-2212,-34,-37,-7
3560.85,308,-196,16316,-2260,-25,-38,-14
3565.1000000000004,307,-196,16316,-2260,-25,-38,-14
3568.219,307,-196,16316,-2260,-25,-38,-14
3568.219,307,-196,16316,-2260,-25,-38,-14
3574.952,307,-196,16316,-2260,-25,-38,-14
3574.952,308,-196,16316,-2260,-25,-38,-14
3580.471,309,-196,16316,-2260,-25,-38,-14
3583.067,308,-160,16296,-2236,-25,-37,-6
3583.067,308,-160,16296,-2236,-25,-37,-6
3583.067,307,-160,16296,-2236,-25,-37,-6
3592.8650000000002,307,-160,16296,-2236,-25,-37,-6
3593.562,308,-160,16296,-2236,-25,-37,-6
3597.7290000000003,308,-160,16296,-2236,-25,-37,-6
3599.469,308,-160,16296,-2236,-25,-37,-6
3599.469,308,-192,16368,-2208,-49,-35,-22
3599.469,308,-192,16368,-2208,-49,-35,-22
3607.6549999999997,308,-192,16368,-2208,-49,-35,-22
3607.6549999999997,307,-192,16368,-2208,-49,-35,-22
3615.375,308,-192,16368,-2208,-49,-35,-22
3617.165,308,-192,16368,-2208,-49,-35,-22
3618.2949999999996,308,-192,16368,-2208,-49,-35,-22
3623.477,308,-232,16332,-2160,-40,-49,-7
3623.477,307,-232,16332,-2160,-40,-49,-7
3630.0099999999998,308,-232,16332,-2160,-40,-49,-7
3631.823,308,-232,16332,-2160,-40,-49,-7
3631.823,308,-232,16332,-2160,-40,-49,-7
3631.823,308,-232,16332,-2160,-40,-49,-7
3641.768,308,-232,16332,-2160,-40,-49,-7
3641.768,308,-152,16352,-2256,-15,-40,-8
3641.768,307,-152,16352,-2256,-15,-40,-8
3648.572,308,-152,16352,-2256,-15,-40,-8
3650.583,308,-152,16352,-2256,-15,-40,-8
3654.809,308,-152,16352,-2256,-15,-40,-8
3658.831,308,-152,16352,-2256,-15,-40,-8
3661.834,308,-152,16352,-2256,-15,-40,-8
3663.851,308,-184,16312,-2216,-52,-46,-14
3664.8619999999996,307,-184,16312,-2216,-52,-46,-14
3664.8619999999996,307,-184,16312,-2216,-52,-46,-14
3671.42,308,-184,16312,-2216,-52,-46,-14
3673.295,308,-184,16312,-2216,-52,-46,-14
3673.295,308,-184,16312,-2216,-52,-46,-14
3682.652,308,-184,16312,-2216,-52,-46,-14
3683.5589999999997,309,-180,16280,-2204,-15,-28,-22
3685.564,307,-180,16280,-2204,-15,-28,-22
3690.035,307,-180,16280,-2204,-15,-28,-22
3690.035,308,-180,16280,-2204,-15,-28,-22
3690.035,308,-180,16280,-2204,-15,-28,-22
3699.002,307,-180,16280,-2204,-15,-28,-22
3703.253,308,-180,16280,-2204,-15,-28,-22
3703.253,308,-180,16380,-2312,-47,-48,-27
3705.739,307,-180,16380,-2312,-47,-48,-27
3705.739,307,-180,16380,-2312,-47,-48,-27
3705.739,307,-180,16380,-2312,-47,-48,-27
3714.7839999999997,308,-180,16380,-2312,-47,-48,-27
3714.7839999999997,308,-180,16380,-2312,-47,-48,-27
3723.912,309,-204,16356,-2260,-45,-39,-5
3724.4860000000003,308,-204,16356,-2260,-45,-39,-5
3724.4860000000003,307,-204,16356,-2260,-45,-39,-5
3730.052,307,-204,16356,-2260,-45,-39,-5
3730.052,307,-204,16356,-2260,-45,-39,-5
3730.052,308,-204,16356,-2260,-45,-39,-5
3740.287,308,-204,16356,-2260,-45,-39,-5
3740.287,308,-168,16352,-2188,-27,-42,8
3740.287,307,-168,16352,-2188,-27,-42,8
3748.416,308,-168,16352,-2188,-27,-42,8
3748.416,307,-168,16352,-2188,-27,-42,8
3748.416,307,-168,16352,-2188,-27,-42,8
3754.5009999999997,307,-168,16352,-2188,-27,-42,8
3754.5009999999997,308,-168,16352,-2188,-27,-42,8
3754.5009999999997,308,-168,16352,-2188,-27,-42,8
3762.615,308,-212,16360,-2220,-22,-20,-8
3762.615,308,-212,16360,-2220,-22,-20,-8
3762.615,307,-212,16360,-2220,-22,-20,-8
3773.0860000000002,307,-212,16360,-2220,-22,-20,-8
3777.0,308,-212,16360,-2220,-22,-20,-8
3777.0,309,-212,16360,-2220,-22,-20,-8
3779.831,309,-212,16360,-2220,-22,-20,-8
3781.934,308,-212,16392,-2232,-51,-28,0
3781.934,308,-212,16392,-2232,-51,-28,0
3788.322,307,-212,16392,-2232,-51,-28,0
3788.322,308,-212,16392,-2232,-51,-28,0
3788.322,308,-212,16392,-2232,-51,-28,0
3796.0389999999998,308,-212,16392,-2232,-51,-28,0
3796.0389999999998,308,-212,16392,-2232,-51,-28,0
3796.0389999999998,308,-176,16360,-2224,-13,-27,-6
3805.901,308,-176,16360,-2224,-13,-27,-6
3809.911,307,-176,16360,-2224,-13,-27,-6
3809.911,308,-176,16360,-2224,-13,-27,-6
3811.919,308,-176,16360,-2224,-13,-27,-6
3811.919,308,-176,16360,-2224,-13,-27,-6
3822.279,309,-176,16360,-2224,-13,-27,-6
3822.867,308,-212,16288,-2240,-63,-31,-12
3822.867,308,-212,16288,-2240,-63,-31,-12
3829.815,308,-212,16288,-2240,-63,-31,-12
3829.815,308,-212,16288,-2240,-63,-31,-12
3829.815,308,-212,16288,-2240,-63,-31,-12
3837.176,308,-212,16288,-2240,-63,-31,-12
3837.176,308,-212,16288,-2240,-63,-31,-12
3837.176,308,-200,16340,-2228,-31,-41,4
3846.451,308,-200,16340,-2228,-31,-41,4
3846.451,307,-200,16340,-2228,-31,-41,4
3846.451,308,-200,16340,-2228,-31,-41,4
3855.011,307,-200,16340,-2228,-31,-41,4
3859.025,309,-200,16340,-2228,-31,-41,4
3859.025,308,-200,16340,-2228,-31,-41,4
3863.866,308,-228,16428,-2256,4,-18,-22
3863.866,308,-228,16428,-2256,4,-18,-22
3863.866,308,-228,16428,-2256,4,-18,-22
3871.394,307,-228,16428,-2256,4,-18,-22
3872.271,308,-228,16428,-2256,4,-18,-22
3872.271,308,-228,16428,-2256,4,-18,-22
3879.179,308,-228,16428,-2256,4,-18,-22
3881.1969999999997,308,-228,16428,-2256,4,-18,-22
3881.1969999999997,308,-228,16296,-2260,-79,-26,-20
3885.444,307,-228,16296,-2260,-79,-26,-20
3885.444,307,-228,16296,-2260,-79,-26,-20
3893.515,308,-228,16296,-2260,-79,-26,-20
3893.515,307,-228,16296,-2260,-79,-26,-20
3893.515,308,-228,16296,-2260,-79,-26,-20
3903.99,308,-212,16248,-2212,-41,-32,9
3903.99,307,-212,16248,-2212,-41,-32,9
3903.99,308,-212,16248,-2212,-41,-32,9
3910.189,308,-212,16248,-2212,-41,-32,9
3914.659,307,-212,16248,-2212,-41,-32,9
3914.659,307,-212,16248,-2212,-41,-32,9
3918.049,307,-212,16248,-2212,-41,-32,9
3918.049,308,-212,16248,-2212,-41,-32,9
3918.049,308,-192,16416,-2240,23,-32,-13
3929.9230000000002,307,-192,16416,-2240,23,-32,-13
3930.237,307,-192,16416,-2240,23,-32,-13
3932.166,307,-192,16416,-2240,23,-32,-13
3936.716,308,-192,16416,-2240,23,-32,-13
3936.716,308,-192,16416,-2240,23,-32,-13
3938.635,308,-192,16416,-2240,23,-32,-13
3944.94,308,-192,16352,-2252,-57,-30,7
3946.8610000000003,307,-192,16352,-2252,-57,-30,7
3946.8610000000003,308,-192,16352,-2252,-57,-30,7
3951.994,307,-192,16352,-2252,-57,-30,7
3955.937,308,-192,16352,-2252,-57,-30,7
3955.937,308,-192,16352,-2252,-57,-30,7
3960.5480000000002,308,-192,16352,-2252,-57,-30,7
3963.4809999999998,308,-196,16300,-2264,-58,-51,3
3963.4809999999998,308,-196,16300,-2264,-58,-51,3
3967.196,307,-196,16300,-2264,-58,-51,3
3967.196,307,-196,16300,-2264,-58,-51,3
3967.196,308,-196,16300,-2264,-58,-51,3
3975.4700000000003,307,-196,16300,-2264,-58,-51,3
3979.018,308,-196,16300,-2264,-58,-51,3
3983.603,308,-164,16348,-2192,-29,-34,-12
3983.603,307,-164,16348,-2192,-29,-34,-12
3983.603,307,-164,16348,-2192,-29,-34,-12
3983.603,307,-164,16348,-2192,-29,-34,-12
3991.669,307,-164,16348,-2192,-29,-34,-12
3997.6980000000003,307,-164,16348,-2192,-29,-34,-12
4002.267,308,-164,16348,-2192,-29,-34,-12
4002.267,308,-188,16340,-2212,-25,-40,-11
4004.0269999999996,308,-188,16340,-2212,-25,-40,-11
4008.0119999999997,307,-188,16340,-2212,-25,-40,-11
4008.0119999999997,307,-188,16340,-2212,-25,-40,-11
4014.4710000000005,308,-188,16340,-2212,-25,-40,-11
4016.139,308,-188,16340,-2212,-25,-40,-11
4016.139,308,-188,16340,-2212,-25,-40,-11
4016.139,308,-192,16344,-2268,-72,-43,-12
4026.8370000000004,307,-192,16344,-2268,-72,-43,-12
4030.258,308,-192,16344,-2268,-72,-43,-12
4032.627,308,-192,16344,-2268,-72,-43,-12
4035.1600000000003,308,-192,16344,-2268,-72,-43,-12
4035.1600000000003,308,-192,16344,-2268,-72,-43,-12
4042.4170000000004,308,-192,16344,-2268,-72,-43,-12
4042.4170000000004,308,-180,16348,-2240,-40,-24,1
4045.9959999999996,307,-180,16348,-2240,-40,-24,1
4049.383,307,-180,16348,-2240,-40,-24,1
4049.383,307,-180,16348,-2240,-40,-24,1
4049.383,307,-180,16348,-2240,-40,-24,1
4059.774,308,-180,16348,-2240,-40,-24,1
4059.774,308,-180,16348,-2240,-40,-24,1
4059.774,308,-160,16276,-2260,-5,-22,-7
4065.0199999999995,307,-160,16276,-2260,-5,-22,-7
4065.0199999999995,307,-160,16276,-2260,-5,-22,-7
4065.0199999999995,307,-160,16276,-2260,-5,-22,-7
4073.3240000000005,308,-160,16276,-2260,-5,-22,-7
4073.3240000000005,307,-160,16276,-2260,-5,-22,-7
4073.3240000000005,308,-160,16276,-2260,-5,-22,-7
4084.333,308,-236,16412,-2236,-19,-64,-11
4084.804,308,-236,16412,-2236,-19,-64,-11
4084.804,308,-236,16412,-2236,-19,-64,-11
4089.927,307,-236,16412,-2236,-19,-64,-11
4096.821,307,-236,16412,-2236,-19,-64,-11
4098.380999999999,307,-236,16412,-2236,-19,-64,-11
4098.380999999999,309,-236,16412,-2236,-19,-64,-11
4098.380999999999,307,-204,16360,-2260,-47,-46,-13
4098.380999999999,307,-204,16360,-2260,-47,-46,-13
4108.679,307,-204,16360,-2260,-47,-46,-13
4110.685,307,-204,16360,-2260,-47,-46,-13
4116.542,307,-204,16360,-2260,-47,-46,-13
4117.2789999999995,308,-204,16360,-2260,-47,-46,-13
4118.299,308,-204,16360,-2260,-47,-46,-13
4122.871,308,-200,16388,-2252,-34,-26,-14
4122.871,307,-200,16388,-2252,-34,-26,-14
4130.254,307,-200,16388,-2252,-34,-26,-14
4131.2660000000005,308,-200,16388,-2252,-34,-26,-14
4131.2660000000005,307,-200,16388,-2252,-34,-26,-14
4131.2660000000005,308,-200,16388,-2252,-34,-26,-14
4141.733,308,-200,16388,-2252,-34,-26,-14
4142.624,308,-184,16320,-2280,-22,-43,-18
4147.776000000001,308,-184,16320,-2280,-22,-43,-18
4148.805,307,-184,16320,-2280,-22,-43,-18
4148.805,307,-184,16320,-2280,-22,-43,-18
4155.929,308,-184,16320,-2280,-22,-43,-18
4155.929,308,-184,16320,-2280,-22,-43,-18
4163.877,308,-184,16320,-2280,-22,-43,-18
4163.877,307,-204,16336,-2240,-28,-24,-1
4163.877,307,-204,16336,-2240,-28,-24,-1
4163.877,307,-204,16336,-2240,-28,-24,-1
4174.53,308,-204,16336,-2240,-28,-24,-1
4175.296,307,-204,16336,-2240,-28,-24,-1
4175.296,308,-204,16336,-2240,-28,-24,-1
4180.6140000000005,308,-204,16336,-2240,-28,-24,-1
4180.6140000000005,308,-216,16392,-2208,-44,-45,-12
4180.6140000000005,307,-216,16392,-2208,-44,-45,-12
4190.704000000001,307,-216,16392,-2208,-44,-45,-12
4190.704000000001,307,-216,16392,-2208,-44,-45,-12
4196.431,307,-216,16392,-2208,-44,-45,-12
4199.167,307,-216,16392,-2208,-44,-45,-12
4202.958,307,-216,16392,-2208,-44,-45,-12
4207.072,307,-224,16356,-2232,-24,-39,-26
4207.072,308,-224,16356,-2232,-24,-39,-26
4207.072,307,-224,16356,-2232,-24,-39,-26
4213.206999999999,307,-224,16356,-2232,-24,-39,-26
4213.206999999999,306,-224,16356,-2232,-24,-39,-26
4213.206999999999,306,-224,16356,-2232,-24,-39,-26
4221.245,306,-224,16356,-2232,-24,-39,-26
4221.245,305,-204,16368,-2236,-73,-39,-14
4230.425,305,-204,16368,-2236,-73,-39,-14
4232.612999999999,305,-204,16368,-2236,-73,-39,-14
4235.857,305,-204,16368,-2236,-73,-39,-14
4237.602,305,-204,16368,-2236,-73,-39,-14
4239.615,304,-204,16368,-2236,-73,-39,-14
4243.634,301,-224,16400,-2260,-39,-27,-13
4247.658,297,-224,16400,-2260,-39,-27,-13
4247.658,297,-224,16400,-2260,-39,-27,-13
4251.677,297,-224,16400,-2260,-39,-27,-13
4256.174,298,-224,16400,-2260,-39,-27,-13
4256.174,300,-224,16400,-2260,-39,-27,-13
4260.187,299,-224,16400,-2260,-39,-27,-13
4264.7029999999995,300,-184,16312,-2272,15,-48,-4
4266.711,297,-184,16312,-2272,15,-48,-4
4268.717,296,-184,16312,-2272,15,-48,-4
4270.848,297,-184,16312,-2272,15,-48,-4
4274.859,297,-184,16312,-2272,15,-48,-4
4274.859,297,-184,16312,-2272,15,-48,-4
4279.461,296,-184,16312,-2272,15,-48,-4
4283.296,296,-184,16312,-2272,15,-48,-4
4285.304,295,-192,16348,-2236,-46,-40,-16
4287.064,294,-192,16348,-2236,-46,-40,-16
4287.064,293,-192,16348,-2236,-46,-40,-16
4287.064,292,-192,16348,-2236,-46,-40,-16
4296.282999999999,290,-192,16348,-2236,-46,-40,-16
4296.282999999999,288,-192,16348,-2236,-46,-40,-16
4304.876,289,-200,16344,-2236,-40,-55,-9
4304.876,289,-200,16344,-2236,-40,-55,-9
4304.876,290,-200,16344,-2236,-40,-55,-9
4313.269,289,-200,16344,-2236,-40,-55,-9
4313.269,288,-200,16344,-2236,-40,-55,-9
4313.269,289,-200,16344,-2236,-40,-55,-9
4320.849,289,-200,16344,-2236,-40,-55,-9
4320.849,289,-208,16348,-2220,-19,-50,-23
4320.849,290,-208,16348,-2220,-19,-50,-23
4330.56,290,-208,16348,-2220,-19,-50,-23
4333.695,292,-208,16348,-2220,-19,-50,-23
4333.695,295,-208,16348,-2220,-19,-50,-23
4338.273,296,-208,16348,-2220,-19,-50,-23
4338.273,296,-208,16348,-2220,-19,-50,-23
4344.442,294,-224,16368,-2232,-39,-37,1
4346.732,294,-224,16368,-2232,-39,-37,1
4346.732,293,-224,16368,-2232,-39,-37,1
4346.732,294,-224,16368,-2232,-39,-37,1
4354.513,296,-224,16368,-2232,-39,-37,1
4354.513,296,-224,16368,-2232,-39,-37,1
4360.865000000001,298,-224,16368,-2232,-39,-37,1
4360.865000000001,299,-224,16368,-2232,-39,-37,1
4360.865000000001,300,-188,16364,-2248,-67,-39,-13
4368.8820000000005,298,-188,16364,-2248,-67,-39,-13
4368.8820000000005,298,-188,16364,-2248,-67,-39,-13
4368.8820000000005,299,-188,16364,-2248,-67,-39,-13
4376.943,300,-188,16364,-2248,-67,-39,-13
4376.943,301,-188,16364,-2248,-67,-39,-13
4376.943,302,-212,16332,-2244,-15,-25,2
4387.454,299,-212,16332,-2244,-15,-25,2
4388.177,297,-212,16332,-2244,-15,-25,2
4388.177,298,-212,16332,-2244,-15,-25,2
4396.153,298,-212,16332,-2244,-15,-25,2
4397.304,300,-212,16332,-2244,-15,-25,2
4397.304,300,-212,16332,-2244,-15,-25,2
4403.353,301,-212,16332,-2244,-15,-25,2
4403.353,301,-248,16344,-2300,-37,-46,-14
4403.353,302,-248,16344,-2300,-37,-46,-14
4409.789,303,-248,16344,-2300,-37,-46,-14
4409.789,302,-248,16344,-2300,-37,-46,-14
4417.848,303,-248,16344,-2300,-37,-46,-14
4417.848,304,-248,16344,-2300,-37,-46,-14
4417.848,304,-248,16344,-2300,-37,-46,-14
4426.365,304,-212,16360,-2224,-32,-29,-7
4426.365,302,-212,16360,-2224,-32,-29,-7
4430.755,303,-212,16360,-2224,-32,-29,-7
4436.624,303,-212,16360,-2224,-32,-29,-7
4437.205,305,-212,16360,-2224,-32,-29,-7
4437.205,304,-212,16360,-2224,-32,-29,-7
4444.652999999999,304,-212,16360,-2224,-32,-29,-7
4445.746,305,-240,16344,-2268,-48,-28,-2
4445.746,305,-240,16344,-2268,-48,-28,-2
4452.817999999999,305,-240,16344,-2268,-48,-28,-2
4452.817999999999,306,-240,16344,-2268,-48,-28,-2
4452.817999999999,306,-240,16344,-2268,-48,-28,-2
4458.997,307,-240,16344,-2268,-48,-28,-2
4463.84,306,-240,16344,-2268,-48,-28,-2
4463.84,306,-220,16272,-2232,-29,-34,6
4468.334,306,-220,16272,-2232,-29,-34,6
4468.334,306,-220,16272,-2232,-29,-34,6
4474.05,306,-220,16272,-2232,-29,-34,6
4476.8150000000005,306,-220,16272,-2232,-29,-34,6
4480.34,305,-220,16272,-2232,-29,-34,6
4480.34,304,-220,16272,-2232,-29,-34,6
4483.33,302,-152,16388,-2212,-23,-39,-8
4483.33,302,-152,16388,-2212,-23,-39,-8
4483.33,303,-152,16388,-2212,-23,-39,-8
4493.76,303,-152,16388,-2212,-23,-39,-8
4494.927,304,-152,16388,-2212,-23,-39,-8
4499.926,304,-152,16388,-2212,-23,-39,-8
4502.16,304,-152,16388,-2212,-23,-39,-8
4502.16,305,-188,16368,-2224,-10,-41,-8
4502.16,305,-188,16368,-2224,-10,-41,-8
4508.376,306,-188,16368,-2224,-10,-41,-8
4513.486000000001,305,-188,16368,-2224,-10,-41,-8
4516.781,306,-188,16368,-2224,-10,-41,-8
4516.781,307,-188,16368,-2224,-10,-41,-8
4516.781,307,-188,16368,-2224,-10,-41,-8
4525.068,307,-204,16364,-2264,-40,-35,-15
4525.068,307,-204,16364,-2264,-40,-35,-15
4530.837,307,-204,16364,-2264,-40,-35,-15
4533.2429999999995,307,-204,16364,-2264,-40,-35,-15
4533.2429999999995,307,-204,16364,-2264,-40,-35,-15
4533.2429999999995,308,-204,16364,-2264,-40,-35,-15
4541.8060000000005,308,-204,16364,-2264,-40,-35,-15
4547.039,308,-188,16312,-2248,-54,-27,-15
4549.946,307,-188,16312,-2248,-54,-27,-15
4549.946,307,-188,16312,-2248,-54,-27,-15
4549.946,307,-188,16312,-2248,-54,-27,-15
4549.946,307,-188,16312,-2248,-54,-27,-15
4558.1449999999995,308,-188,16312,-2248,-54,-27,-15
4564.233,308,-188,16312,-2248,-54,-27,-15
4567.843,308,-204,16360,-2252,-43,-41,-9
4567.843,307,-204,16360,-2252,-43,-41,-9
4567.843,306,-204,16360,-2252,-43,-41,-9
4574.906999999999,306,-204,16360,-2252,-43,-41,-9
4574.906999999999,306,-204,16360,-2252,-43,-41,-9
4580.572,305,-204,16360,-2252,-43,-41,-9
4583.983,303,-204,16360,-2252,-43,-41,-9
4584.5960000000005,301,-180,16376,-2240,-20,-31,-19
4588.022,303,-180,16376,-2240,-20,-31,-19
4591.932,304,-180,16376,-2240,-20,-31,-19
4593.183,305,-180,16376,-2240,-20,-31,-19
4597.985000000001,307,-180,16376,-2240,-20,-31,-19
4600.0019999999995,308,-180,16376,-2240,-20,-31,-19
4601.482,308,-180,16376,-2240,-20,-31,-19
4601.482,308,-224,16316,-2228,-44,-36,-13
4608.1320000000005,307,-224,16316,-2228,-44,-36,-13
4608.1320000000005,307,-224,16316,-2228,-44,-36,-13
4616.605,308,-224,16316,-2228,-44,-36,-13
4618.628000000001,308,-224,16316,-2228,-44,-36,-13
4620.641,308,-224,16316,-2228,-44,-36,-13
4624.673,309,-224,16316,-2228,-44,-36,-13
4626.69,308,-232,16312,-2208,-25,-41,-21
4629.210999999999,309,-232,16312,-2208,-25,-41,-21
4632.794,309,-232,16312,-2208,-25,-41,-21
4636.829,309,-232,16312,-2208,-25,-41,-21
4638.201999999999,309,-232,16312,-2208,-25,-41,-21
4640.728,310,-232,16312,-2208,-25,-41,-21
4644.762,309,-204,16324,-2212,-2,-31,-24
4646.779,309,-204,16324,-2212,-2,-31,-24
4648.796,309,-204,16324,-2212,-2,-31,-24
4652.825,308,-204,16324,-2212,-2,-31,-24
4654.838,308,-204,16324,-2212,-2,-31,-24
4658.254999999999,308,-204,16324,-2212,-2,-31,-24
4661.495000000001,309,-204,16324,-2212,-2,-31,-24
4664.945000000001,309,-204,16324,-2212,-2,-31,-24
4666.956,308,-116,16356,-2252,-41,-25,-4
4668.965,309,-116,16356,-2252,-41,-25,-4
4672.9839999999995,308,-116,16356,-2252,-41,-25,-4
4674.994,309,-116,16356,-2252,-41,-25,-4
4677.004,310,-116,16356,-2252,-41,-25,-4
4681.025,310,-116,16356,-2252,-41,-25,-4
4683.035,311,-116,16356,-2252,-41,-25,-4
4686.192,310,-240,16348,-2232,-41,-25,2
4689.208,309,-240,16348,-2232,-41,-25,2
4691.215,310,-240,16348,-2232,-41,-25,2
4693.222,310,-240,16348,-2232,-41,-25,2
4697.745,308,-240,16348,-2232,-41,-25,2
4699.754000000001,309,-240,16348,-2232,-41,-25,2
4702.916,310,-240,16348,-2232,-41,-25,2
4706.767,310,-220,16300,-2220,-32,-26,-9
4710.78,310,-220,16300,-2220,-32,-26,-9
4710.78,311,-220,16300,-2220,-32,-26,-9
4714.668,310,-220,16300,-2220,-32,-26,-9
4718.688,311,-220,16300,-2220,-32,-26,-9
4718.688,312,-220,16300,-2220,-32,-26,-9
4722.705999999999,312,-220,16300,-2220,-32,-26,-9
4724.782,312,-212,16356,-2248,-25,-43,-32
4724.782,312,-212,16356,-2248,-25,-43,-32
4731.056,311,-212,16356,-2248,-25,-43,-32
4731.056,312,-212,16356,-2248,-25,-43,-32
4739.497,312,-212,16356,-2248,-25,-43,-32
4739.497,311,-212,16356,-2248,-25,-43,-32
4739.497,312,-212,16356,-2248,-25,-43,-32
4747.178,310,-196,16276,-2232,-50,-19,-18
4749.189,310,-196,16276,-2232,-50,-19,-18
4751.197999999999,308,-196,16276,-2232,-50,-19,-18
4755.221,310,-196,16276,-2232,-50,-19,-18
4755.221,311,-196,16276,-2232,-50,-19,-18
4755.221,311,-196,16276,-2232,-50,-19,-18
4765.8240000000005,312,-196,16276,-2232,-50,-19,-18
4767.9400000000005,311,-216,16320,-2268,-39,-23,1
4767.9400000000005,311,-216,16320,-2268,-39,-23,1
4771.879,311,-216,16320,-2268,-39,-23,1
4771.879,310,-216,16320,-2268,-39,-23,1
4771.879,311,-216,16320,-2268,-39,-23,1
4780.638,311,-216,16320,-2268,-39,-23,1
4780.638,312,-216,16320,-2268,-39,-23,1
4780.638,312,-248,16344,-2260,-1,-52,-12
4788.181,311,-248,16344,-2260,-1,-52,-12
4788.181,312,-248,16344,-2260,-1,-52,-12
4788.181,312,-248,16344,-2260,-1,-52,-12
4796.923,311,-248,16344,-2260,-1,-52,-12
4796.923,311,-248,16344,-2260,-1,-52,-12
4804.611000000001,311,-248,16344,-2260,-1,-52,-12
4804.611000000001,311,-184,16308,-2248,-67,-39,-11
4804.611000000001,311,-184,16308,-2248,-67,-39,-11
4812.804,311,-184,16308,-2248,-67,-39,-11
4814.822,311,-184,16308,-2248,-67,-39,-11
4814.822,311,-184,16308,-2248,-67,-39,-11
4820.881,310,-184,16308,-2248,-67,-39,-11
4820.881,309,-184,16308,-2248,-67,-39,-11
4820.881,309,-164,16328,-2184,-35,-29,8
4830.063,310,-164,16328,-2184,-35,-29,8
4831.157,310,-164,16328,-2184,-35,-29,8
4831.157,310,-164,16328,-2184,-35,-29,8
4838.033,311,-164,16328,-2184,-35,-29,8
4839.007,311,-164,16328,-2184,-35,-29,8
4839.007,312,-164,16328,-2184,-35,-29,8
4847.234,311,-180,16348,-2236,0,-49,-16
4847.8640000000005,310,-180,16348,-2236,0,-49,-16
4852.000999999999,309,-180,16348,-2236,0,-49,-16
4853.665,310,-180,16348,-2236,0,-49,-16
4853.665,310,-180,16348,-2236,0,-49,-16
4853.665,311,-180,16348,-2236,0,-49,-16
4861.957,310,-180,16348,-2236,0,-49,-16
4865.021,310,-240,16376,-2236,-54,-31,-12
4865.021,311,-240,16376,-2236,-54,-31,-12
4869.7,310,-240,16376,-2236,-54,-31,-12
4869.7,311,-240,16376,-2236,-54,-31,-12
4878.072999999999,311,-240,16376,-2236,-54,-31,-12
4880.204,312,-240,16376,-2236,-54,-31,-12
4880.204,312,-240,16376,-2236,-54,-31,-12
4887.0560000000005,313,-232,16296,-2264,-57,-27,-11
4887.7,312,-232,16296,-2264,-57,-27,-11
4887.7,312,-232,16296,-2264,-57,-27,-11
4894.688999999999,311,-232,16296,-2264,-57,-27,-11
4894.688999999999,312,-232,16296,-2264,-57,-27,-11
4894.688999999999,312,-232,16296,-2264,-57,-27,-11
4902.8460000000005,311,-232,16296,-2264,-57,-27,-11
4902.8460000000005,312,-240,16388,-2280,0,-33,-6
4902.8460000000005,310,-240,16388,-2280,0,-33,-6
4911.397,308,-240,16388,-2280,0,-33,-6
4913.858,309,-240,16388,-2280,0,-33,-6
4913.858,309,-240,16388,-2280,0,-33,-6
4919.599,309,-240,16388,-2280,0,-33,-6
4919.599,311,-240,16388,-2280,0,-33,-6
4919.599,309,-224,16328,-2244,-27,-22,-11
4927.957,309,-224,16328,-2244,-27,-22,-11
4931.137,308,-224,16328,-2244,-27,-22,-11
4931.137,310,-224,16328,-2244,-27,-22,-11
4936.153,310,-224,16328,-2244,-27,-22,-11
4937.472,310,-224,16328,-2244,-27,-22,-11
4943.093,311,-224,16328,-2244,-27,-22,-11
4944.61,311,-168,16336,-2276,-73,-38,-16
4948.143,311,-168,16336,-2276,-73,-38,-16
4953.043,311,-168,16336,-2276,-73,-38,-16
4953.043,311,-168,16336,-2276,-73,-38,-16
4955.059,312,-168,16336,-2276,-73,-38,-16
4961.162,312,-168,16336,-2276,-73,-38,-16
4961.162,311,-168,16336,-2276,-73,-38,-16
4967.4310000000005,311,-216,16360,-2204,-4,-52,-3
4969.17,311,-216,16360,-2204,-4,-52,-3
4969.17,311,-216,16360,-2204,-4,-52,-3
4969.17,311,-216,16360,-2204,-4,-52,-3
4978.0740000000005,312,-216,16360,-2204,-4,-52,-3
4981.185,312,-216,16360,-2204,-4,-52,-3
4983.197999999999,311,-216,16360,-2204,-4,-52,-3
4985.959,311,-192,16368,-2256,8,-35,-25
4986.909,311,-192,16368,-2256,8,-35,-25
4990.58,311,-192,16368,-2256,8,-35,-25
4994.057,309,-192,16368,-2256,8,-35,-25
4997.325,309,-192,16368,-2256,8,-35,-25
4997.325,310,-192,16368,-2256,8,-35,-25
5001.013999999999,310,-192,16368,-2256,8,-35,-25
5002.531,311,-192,16368,-2256,8,-35,-25
5002.531,311,-200,16332,-2264,-111,-51,-24
5010.677000000001,311,-200,16332,-2264,-111,-51,-24
5014.084000000001,310,-200,16332,-2264,-111,-51,-24
5014.084000000001,311,-200,16332,-2264,-111,-51,-24
5019.107,309,-200,16332,-2264,-111,-51,-24
5019.107,309,-200,16332,-2264,-111,-51,-24
5019.107,310,-220,16388,-2200,-19,-38,7
5027.326,309,-220,16388,-2200,-19,-38,7
5031.17,309,-220,16388,-2200,-19,-38,7
5034.608,309,-220,16388,-2200,-19,-38,7
5035.704,309,-220,16388,-2200,-19,-38,7
5035.704,311,-220,16388,-2200,-19,-38,7
5035.704,311,-220,16388,-2200,-19,-38,7
5043.824,310,-220,16388,-2200,-19,-38,7
5043.824,311,-232,16328,-2272,3,-32,-7
5048.094,311,-232,16328,-2272,3,-32,-7
5051.852,310,-232,16328,-2272,3,-32,-7
5051.852,311,-232,16328,-2272,3,-32,-7
5051.852,310,-232,16328,-2272,3,-32,-7
5059.924,309,-232,16328,-2272,3,-32,-7
5059.924,309,-232,16328,-2272,3,-32,-7
5059.924,309,-208,16384,-2288,-88,-51,-26
5068.168,308,-208,16384,-2288,-88,-51,-26
5071.309,309,-208,16384,-2288,-88,-51,-26
5071.309,309,-208,16384,-2288,-88,-51,-26
5076.301,311,-208,16384,-2288,-88,-51,-26
5076.301,311,-208,16384,-2288,-88,-51,-26
5076.301,310,-208,16384,-2288,-88,-51,-26
5087.686,310,-164,16368,-2192,-36,-25,14
5087.686,310,-164,16368,-2192,-36,-25,14
5087.686,310,-164,16368,-2192,-36,-25,14
5095.581,309,-164,16368,-2192,-36,-25,14
5097.344,310,-164,16368,-2192,-36,-25,14
5097.344,309,-164,16368,-2192,-36,-25,14
5102.071,310,-164,16368,-2192,-36,-25,14
5102.071,310,-216,16392,-2272,12,-35,-22
5102.071,311,-216,16392,-2272,12,-35,-22
5109.648,309,-216,16392,-2272,12,-35,-22
5113.932,310,-216,16392,-2272,12,-35,-22
5113.932,311,-216,16392,-2272,12,-35,-22
5117.701,311,-216,16392,-2272,12,-35,-22
5124.119000000001,311,-216,16392,-2272,12,-35,-22
5124.119000000001,311,-196,16348,-2220,-59,-18,-9
5129.306,308,-196,16348,-2220,-59,-18,-9
5131.491999999999,307,-196,16348,-2220,-59,-18,-9
5133.21,308,-196,16348,-2220,-59,-18,-9
5136.664,308,-196,16348,-2220,-59,-18,-9
5136.664,309,-196,16348,-2220,-59,-18,-9
5145.021,309,-196,16348,-2220,-59,-18,-9
5145.021,310,-184,16340,-2260,-72,-34,-21
5145.021,309,-184,16340,-2260,-72,-34,-21
5150.14,310,-184,16340,-2260,-72,-34,-21
5150.14,310,-184,16340,-2260,-72,-34,-21
5150.14,310,-184,16340,-2260,-72,-34,-21
5158.33,310,-184,16340,-2260,-72,-34,-21
5163.417,310,-184,16340,-2260,-72,-34,-21
5166.549,310,-212,16352,-2244,-10,-27,-20
5169.603,309,-212,16352,-2244,-10,-27,-20
5173.880999999999,310,-212,16352,-2244,-10,-27,-20
5174.45,310,-212,16352,-2244,-10,-27,-20
5174.45,310,-212,16352,-2244,-10,-27,-20
5182.527,310,-212,16352,-2244,-10,-27,-20
5182.527,309,-212,16352,-2244,-10,-27,-20
5182.527,309,-188,16348,-2272,-19,-34,-15
5188.71,309,-188,16348,-2272,-19,-34,-15
5193.852,310,-188,16348,-2272,-19,-34,-15
5193.852,310,-188,16348,-2272,-19,-34,-15
5198.929999999999,310,-188,16348,-2272,-19,-34,-15
5202.384999999999,310,-188,16348,-2272,-19,-34,-15
5202.384999999999,309,-188,16348,-2272,-19,-34,-15
5207.435,310,-172,16316,-2228,-88,-29,-11
5207.435,309,-172,16316,-2228,-88,-29,-11
5215.455999999999,309,-172,16316,-2228,-88,-29,-11
5216.291,310,-172,16316,-2228,-88,-29,-11
5218.943,310,-172,16316,-2228,-88,-29,-11
5218.943,311,-172,16316,-2228,-88,-29,-11
5227.116,310,-172,16316,-2228,-88,-29,-11
5227.116,309,-216,16380,-2212,-13,-30,-13
5229.929,310,-216,16380,-2212,-13,-30,-13
5231.982999999999,310,-216,16380,-2212,-13,-30,-13
5231.982999999999,310,-216,16380,-2212,-13,-30,-13
5231.982999999999,310,-216,16380,-2212,-13,-30,-13
5242.607,310,-216,16380,-2212,-13,-30,-13
5242.607,310,-220,16356,-2256,7,-40,-19
5248.927,310,-220,16356,-2256,7,-40,-19
5248.927,309,-220,16356,-2256,7,-40,-19
5248.927,310,-220,16356,-2256,7,-40,-19
5257.289,309,-220,16356,-2256,7,-40,-19
5257.289,310,-220,16356,-2256,7,-40,-19
5264.536,310,-220,16356,-2256,7,-40,-19
5265.621999999999,310,-220,16356,-2256,7,-40,-19
5265.621999999999,310,-164,16348,-2272,-80,-39,-12
5265.621999999999,309,-164,16348,-2272,-80,-39,-12
5265.621999999999,310,-164,16348,-2272,-80,-39,-12
5274.058,309,-164,16348,-2272,-80,-39,-12
5274.058,310,-164,16348,-2272,-80,-39,-12
5282.457,309,-164,16348,-2272,-80,-39,-12
5282.457,310,-164,16348,-2272,-80,-39,-12
5282.457,310,-216,16356,-2224,-36,-28,-26
5292.648,308,-216,16356,-2224,-36,-28,-26
5292.648,310,-216,16356,-2224,-36,-28,-26
5296.199,309,-216,16356,-2224,-36,-28,-26
5300.723,310,-216,16356,-2224,-36,-28,-26
5300.723,311,-216,16356,-2224,-36,-28,-26
5300.723,310,-248,16320,-2204,-4,-28,-1
5308.872,309,-248,16320,-2204,-4,-28,-1
5308.872,309,-248,16320,-2204,-4,-28,-1
5315.027,308,-248,16320,-2204,-4,-28,-1
5316.33,308,-248,16320,-2204,-4,-28,-1
5319.892000000001,309,-248,16320,-2204,-4,-28,-1
5321.804,309,-248,16320,-2204,-4,-28,-1
5323.423,308,-248,16320,-2204,-4,-28,-1
5328.454,308,-200,16316,-2224,-71,-29,-5
5330.474,307,-200,16316,-2224,-71,-29,-5
5331.986,308,-200,16316,-2224,-71,-29,-5
5331.986,309,-200,16316,-2224,-71,-29,-5
5331.986,309,-200,16316,-2224,-71,-29,-5
5340.623,309,-200,16316,-2224,-71,-29,-5
5340.623,309,-200,16316,-2224,-71,-29,-5
5347.1900000000005,308,-180,16344,-2204,-37,-24,-12
5350.372,308,-180,16344,-2204,-37,-24,-12
5350.372,308,-180,16344,-2204,-37,-24,-12
5356.72,309,-180,16344,-2204,-37,-24,-12
5356.72,309,-180,16344,-2204,-37,-24,-12
5361.241,309,-180,16344,-2204,-37,-24,-12
5364.965,309,-180,16344,-2204,-37,-24,-12
5367.219999999999,309,-244,16368,-2196,9,-20,-11
5367.219999999999,309,-244,16368,-2196,9,-20,-11
5373.255999999999,309,-244,16368,-2196,9,-20,-11
5373.255999999999,309,-244,16368,-2196,9,-20,-11
5375.379,309,-244,16368,-2196,9,-20,-11
5382.328,309,-244,16368,-2196,9,-20,-11
5382.328,309,-244,16368,-2196,9,-20,-11
5386.6990000000005,309,-180,16328,-2308,-71,-46,0
5390.786,308,-180,16328,-2308,-71,-46,0
5390.786,309,-180,16328,-2308,-71,-46,0
5390.786,308,-180,16328,-2308,-71,-46,0
5399.209,309,-180,16328,-2308,-71,-46,0
5400.302,308,-180,16328,-2308,-71,-46,0
5400.302,308,-180,16328,-2308,-71,-46,0
5407.383000000001,308,-180,16384,-2240,-64,-46,-11
5411.336,307,-180,16384,-2240,-64,-46,-11
5412.971,308,-180,16384,-2240,-64,-46,-11
5415.709,309,-180,16384,-2240,-64,-46,-11
5419.473,309,-180,16384,-2240,-64,-46,-11
5419.473,309,-180,16384,-2240,-64,-46,-11
5423.841,307,-180,16384,-2240,-64,-46,-11
5427.659000000001,309,-252,16348,-2252,14,-45,-8
5429.696,308,-252,16348,-2252,14,-45,-8
5432.245,308,-252,16348,-2252,14,-45,-8
5435.870000000001,308,-252,16348,-2252,14,-45,-8
5439.948,309,-252,16348,-2252,14,-45,-8
5439.948,308,-252,16348,-2252,14,-45,-8
5439.948,308,-252,16348,-2252,14,-45,-8
5448.2609999999995,308,-208,16396,-2252,-29,-31,-10
5449.695000000001,308,-208,16396,-2252,-29,-31,-10
5452.598,308,-208,16396,-2252,-29,-31,-10
5456.314,308,-208,16396,-2252,-29,-31,-10
5456.314,308,-208,16396,-2252,-29,-31,-10
5460.326,308,-208,16396,-2252,-29,-31,-10
5464.347,308,-208,16396,-2252,-29,-31,-10
5464.347,308,-212,16336,-2228,-87,-48,-21
5464.347,308,-212,16336,-2228,-87,-48,-21
5472.7119999999995,308,-212,16336,-2228,-87,-48,-21
5476.828,307,-212,16336,-2228,-87,-48,-21
5476.828,308,-212,16336,-2228,-87,-48,-21
5480.728,307,-212,16336,-2228,-87,-48,-21
5484.993,308,-212,16336,-2228,-87,-48,-21
5489.110000000001,308,-224,16336,-2244,-14,-35,-4
5489.110000000001,308,-224,16336,-2244,-14,-35,-4
5489.110000000001,308,-224,16336,-2244,-14,-35,-4
5497.876,308,-224,16336,-2244,-14,-35,-4
5497.876,308,-224,16336,-2244,-14,-35,-4
5501.428,308,-224,16336,-2244,-14,-35,-4
5505.059,308,-224,16336,-2244,-14,-35,-4
5505.059,308,-236,16324,-2212,-39,-23,-20
5509.585,307,-236,16324,-2212,-39,-23,-20
5513.078,308,-236,16324,-2212,-39,-23,-20
5517.762000000001,308,-236,16324,-2212,-39,-23,-20
5517.762000000001,308,-236,16324,-2212,-39,-23,-20
5521.718,308,-236,16324,-2212,-39,-23,-20
5521.718,308,-236,16324,-2212,-39,-23,-20
5521.718,308,-220,16396,-2260,-17,-27,-7
5529.484,308,-220,16396,-2260,-17,-27,-7
5534.034000000001,308,-220,16396,-2260,-17,-27,-7
5537.753000000001,308,-220,16396,-2260,-17,-27,-7
5537.753000000001,308,-220,16396,-2260,-17,-27,-7
5537.753000000001,308,-220,16396,-2260,-17,-27,-7
5546.021,308,-220,16396,-2260,-17,-27,-7
5548.035,308,-248,16304,-2240,-25,-57,-8
5549.387000000001,308,-248,16304,-2240,-25,-57,-8
5554.612,308,-248,16304,-2240,-25,-57,-8
5556.62,308,-248,16304,-2240,-25,-57,-8
5558.7660000000005,308,-248,16304,-2240,-25,-57,-8
5562.960999999999,308,-248,16304,-2240,-25,-57,-8
5564.976,308,-248,16304,-2240,-25,-57,-8
5564.976,308,-196,16276,-2216,-42,-36,6
5571.2970000000005,308,-196,16276,-2216,-42,-36,6
5571.2970000000005,307,-196,16276,-2216,-42,-36,6
5575.088,307,-196,16276,-2216,-42,-36,6
5579.326,308,-196,16276,-2216,-42,-36,6
5581.494000000001,308,-196,16276,-2216,-42,-36,6
5581.494000000001,306,-196,16276,-2216,-42,-36,6
5587.603,307,-232,16372,-2216,-18,-47,-1
5590.529,307,-232,16372,-2216,-18,-47,-1
5590.529,307,-232,16372,-2216,-18,-47,-1
5595.176,307,-232,16372,-2216,-18,-47,-1
5597.192,308,-232,16372,-2216,-18,-47,-1
5597.192,308,-232,16372,-2216,-18,-47,-1
5603.366,308,-232,16372,-2216,-18,-47,-1
5603.366,309,-172,16432,-2240,-39,-42,-29
5603.366,307,-172,16432,-2240,-39,-42,-29
5611.778,307,-172,16432,-2240,-39,-42,-29
5615.8,308,-172,16432,-2240,-39,-42,-29
5620.195,308,-172,16432,-2240,-39,-42,-29
5620.195,308,-172,16432,-2240,-39,-42,-29
5620.195,308,-172,16432,-2240,-39,-42,-29
5628.377,308,-208,16304,-2208,-63,-43,-23
5630.395,307,-208,16304,-2208,-63,-43,-23
5632.407999999999,308,-208,16304,-2208,-63,-43,-23
5636.858,308,-208,16304,-2208,-63,-43,-23
5636.858,307,-208,16304,-2208,-63,-43,-23
5636.858,308,-208,16304,-2208,-63,-43,-23
5636.858,308,-208,16304,-2208,-63,-43,-23
5648.441,307,-188,16332,-2252,-31,-32,6
5649.822999999999,307,-188,16332,-2252,-31,-32,6
5653.351,308,-188,16332,-2252,-31,-32,6
5656.8820000000005,308,-188,16332,-2252,-31,-32,6
5656.8820000000005,308,-188,16332,-2252,-31,-32,6
5660.853999999999,308,-188,16332,-2252,-31,-32,6
5665.495,309,-188,16332,-2252,-31,-32,6
5665.495,308,-216,16400,-2236,-22,-46,-17
5670.207,307,-216,16400,-2236,-22,-46,-17
5670.207,307,-216,16400,-2236,-22,-46,-17
5677.255999999999,308,-216,16400,-2236,-22,-46,-17
5677.869000000001,306,-216,16400,-2236,-22,-46,-17
5677.869000000001,307,-216,16400,-2236,-22,-46,-17
5685.516,306,-216,16400,-2236,-22,-46,-17
5685.516,306,-220,16324,-2248,-50,-44,-9
5685.516,306,-220,16324,-2248,-50,-44,-9
5693.838000000001,307,-220,16324,-2248,-50,-44,-9
5698.1669999999995,306,-220,16324,-2248,-50,-44,-9
5698.1669999999995,307,-220,16324,-2248,-50,-44,-9
5702.012,308,-220,16324,-2248,-50,-44,-9
5703.034,308,-220,16324,-2248,-50,-44,-9
5703.034,308,-184,16396,-2240,-26,-36,-9
5710.139,307,-184,16396,-2240,-26,-36,-9
5714.944,307,-184,16396,-2240,-26,-36,-9
5714.944,308,-184,16396,-2240,-26,-36,-9
5718.46,308,-184,16396,-2240,-26,-36,-9
5740.525,309,-184,16396,-2240,-26,-36,-9
5740.525,308,-184,16396,-2240,-26,-36,-9
5742.532,308,-160,16400,-2260,-10,-40,6
5744.539,307,-160,16400,-2260,-10,-40,6
5744.539,307,-160,16400,-2260,-10,-40,6
5745.893,308,-160,16400,-2260,-10,-40,6
5748.756,308,-160,16400,-2260,-10,-40,6
5749.7970000000005,308,-160,16400,-2260,-10,-40,6
5750.827,308,-160,16400,-2260,-10,-40,6
5750.827,307,-160,16400,-2260,-10,-40,6
5752.838,307,-188,16280,-2236,-68,-36,-11
5752.838,307,-188,16280,-2236,-68,-36,-11
5754.846,307,-188,16280,-2236,-68,-36,-11
5758.861,307,-188,16280,-2236,-68,-36,-11
5758.861,307,-188,16280,-2236,-68,-36,-11
5762.625,307,-188,16280,-2236,-68,-36,-11
5767.01,307,-240,16360,-2236,4,-32,-1
5767.01,307,-240,16360,-2236,4,-32,-1
5767.01,307,-240,16360,-2236,4,-32,-1
5775.282,307,-240,16360,-2236,4,-32,-1
5775.282,308,-240,16360,-2236,4,-32,-1
5775.282,309,-240,16360,-2236,4,-32,-1
5784.146,308,-240,16360,-2236,4,-32,-1
5784.146,308,-240,16360,-2236,4,-32,-1
5788.113,307,-220,16388,-2260,-14,-32,-1
5792.107,307,-220,16388,-2260,-14,-32,-1
5792.107,307,-220,16388,-2260,-14,-32,-1
5796.353,307,-220,16388,-2260,-14,-32,-1
5800.303000000001,307,-220,16388,-2260,-14,-32,-1
5804.442,307,-220,16388,-2260,-14,-32,-1
5804.442,307,-220,16388,-2260,-14,-32,-1
5808.573,307,-224,16284,-2260,-101,-29,-22
5808.573,307,-224,16284,-2260,-101,-29,-22
5808.573,307,-224,16284,-2260,-101,-29,-22
5816.848,308,-224,16284,-2260,-101,-29,-22
5816.848,308,-224,16284,-2260,-101,-29,-22
5816.848,306,-224,16284,-2260,-101,-29,-22
5825.369000000001,307,-224,16284,-2260,-101,-29,-22
5825.369000000001,306,-240,16356,-2176,3,-29,-10
5832.542,307,-240,16356,-2176,3,-29,-10
5833.557,307,-240,16356,-2176,3,-29,-10
5837.238,308,-240,16356,-2176,3,-29,-10
5841.635,308,-240,16356,-2176,3,-29,-10
5841.635,308,-240,16356,-2176,3,-29,-10
5845.101,308,-240,16356,-2176,3,-29,-10
5849.934,309,-152,16396,-2220,9,-34,-4
5850.572,307,-152,16396,-2220,9,-34,-4
5850.572,307,-152,16396,-2220,9,-34,-4
5850.572,308,-152,16396,-2220,9,-34,-4
5858.424,308,-152,16396,-2220,9,-34,-4
5858.424,308,-152,16396,-2220,9,-34,-4
5863.544,307,-152,16396,-2220,9,-34,-4
5866.545,308,-184,16344,-2264,-69,-36,-21
5869.99,307,-184,16344,-2264,-69,-36,-21
5874.683,308,-184,16344,-2264,-69,-36,-21
5876.7,308,-184,16344,-2264,-69,-36,-21
5876.7,308,-184,16344,-2264,-69,-36,-21
5882.796,309,-184,16344,-2264,-69,-36,-21
5882.796,308,-184,16344,-2264,-69,-36,-21
5882.796,308,-216,16320,-2244,-68,-53,-19
5891.14,307,-216,16320,-2244,-68,-53,-19
5891.14,308,-216,16320,-2244,-68,-53,-19
5897.21,307,-216,16320,-2244,-68,-53,-19
5899.305,307,-216,16320,-2244,-68,-53,-19
5901.519,308,-216,16320,-2244,-68,-53,-19
5905.54,308,-216,16320,-2244,-68,-53,-19
5907.549,307,-228,16328,-2228,-8,-22,-16
5907.549,307,-228,16328,-2228,-8,-22,-16
5913.715,306,-228,16328,-2228,-8,-22,-16
5915.801,307,-228,16328,-2228,-8,-22,-16
5915.801,307,-228,16328,-2228,-8,-22,-16
5922.156,308,-228,16328,-2228,-8,-22,-16
5923.915,307,-228,16328,-2228,-8,-22,-16
5923.915,308,-220,16396,-2256,-28,-36,-15
5930.448,307,-220,16396,-2256,-28,-36,-15
5932.607,308,-220,16396,-2256,-28,-36,-15
5932.607,308,-220,16396,-2256,-28,-36,-15
5932.607,308,-220,16396,-2256,-28,-36,-15
5942.774,309,-220,16396,-2256,-28,-36,-15
5944.784000000001,307,-220,16396,-2256,-28,-36,-15
5946.946,308,-252,16300,-2248,-70,-15,-2
5949.055,308,-252,16300,-2248,-70,-15,-2
5949.055,307,-252,16300,-2248,-70,-15,-2
5957.303,307,-252,16300,-2248,-70,-15,-2
5957.303,307,-252,16300,-2248,-70,-15,-2
5957.303,309,-252,16300,-2248,-70,-15,-2
5965.353999999999,309,-252,16300,-2248,-70,-15,-2
5967.372,308,-220,16344,-2240,-30,-40,-22
5967.372,308,-220,16344,-2240,-30,-40,-22
5973.471,307,-220,16344,-2240,-30,-40,-22
5976.563999999999,307,-220,16344,-2240,-30,-40,-22
5976.563999999999,308,-220,16344,-2240,-30,-40,-22
5984.731,308,-220,16344,-2240,-30,-40,-22
5985.2210000000005,307,-220,16344,-2240,-30,-40,-22
5985.2210000000005,307,-208,16376,-2276,-19,-42,-23
5989.791,306,-208,16376,-2276,-19,-42,-23
5989.791,306,-208,16376,-2276,-19,-42,-23
5998.258,307,-208,16376,-2276,-19,-42,-23
5998.258,307,-208,16376,-2276,-19,-42,-23
5998.258,308,-208,16376,-2276,-19,-42,-23
6006.338000000001,307,-208,16376,-2276,-19,-42,-23
6009.251,307,-224,16364,-2260,-63,-25,-8
6009.251,307,-224,16364,-2260,-63,-25,-8
6015.972,307,-224,16364,-2260,-63,-25,-8
6018.854,307,-224,16364,-2260,-63,-25,-8
6019.644,308,-224,16364,-2260,-63,-25,-8
6022.441,309,-224,16364,-2260,-63,-25,-8
6022.441,308,-224,16364,-2260,-63,-25,-8
6030.701,308,-208,16356,-2248,-17,-37,0
6032.717,308,-208,16356,-2248,-17,-37,0
6032.717,307,-208,16356,-2248,-17,-37,0
6032.717,308,-208,16356,-2248,-17,-37,0
6042.036999999999,308,-208,16356,-2248,-17,-37,0
6042.036999999999,308,-208,16356,-2248,-17,-37,0
6042.036999999999,308,-208,16356,-2248,-17,-37,0
6049.756,308,-212,16396,-2268,-15,-35,-10
6052.268,308,-212,16396,-2268,-15,-35,-10
6054.578,307,-212,16396,-2268,-15,-35,-10
6056.554,308,-212,16396,-2268,-15,-35,-10
6056.554,307,-212,16396,-2268,-15,-35,-10
6063.986,307,-212,16396,-2268,-15,-35,-10
6066.025,308,-212,16396,-2268,-15,-35,-10
6068.643,308,-216,16364,-2280,-53,-42,-20
6072.046,308,-216,16364,-2280,-53,-42,-20
6072.046,307,-216,16364,-2280,-53,-42,-20
6072.046,307,-216,16364,-2280,-53,-42,-20
6080.536,307,-216,16364,-2280,-53,-42,-20
6082.92,307,-216,16364,-2280,-53,-42,-20
6085.75,308,-216,16364,-2280,-53,-42,-20
6089.286999999999,307,-196,16324,-2200,-35,-22,-23
6089.286999999999,307,-196,16324,-2200,-35,-22,-23
6097.101000000001,307,-196,16324,-2200,-35,-22,-23
6099.119,307,-196,16324,-2200,-35,-22,-23
6099.119,307,-196,16324,-2200,-35,-22,-23
6101.754,307,-196,16324,-2200,-35,-22,-23
6105.133000000001,307,-196,16324,-2200,-35,-22,-23
6110.685,308,-220,16356,-2248,-28,-35,-15
6113.765,307,-220,16356,-2248,-28,-35,-15
6115.663,308,-220,16356,-2248,-28,-35,-15
6119.867,308,-220,16356,-2248,-28,-35,-15
6122.821,308,-220,16356,-2248,-28,-35,-15
6122.821,307,-220,16356,-2248,-28,-35,-15
6129.092,307,-220,16356,-2248,-28,-35,-15
6131.8279999999995,307,-200,16320,-2272,-45,-42,-5
6132.844999999999,306,-200,16320,-2272,-45,-42,-5
6134.861,307,-200,16320,-2272,-45,-42,-5
6137.189,307,-200,16320,-2272,-45,-42,-5
6137.189,308,-200,16320,-2272,-45,-42,-5
6137.189,308,-200,16320,-2272,-45,-42,-5
6145.660000000001,307,-200,16320,-2272,-45,-42,-5
6145.660000000001,307,-180,16352,-2228,-24,-36,8
6145.660000000001,307,-180,16352,-2228,-24,-36,8
6156.729,308,-180,16352,-2228,-24,-36,8
6156.729,308,-180,16352,-2228,-24,-36,8
6156.729,308,-180,16352,-2228,-24,-36,8
6163.839,308,-180,16352,-2228,-24,-36,8
6163.839,307,-180,16352,-2228,-24,-36,8
6163.839,307,-160,16344,-2204,-8,-18,-8
6173.147,308,-160,16344,-2204,-8,-18,-8
6173.147,307,-160,16344,-2204,-8,-18,-8
6173.147,308,-160,16344,-2204,-8,-18,-8
6181.276000000001,308,-160,16344,-2204,-8,-18,-8
6183.293,308,-160,16344,-2204,-8,-18,-8
6183.293,309,-160,16344,-2204,-8,-18,-8
6186.439,308,-224,16332,-2212,-38,-45,-3
6186.439,307,-224,16332,-2212,-38,-45,-3
6194.897,307,-224,16332,-2212,-38,-45,-3
6196.916,308,-224,16332,-2212,-38,-45,-3
6196.916,308,-224,16332,-2212,-38,-45,-3
6203.101000000001,308,-224,16332,-2212,-38,-45,-3
6204.0689999999995,307,-224,16332,-2212,-38,-45,-3
6204.0689999999995,307,-156,16336,-2240,-53,-39,7
6211.214,306,-156,16336,-2240,-53,-39,7
6211.214,306,-156,16336,-2240,-53,-39,7
6211.214,306,-156,16336,-2240,-53,-39,7
6219.341,307,-156,16336,-2240,-53,-39,7
6219.341,307,-156,16336,-2240,-53,-39,7
6219.341,307,-156,16336,-2240,-53,-39,7
6227.533,307,-204,16320,-2248,-14,-44,-18
6229.556,306,-204,16320,-2248,-14,-44,-18
6232.85,307,-204,16320,-2248,-14,-44,-18
6238.833,306,-204,16320,-2248,-14,-44,-18
6239.394,308,-204,16320,-2248,-14,-44,-18
6239.394,307,-204,16320,-2248,-14,-44,-18
6246.802,307,-204,16320,-2248,-14,-44,-18
6246.802,307,-228,16320,-2204,-21,-40,-31
6246.802,306,-228,16320,-2204,-21,-40,-31
6252.738,307,-228,16320,-2204,-21,-40,-31
6252.738,306,-228,16320,-2204,-21,-40,-31
6260.99,307,-228,16320,-2204,-21,-40,-31
6263.222,307,-228,16320,-2204,-21,-40,-31
6265.234,308,-228,16320,-2204,-21,-40,-31
6267.9169999999995,308,-196,16420,-2224,-57,-42,-15
6271.4439999999995,307,-196,16420,-2224,-57,-42,-15
6271.4439999999995,307,-196,16420,-2224,-57,-42,-15
6277.57,308,-196,16420,-2224,-57,-42,-15
6280.704,308,-196,16420,-2224,-57,-42,-15
6280.704,307,-196,16420,-2224,-57,-42,-15
6285.992,308,-196,16420,-2224,-57,-42,-15
6285.992,308,-216,16336,-2292,-13,-43,-9
6285.992,307,-216,16336,-2292,-13,-43,-9
6297.055,308,-216,16336,-2292,-13,-43,-9
6299.171,307,-216,16336,-2292,-13,-43,-9
6300.25,306,-216,16336,-2292,-13,-43,-9
6304.065,306,-216,16336,-2292,-13,-43,-9
6306.688,306,-216,16336,-2292,-13,-43,-9
6306.688,306,-168,16384,-2224,-39,-48,-16
6313.030000000001,306,-168,16384,-2224,-39,-48,-16
6314.261,306,-168,16384,-2224,-39,-48,-16
6314.261,307,-168,16384,-2224,-39,-48,-16
6318.678,308,-168,16384,-2224,-39,-48,-16
6318.678,308,-168,16384,-2224,-39,-48,-16
6327.0419999999995,308,-168,16384,-2224,-39,-48,-16
6327.0419999999995,307,-216,16320,-2236,-29,-40,-10
6332.97,307,-216,16320,-2236,-29,-40,-10
6335.412,307,-216,16320,-2236,-29,-40,-10
6335.412,307,-216,16320,-2236,-29,-40,-10
6335.412,308,-216,16320,-2236,-29,-40,-10
6343.568,308,-216,16320,-2236,-29,-40,-10
6347.8550000000005,307,-216,16320,-2236,-29,-40,-10
6347.8550000000005,308,-216,16372,-2228,-32,-43,-23
6351.896,307,-216,16372,-2228,-32,-43,-23
6355.861,308,-216,16372,-2228,-32,-43,-23
6355.861,308,-216,16372,-2228,-32,-43,-23
6360.215,308,-216,16372,-2228,-32,-43,-23
6363.494000000001,308,-216,16372,-2228,-32,-43,-23
6368.693,308,-216,16372,-2228,-32,-43,-23
6369.903,307,-204,16332,-2268,-52,-38,-2
6369.903,307,-204,16332,-2268,-52,-38,-2
6376.747,308,-204,16332,-2268,-52,-38,-2
6378.566,307,-204,16332,-2268,-52,-38,-2
6380.587,308,-204,16332,-2268,-52,-38,-2
6384.949,308,-204,16332,-2268,-52,-38,-2
6384.949,307,-204,16332,-2268,-52,-38,-2
6384.949,307,-176,16316,-2268,-19,-40,1
6393.093000000001,307,-176,16316,-2268,-19,-40,1
6393.093000000001,307,-176,16316,-2268,-19,-40,1
6397.356000000001,307,-176,16316,-2268,-19,-40,1
6402.463,308,-176,16316,-2268,-19,-40,1
6403.031999999999,307,-176,16316,-2268,-19,-40,1
6403.031999999999,307,-176,16316,-2268,-19,-40,1
6410.664,307,-188,16344,-2204,-25,-44,-14
6413.766,307,-188,16344,-2204,-25,-44,-14
6413.766,307,-188,16344,-2204,-25,-44,-14
6417.6359999999995,307,-188,16344,-2204,-25,-44,-14
6417.6359999999995,308,-188,16344,-2204,-25,-44,-14
6417.6359999999995,308,-188,16344,-2204,-25,-44,-14
6425.686,308,-188,16344,-2204,-25,-44,-14
6430.809,307,-184,16380,-2220,-55,-32,1
6433.849999999999,308,-184,16380,-2220,-55,-32,1
6433.849999999999,308,-184,16380,-2220,-55,-32,1
6433.849999999999,308,-184,16380,-2220,-55,-32,1
6443.3189999999995,308,-184,16380,-2220,-55,-32,1
6443.692,308,-184,16380,-2220,-55,-32,1
6443.692,308,-184,16380,-2220,-55,-32,1
6450.274,307,-156,16352,-2220,-51,-18,1
6450.274,307,-156,16352,-2220,-51,-18,1
6455.316,307,-156,16352,-2220,-51,-18,1
6458.783,307,-156,16352,-2220,-51,-18,1
6458.783,308,-156,16352,-2220,-51,-18,1
6458.783,308,-156,16352,-2220,-51,-18,1
6467.336,307,-156,16352,-2220,-51,-18,1
6467.336,307,-216,16352,-2228,-7,-20,-17
6470.409,306,-216,16352,-2228,-7,-20,-17
6475.479,307,-216,16352,-2228,-7,-20,-17
6475.479,307,-216,16352,-2228,-7,-20,-17
6480.902999999999,307,-216,16352,-2228,-7,-20,-17
6484.335,308,-216,16352,-2228,-7,-20,-17
6484.733,308,-216,16352,-2228,-7,-20,-17
6488.493,307,-256,16356,-2208,-27,-24,1
6491.744,307,-256,16356,-2208,-27,-24,1
6491.744,307,-256,16356,-2208,-27,-24,1
6497.796,308,-256,16356,-2208,-27,-24,1
6499.809,307,-256,16356,-2208,-27,-24,1
6501.303,307,-256,16356,-2208,-27,-24,1
6504.879,308,-256,16356,-2208,-27,-24,1
6507.925,307,-256,16356,-2208,-27,-24,1
6507.925,308,-220,16364,-2264,-53,-14,-14
6513.871,307,-220,16364,-2264,-53,-14,-14
6515.884,307,-220,16364,-2264,-53,-14,-14
6517.9,308,-220,16364,-2264,-53,-14,-14
6517.9,308,-220,16364,-2264,-53,-14,-14
6524.038,308,-220,16364,-2264,-53,-14,-14
6524.038,308,-220,16364,-2264,-53,-14,-14
6533.1630000000005,308,-180,16368,-2184,-8,-56,-16
6533.1630000000005,308,-180,16368,-2184,-8,-56,-16
6537.893999999999,308,-180,16368,-2184,-8,-56,-16
6540.289,307,-180,16368,-2184,-8,-56,-16
6542.298,308,-180,16368,-2184,-8,-56,-16
6546.59,308,-180,16368,-2184,-8,-56,-16
6549.724,306,-180,16368,-2184,-8,-56,-16
6549.724,306,-204,16360,-2252,-48,-40,-12
6552.3369999999995,307,-204,16360,-2252,-48,-40,-12
6556.714,306,-204,16360,-2252,-48,-40,-12
6560.409,307,-204,16360,-2252,-48,-40,-12
6562.867,307,-204,16360,-2252,-48,-40,-12
6564.943,307,-204,16360,-2252,-48,-40,-12
6564.943,308,-228,16380,-2292,-61,-34,-8
6564.943,307,-228,16380,-2292,-61,-34,-8
6573.11,307,-228,16380,-2292,-61,-34,-8
6573.11,308,-228,16380,-2292,-61,-34,-8
6579.813999999999,308,-228,16380,-2292,-61,-34,-8
6582.66,308,-228,16380,-2292,-61,-34,-8
6583.564,308,-228,16380,-2292,-61,-34,-8
6583.564,308,-208,16312,-2252,-20,-24,0
6590.858,308,-208,16312,-2252,-20,-24,0
6590.858,308,-208,16312,-2252,-20,-24,0
6596.491,307,-208,16312,-2252,-20,-24,0
6596.491,308,-208,16312,-2252,-20,-24,0
6602.908,307,-208,16312,-2252,-20,-24,0
6606.821,308,-208,16312,-2252,-20,-24,0
6606.821,307,-208,16312,-2252,-20,-24,0
6606.821,307,-208,16288,-2244,-53,-41,-19
6612.809,307,-208,16288,-2244,-53,-41,-19
6612.809,308,-208,16288,-2244,-53,-41,-19
6619.054,307,-208,16288,-2244,-53,-41,-19
6623.088,308,-208,16288,-2244,-53,-41,-19
6623.088,307,-208,16288,-2244,-53,-41,-19
6627.099,307,-208,16288,-2244,-53,-41,-19
6630.874000000001,306,-168,16360,-2240,-49,-22,8
6633.076,307,-168,16360,-2240,-49,-22,8
6633.076,306,-168,16360,-2240,-49,-22,8
6637.28,306,-168,16360,-2240,-49,-22,8
6637.28,306,-168,16360,-2240,-49,-22,8
6637.28,307,-168,16360,-2240,-49,-22,8
6648.25,306,-168,16360,-2240,-49,-22,8
6648.25,307,-180,16328,-2252,-20,-41,-14
6648.25,307,-180,16328,-2252,-20,-41,-14
6654.116,307,-180,16328,-2252,-20,-41,-14
6654.116,307,-180,16328,-2252,-20,-41,-14
6654.116,307,-180,16328,-2252,-20,-41,-14
6662.592,306,-180,16328,-2252,-20,-41,-14
6662.592,307,-180,16328,-2252,-20,-41,-14
6672.212,307,-176,16340,-2224,-33,-30,-12
6672.212,306,-176,16340,-2224,-33,-30,-12
6672.212,306,-176,16340,-2224,-33,-30,-12
6680.378,307,-176,16340,-2224,-33,-30,-12
6682.085,306,-176,16340,-2224,-33,-30,-12
6682.085,306,-176,16340,-2224,-33,-30,-12
6687.249000000001,306,-176,16340,-2224,-33,-30,-12
6687.249000000001,306,-188,16376,-2240,-47,-32,-3
6687.249000000001,306,-188,16376,-2240,-47,-32,-3
6698.492,307,-188,16376,-2240,-47,-32,-3
6698.492,307,-188,16376,-2240,-47,-32,-3
6698.492,307,-188,16376,-2240,-47,-32,-3
6705.095,307,-188,16376,-2240,-47,-32,-3
6706.6759999999995,307,-188,16376,-2240,-47,-32,-3
6706.6759999999995,307,-180,16328,-2228,-36,-35,-1
6713.93,307,-180,16328,-2228,-36,-35,-1
6713.93,308,-180,16328,-2228,-36,-35,-1
6720.313,307,-180,16328,-2228,-36,-35,-1
6720.313,308,-180,16328,-2228,-36,-35,-1
6720.313,307,-180,16328,-2228,-36,-35,-1
6728.803,307,-180,16328,-2228,-36,-35,-1
6730.825000000001,307,-204,16300,-2252,-28,-46,-10
6733.136,307,-204,16300,-2252,-28,-46,-10
6737.108,307,-204,16300,-2252,-28,-46,-10
6737.108,307,-204,16300,-2252,-28,-46,-10
6737.108,308,-204,16300,-2252,-28,-46,-10
6746.757,307,-204,16300,-2252,-28,-46,-10
6747.328,307,-204,16300,-2252,-28,-46,-10
6747.328,307,-220,16380,-2280,-23,-34,-21
6754.089,307,-220,16380,-2280,-23,-34,-21
6754.089,307,-220,16380,-2280,-23,-34,-21
6754.089,307,-220,16380,-2280,-23,-34,-21
6763.155000000001,307,-220,16380,-2280,-23,-34,-21
6763.155000000001,307,-220,16380,-2280,-23,-34,-21
6770.352,307,-188,16236,-2240,-36,-23,8
6770.352,306,-188,16236,-2240,-36,-23,8
6770.352,306,-188,16236,-2240,-36,-23,8
6778.5019999999995,307,-188,16236,-2240,-36,-23,8
6778.5019999999995,307,-188,16236,-2240,-36,-23,8
6778.5019999999995,307,-188,16236,-2240,-36,-23,8
6787.746,308,-188,16236,-2240,-36,-23,8
6788.255,307,-188,16236,-2240,-36,-23,8
6788.255,308,-180,16316,-2304,-16,-27,-2
6796.075,307,-180,16316,-2304,-16,-27,-2
6796.647,307,-180,16316,-2304,-16,-27,-2
6796.647,307,-180,16316,-2304,-16,-27,-2
6802.789,308,-180,16316,-2304,-16,-27,-2
6802.789,308,-180,16316,-2304,-16,-27,-2
6807.216,308,-180,16316,-2304,-16,-27,-2
6811.005,306,-252,16352,-2304,-32,-19,-1
6815.581,306,-252,16352,-2304,-32,-19,-1
6815.581,307,-252,16352,-2304,-32,-19,-1
6819.487999999999,307,-252,16352,-2304,-32,-19,-1
6824.362,307,-252,16352,-2304,-32,-19,-1
6824.362,307,-252,16352,-2304,-32,-19,-1
6829.703,307,-252,16352,-2304,-32,-19,-1
6831.969,307,-192,16388,-2256,-64,-41,-23
6833.616,307,-192,16388,-2256,-64,-41,-23
6835.491,307,-192,16388,-2256,-64,-41,-23
6835.491,308,-192,16388,-2256,-64,-41,-23
6843.523,308,-192,16388,-2256,-64,-41,-23
6843.523,307,-192,16388,-2256,-64,-41,-23
6843.523,307,-192,16388,-2256,-64,-41,-23
6852.019,307,-208,16316,-2268,-67,-41,-20
6852.019,307,-208,16316,-2268,-67,-41,-20
6852.019,307,-208,16316,-2268,-67,-41,-20
6860.525,308,-208,16316,-2268,-67,-41,-20
6863.551,308,-208,16316,-2268,-67,-41,-20
6863.551,308,-208,16316,-2268,-67,-41,-20
6868.665,307,-208,16316,-2268,-67,-41,-20
6868.665,307,-196,16316,-2260,-10,-39,-18
6868.665,307,-196,16316,-2260,-10,-39,-18
6876.9580000000005,307,-196,16316,-2260,-10,-39,-18
6880.508,308,-196,16316,-2260,-10,-39,-18
6885.132,308,-196,16316,-2260,-10,-39,-18
6885.132,308,-196,16316,-2260,-10,-39,-18
6887.423,308,-212,16380,-2224,-38,-35,-14
6893.312,307,-212,16380,-2224,-38,-35,-14
6893.312,307,-212,16380,-2224,-38,-35,-14
6896.274,308,-212,16380,-2224,-38,-35,-14
6901.524,308,-212,16380,-2224,-38,-35,-14
6904.4800000000005,307,-212,16380,-2224,-38,-35,-14
6906.49,307,-212,16380,-2224,-38,-35,-14
6909.838,308,-192,16372,-2228,-75,-37,-18
6913.2119999999995,307,-192,16372,-2228,-75,-37,-18
6916.299999999999,307,-192,16372,-2228,-75,-37,-18
6918.1,307,-192,16372,-2228,-75,-37,-18
6918.1,307,-192,16372,-2228,-75,-37,-18
6926.4580000000005,309,-192,16372,-2228,-75,-37,-18
6926.4580000000005,308,-192,16372,-2228,-75,-37,-18
6926.4580000000005,308,-192,16280,-2212,-43,-38,-7
6934.965,307,-192,16280,-2212,-43,-38,-7
6935.512,307,-192,16280,-2212,-43,-38,-7
6935.512,308,-192,16280,-2212,-43,-38,-7
6943.068,308,-192,16280,-2212,-43,-38,-7
6944.324,308,-192,16280,-2212,-43,-38,-7
6946.66,308,-192,16280,-2212,-43,-38,-7
6951.514,307,-200,16404,-2236,0,-58,-22
6952.031,307,-200,16404,-2236,0,-58,-22
6952.031,307,-200,16404,-2236,0,-58,-22
6959.548,307,-200,16404,-2236,0,-58,-22
6963.797,307,-200,16404,-2236,0,-58,-22
6963.797,307,-200,16404,-2236,0,-58,-22
6967.7429999999995,307,-200,16404,-2236,0,-58,-22
6967.7429999999995,306,-176,16380,-2204,-52,-38,5
6967.7429999999995,306,-176,16380,-2204,-52,-38,5
6976.148,306,-176,16380,-2204,-52,-38,5
6979.951,307,-176,16380,-2204,-52,-38,5
6979.951,307,-176,16380,-2204,-52,-38,5
6984.196,307,-176,16380,-2204,-52,-38,5
6984.196,307,-176,16380,-2204,-52,-38,5
6984.196,307,-176,16380,-2204,-52,-38,5
6992.299,308,-200,16384,-2212,-49,-40,-3
6992.96,307,-200,16384,-2212,-49,-40,-3
6997.763,307,-200,16384,-2212,-49,-40,-3
7000.699,307,-200,16384,-2212,-49,-40,-3
7000.699,308,-200,16384,-2212,-49,-40,-3
7000.699,308,-200,16384,-2212,-49,-40,-3
7008.9,308,-200,16384,-2212,-49,-40,-3
7009.836,307,-188,16340,-2224,-15,-27,-22
7014.0070000000005,307,-188,16340,-2224,-15,-27,-22
7017.735,308,-188,16340,-2224,-15,-27,-22
7020.965999999999,308,-188,16340,-2224,-15,-27,-22
7020.965999999999,308,-188,16340,-2224,-15,-27,-22
7025.414,309,-188,16340,-2224,-15,-27,-22
7030.576,308,-188,16340,-2224,-15,-27,-22
7033.667,308,-188,16372,-2224,-61,-46,-7
7033.667,307,-188,16372,-2224,-61,-46,-7
7037.352,308,-188,16372,-2224,-61,-46,-7
7037.352,307,-188,16372,-2224,-61,-46,-7
7045.518,308,-188,16372,-2224,-61,-46,-7
7047.8189999999995,308,-188,16372,-2224,-61,-46,-7
7050.198,308,-188,16372,-2224,-61,-46,-7
7051.487,308,-200,16324,-2256,-48,-9,1
7051.487,308,-200,16324,-2256,-48,-9,1
7055.8189999999995,307,-200,16324,-2256,-48,-9,1
7060.704000000001,308,-200,16324,-2256,-48,-9,1
7063.723999999999,308,-200,16324,-2256,-48,-9,1
7063.723999999999,307,-200,16324,-2256,-48,-9,1
7070.146000000001,308,-200,16324,-2256,-48,-9,1
7070.146000000001,308,-216,16388,-2208,-16,-42,-1
7070.146000000001,306,-216,16388,-2208,-16,-42,-1
7077.2029999999995,307,-216,16388,-2208,-16,-42,-1
7077.2029999999995,308,-216,16388,-2208,-16,-42,-1
7080.819,308,-216,16388,-2208,-16,-42,-1
7086.657,308,-216,16388,-2208,-16,-42,-1
7086.657,308,-216,16388,-2208,-16,-42,-1
7086.657,307,-272,16400,-2176,-25,-33,-13
7091.683,307,-272,16400,-2176,-25,-33,-13
7097.429,308,-272,16400,-2176,-25,-33,-13
7099.753,307,-272,16400,-2176,-25,-33,-13
7102.884,308,-272,16400,-2176,-25,-33,-13
7102.884,307,-272,16400,-2176,-25,-33,-13
7108.209000000001,308,-272,16400,-2176,-25,-33,-13
7111.175,308,-164,16312,-2208,-49,-35,9
7113.021,307,-164,16312,-2208,-49,-35,9
7116.438999999999,307,-164,16312,-2208,-49,-35,9
7119.466,308,-164,16312,-2208,-49,-35,9
7119.466,308,-164,16312,-2208,-49,-35,9
7124.659000000001,309,-164,16312,-2208,-49,-35,9
7124.659000000001,307,-164,16312,-2208,-49,-35,9
7130.434,308,-232,16276,-2276,-5,-29,-5
7132.445,308,-232,16276,-2276,-5,-29,-5
7135.481000000001,307,-232,16276,-2276,-5,-29,-5
7139.616,307,-232,16276,-2276,-5,-29,-5
7140.717000000001,308,-232,16276,-2276,-5,-29,-5
7143.865,308,-232,16276,-2276,-5,-29,-5
7148.837,308,-232,16276,-2276,-5,-29,-5
7149.507,307,-232,16276,-2276,-5,-29,-5
7149.507,307,-188,16380,-2260,-32,-34,9
7149.507,306,-188,16380,-2260,-32,-34,9
7157.13,306,-188,16380,-2260,-32,-34,9
7160.196,307,-188,16380,-2260,-32,-34,9
7165.842,307,-188,16380,-2260,-32,-34,9
7167.784000000001,308,-188,16380,-2260,-32,-34,9
7167.784000000001,308,-188,16380,-2260,-32,-34,9
7172.62,307,-228,16320,-2256,-82,-36,7
7174.1849999999995,307,-228,16320,-2256,-82,-36,7
7177.035,307,-228,16320,-2256,-82,-36,7
7179.717000000001,306,-228,16320,-2256,-82,-36,7
7183.867,307,-228,16320,-2256,-82,-36,7
7183.867,307,-228,16320,-2256,-82,-36,7
7188.747,308,-228,16320,-2256,-82,-36,7
7192.99,308,-184,16344,-2212,-17,-49,-8
7192.99,307,-184,16344,-2212,-17,-49,-8
7197.963,308,-184,16344,-2212,-17,-49,-8
7201.2029999999995,307,-184,16344,-2212,-17,-49,-8
7201.2029999999995,307,-184,16344,-2212,-17,-49,-8
7206.2480000000005,308,-184,16344,-2212,-17,-49,-8
7209.537,307,-184,16344,-2212,-17,-49,-8
7209.537,307,-216,16348,-2228,19,-42,-13
7214.333,307,-216,16348,-2228,19,-42,-13
7214.333,307,-216,16348,-2228,19,-42,-13
7214.333,308,-216,16348,-2228,19,-42,-13
7214.333,307,-216,16348,-2228,19,-42,-13
7222.518,308,-216,16348,-2228,19,-42,-13
7222.518,308,-216,16348,-2228,19,-42,-13
7230.568,307,-248,16352,-2212,-75,-48,-21
7230.568,307,-248,16352,-2212,-75,-48,-21
7235.728,307,-248,16352,-2212,-75,-48,-21
7238.831,307,-248,16352,-2212,-75,-48,-21
7238.831,308,-248,16352,-2212,-75,-48,-21
7246.353,307,-248,16352,-2212,-75,-48,-21
7246.353,307,-248,16352,-2212,-75,-48,-21
7246.353,307,-188,16348,-2228,-44,-19,-16
7254.799,307,-188,16348,-2228,-44,-19,-16
7256.818,307,-188,16348,-2228,-44,-19,-16
7258.827,307,-188,16348,-2228,-44,-19,-16
7262.852,308,-188,16348,-2228,-44,-19,-16
7265.831999999999,308,-188,16348,-2228,-44,-19,-16
7270.866,307,-188,16348,-2228,-44,-19,-16
7270.866,307,-216,16280,-2236,-18,-34,-1
7274.89,307,-216,16280,-2236,-18,-34,-1
7278.916,307,-216,16280,-2236,-18,-34,-1
7280.3,309,-216,16280,-2236,-18,-34,-1
7282.317,307,-216,16280,-2236,-18,-34,-1
7287.359,307,-216,16280,-2236,-18,-34,-1
7287.359,308,-216,16280,-2236,-18,-34,-1
7291.381,308,-196,16336,-2252,-55,-45,-4
7295.411,308,-196,16336,-2252,-55,-45,-4
7297.5779999999995,310,-196,16336,-2252,-55,-45,-4
7299.588,309,-196,16336,-2252,-55,-45,-4
7303.61,308,-196,16336,-2252,-55,-45,-4
7307.638,309,-196,16336,-2252,-55,-45,-4
7307.638,308,-196,16336,-2252,-55,-45,-4
7311.675,308,-184,16400,-2240,-37,-37,-13
7315.705,307,-184,16400,-2240,-37,-37,-13
7315.705,308,-184,16400,-2240,-37,-37,-13
7319.742,307,-184,16400,-2240,-37,-37,-13
7323.781,307,-184,16400,-2240,-37,-37,-13
7327.812,308,-184,16400,-2240,-37,-37,-13
7327.812,308,-184,16400,-2240,-37,-37,-13
7331.832,307,-192,16348,-2232,-19,-48,1
7335.798,307,-192,16348,-2232,-19,-48,1
7336.59,307,-192,16348,-2232,-19,-48,1
7340.6089999999995,307,-192,16348,-2232,-19,-48,1
7344.1320000000005,308,-192,16348,-2232,-19,-48,1
7344.1320000000005,308,-192,16348,-2232,-19,-48,1
7348.167,307,-192,16348,-2232,-19,-48,1
7352.201,307,-184,16336,-2272,-42,-23,-13
7352.201,307,-184,16336,-2272,-42,-23,-13
7354.21,308,-184,16336,-2272,-42,-23,-13
7360.275,308,-184,16336,-2272,-42,-23,-13
7364.321999999999,308,-184,16336,-2272,-42,-23,-13
7366.031999999999,307,-184,16336,-2272,-42,-23,-13
7368.054,306,-184,16336,-2272,-42,-23,-13
7372.603,307,-220,16352,-2232,-35,-37,-20
7372.603,306,-220,16352,-2232,-35,-37,-20
7376.756,306,-220,16352,-2232,-35,-37,-20
7380.146,307,-220,16352,-2232,-35,-37,-20
7385.694,306,-220,16352,-2232,-35,-37,-20
7386.039000000001,307,-220,16352,-2232,-35,-37,-20
7389.534000000001,307,-220,16352,-2232,-35,-37,-20
7391.84,306,-208,16400,-2236,-29,-42,-21
7391.84,306,-208,16400,-2236,-29,-42,-21
7391.84,305,-208,16400,-2236,-29,-42,-21
7399.835,307,-208,16400,-2236,-29,-42,-21
7399.835,307,-208,16400,-2236,-29,-42,-21
7399.835,307,-208,16400,-2236,-29,-42,-21
7408.008,306,-208,16400,-2236,-29,-42,-21
7413.822999999999,307,-148,16308,-2216,-64,-32,0
7416.236,307,-148,16308,-2216,-64,-32,0
7418.374,307,-148,16308,-2216,-64,-32,0
7419.496999999999,308,-148,16308,-2216,-64,-32,0
7424.273,308,-148,16308,-2216,-64,-32,0
7426.370999999999,307,-148,16308,-2216,-64,-32,0
7426.370999999999,308,-148,16308,-2216,-64,-32,0
7432.371,308,-188,16292,-2216,-41,-39,-4
7432.371,307,-188,16292,-2216,-41,-39,-4
7435.96,308,-188,16292,-2216,-41,-39,-4
7440.442,307,-188,16292,-2216,-41,-39,-4
7440.442,308,-188,16292,-2216,-41,-39,-4
7447.282,307,-188,16292,-2216,-41,-39,-4
7448.884,308,-188,16292,-2216,-41,-39,-4
7448.884,307,-184,16356,-2220,0,-29,-16
7448.884,307,-184,16356,-2220,0,-29,-16
7459.18,307,-184,16356,-2220,0,-29,-16
7459.582,308,-184,16356,-2220,0,-29,-16
7459.582,308,-184,16356,-2220,0,-29,-16
7465.707,308,-184,16356,-2220,0,-29,-16
7465.707,308,-184,16356,-2220,0,-29,-16
7465.707,307,-216,16360,-2244,-57,-28,-19
7473.878,306,-216,16360,-2244,-57,-28,-19
7473.878,306,-216,16360,-2244,-57,-28,-19
7473.878,307,-216,16360,-2244,-57,-28,-19
7482.313999999999,307,-216,16360,-2244,-57,-28,-19
7482.313999999999,307,-216,16360,-2244,-57,-28,-19
7482.313999999999,308,-216,16360,-2244,-57,-28,-19
7490.738,308,-244,16304,-2232,-55,-37,-3
7490.738,307,-244,16304,-2232,-55,-37,-3
7497.493,308,-244,16304,-2232,-55,-37,-3
7499.287,307,-244,16304,-2232,-55,-37,-3
7503.536,308,-244,16304,-2232,-55,-37,-3
7506.4130000000005,308,-244,16304,-2232,-55,-37,-3
7508.592000000001,307,-244,16304,-2232,-55,-37,-3
7508.592000000001,306,-180,16352,-2192,0,-50,-2
7514.013,306,-180,16352,-2192,0,-50,-2
7515.8589999999995,306,-180,16352,-2192,0,-50,-2
7520.644,306,-180,16352,-2192,0,-50,-2
7520.644,307,-180,16352,-2192,0,-50,-2
7524.208,307,-180,16352,-2192,0,-50,-2
7525.846,307,-180,16352,-2192,0,-50,-2
7531.232,306,-180,16352,-2192,0,-50,-2
7532.262000000001,306,-216,16348,-2260,-28,-41,-23
7536.358,307,-216,16348,-2260,-28,-41,-23
7536.358,307,-216,16348,-2260,-28,-41,-23
7541.108,307,-216,16348,-2260,-28,-41,-23
7542.4,308,-216,16348,-2260,-28,-41,-23
7548.857,309,-216,16348,-2260,-28,-41,-23
7548.857,307,-216,16348,-2260,-28,-41,-23
7548.857,307,-172,16404,-2232,-65,-40,-8
7557.298000000001,307,-172,16404,-2232,-65,-40,-8
7557.298000000001,307,-172,16404,-2232,-65,-40,-8
7557.298000000001,308,-172,16404,-2232,-65,-40,-8
7566.0869999999995,308,-172,16404,-2232,-65,-40,-8
7566.601000000001,308,-172,16404,-2232,-65,-40,-8
7566.601000000001,308,-172,16404,-2232,-65,-40,-8
7574.290999999999,308,-204,16376,-2220,-30,-24,1
7577.5560000000005,307,-204,16376,-2220,-30,-24,1
7580.591,307,-204,16376,-2220,-30,-24,1
7581.919,307,-204,16376,-2220,-30,-24,1
7581.919,307,-204,16376,-2220,-30,-24,1
7581.919,307,-204,16376,-2220,-30,-24,1
7589.493,307,-204,16376,-2220,-30,-24,1
7591.305,307,-156,16336,-2292,-47,-33,-3
7591.305,308,-156,16336,-2292,-47,-33,-3
7597.81,307,-156,16336,-2292,-47,-33,-3
7597.81,308,-156,16336,-2292,-47,-33,-3
7597.81,308,-156,16336,-2292,-47,-33,-3
7607.861,308,-156,16336,-2292,-47,-33,-3
7607.861,309,-156,16336,-2292,-47,-33,-3
7614.035999999999,307,-260,16292,-2304,-54,-44,-27
7614.035999999999,307,-260,16292,-2304,-54,-44,-27
7614.035999999999,307,-260,16292,-2304,-54,-44,-27
7622.385,307,-260,16292,-2304,-54,-44,-27
7622.385,307,-260,16292,-2304,-54,-44,-27
7622.385,307,-260,16292,-2304,-54,-44,-27
7631.278,307,-260,16292,-2304,-54,-44,-27
7632.907999999999,307,-204,16336,-2220,-22,-27,5
7632.907999999999,307,-204,16336,-2220,-22,-27,5
7638.594,307,-204,16336,-2220,-22,-27,5
7638.594,308,-204,16336,-2220,-22,-27,5
7638.594,307,-204,16336,-2220,-22,-27,5
7646.664000000001,307,-204,16336,-2220,-22,-27,5
7646.664000000001,308,-204,16336,-2220,-22,-27,5
7646.664000000001,307,-164,16324,-2240,-24,-47,-12
7655.08,307,-164,16324,-2240,-24,-47,-12
7655.08,307,-164,16324,-2240,-24,-47,-12
7655.08,308,-164,16324,-2240,-24,-47,-12
7664.865,307,-164,16324,-2240,-24,-47,-12
7664.865,308,-164,16324,-2240,-24,-47,-12
7664.865,307,-164,16324,-2240,-24,-47,-12
7671.8099999999995,307,-232,16312,-2264,-39,-13,6
7671.8099999999995,307,-232,16312,-2264,-39,-13,6
7679.926,308,-232,16312,-2264,-39,-13,6
7681.405,307,-232,16312,-2264,-39,-13,6
7681.405,308,-232,16312,-2264,-39,-13,6
7688.5779999999995,308,-232,16312,-2264,-39,-13,6
7688.5779999999995,308,-232,16312,-2264,-39,-13,6
7690.695,307,-192,16336,-2220,-22,-26,-13
7697.398999999999,307,-192,16336,-2220,-22,-26,-13
7697.398999999999,308,-192,16336,-2220,-22,-26,-13
7697.398999999999,307,-192,16336,-2220,-22,-26,-13
7705.0650000000005,307,-192,16336,-2220,-22,-26,-13
7705.0650000000005,307,-192,16336,-2220,-22,-26,-13
7709.055,307,-192,16336,-2220,-22,-26,-13
7713.7880000000005,307,-164,16404,-2256,-21,-35,-4
7713.7880000000005,307,-164,16404,-2256,-21,-35,-4
7713.7880000000005,307,-164,16404,-2256,-21,-35,-4
7721.769,307,-164,16404,-2256,-21,-35,-4
7725.475,308,-164,16404,-2256,-21,-35,-4
7725.475,308,-164,16404,-2256,-21,-35,-4
7730.138,307,-164,16404,-2256,-21,-35,-4
7730.138,307,-216,16344,-2220,-40,-43,-11
7730.138,308,-216,16344,-2220,-40,-43,-11
7738.584000000001,308,-216,16344,-2220,-40,-43,-11
7741.811000000001,307,-216,16344,-2220,-40,-43,-11
7741.811000000001,308,-216,16344,-2220,-40,-43,-11
7747.614,308,-216,16344,-2220,-40,-43,-11
7747.614,308,-216,16344,-2220,-40,-43,-11
7747.614,307,-208,16328,-2208,-23,-19,-9
7755.184,308,-208,16328,-2208,-23,-19,-9
7755.184,308,-208,16328,-2208,-23,-19,-9
7755.184,309,-208,16328,-2208,-23,-19,-9
7763.211,307,-208,16328,-2208,-23,-19,-9
7763.211,308,-208,16328,-2208,-23,-19,-9
7763.211,307,-208,16328,-2208,-23,-19,-9
7771.534,307,-200,16316,-2252,-15,-30,9
7771.534,307,-200,16316,-2252,-15,-30,9
7779.687,307,-200,16316,-2252,-15,-30,9
7782.821,307,-200,16316,-2252,-15,-30,9
7782.821,307,-200,16316,-2252,-15,-30,9
7786.902,307,-200,16316,-2252,-15,-30,9
7787.8460000000005,306,-200,16316,-2252,-15,-30,9
7787.8460000000005,307,-204,16360,-2252,-80,-53,-34
7796.232,307,-204,16360,-2252,-80,-53,-34
7797.429,308,-204,16360,-2252,-80,-53,-34
7797.429,307,-204,16360,-2252,-80,-53,-34
7797.429,307,-204,16360,-2252,-80,-53,-34
7804.706,307,-204,16360,-2252,-80,-53,-34
7804.706,308,-204,16360,-2252,-80,-53,-34
7813.519,307,-200,16300,-2268,-37,-31,-5
7815.665,308,-200,16300,-2268,-37,-31,-5
7815.665,307,-200,16300,-2268,-37,-31,-5
7815.665,308,-200,16300,-2268,-37,-31,-5
7821.503,309,-200,16300,-2268,-37,-31,-5
7821.503,309,-200,16300,-2268,-37,-31,-5
7829.6849999999995,308,-200,16300,-2268,-37,-31,-5
7831.706999999999,307,-248,16308,-2228,-37,-26,-22
7836.8279999999995,308,-248,16308,-2228,-37,-26,-22
7839.825,308,-248,16308,-2228,-37,-26,-22
7839.825,308,-248,16308,-2228,-37,-26,-22
7844.237999999999,308,-248,16308,-2228,-37,-26,-22
7847.172,308,-248,16308,-2228,-37,-26,-22
7850.474,308,-248,16308,-2228,-37,-26,-22
7850.474,307,-208,16384,-2252,-32,-36,-13
7856.1269999999995,307,-208,16384,-2252,-32,-36,-13
7858.136,307,-208,16384,-2252,-32,-36,-13
7858.136,307,-208,16384,-2252,-32,-36,-13
7865.642,307,-208,16384,-2252,-32,-36,-13
7866.251,307,-208,16384,-2252,-32,-36,-13
7866.251,307,-208,16384,-2252,-32,-36,-13
7872.7660000000005,307,-192,16360,-2260,-60,-37,-17
7876.773,307,-192,16360,-2260,-60,-37,-17
7881.31,308,-192,16360,-2260,-60,-37,-17
7882.1810000000005,308,-192,16360,-2260,-60,-37,-17
7882.1810000000005,308,-192,16360,-2260,-60,-37,-17
7888.002,307,-192,16360,-2260,-60,-37,-17
7890.007,307,-192,16360,-2260,-60,-37,-17
7893.143,307,-220,16304,-2244,-20,-35,1
7896.459,308,-220,16304,-2244,-20,-35,1
7899.653,308,-220,16304,-2244,-20,-35,1
7899.653,308,-220,16304,-2244,-20,-35,1
7904.029,308,-220,16304,-2244,-20,-35,1
7904.029,307,-220,16304,-2244,-20,-35,1
7909.164,307,-220,16304,-2244,-20,-35,1
7914.1320000000005,307,-212,16316,-2248,-1,-30,-4
7917.968,307,-212,16316,-2248,-1,-30,-4
7917.968,307,-212,16316,-2248,-1,-30,-4
7920.777,307,-212,16316,-2248,-1,-30,-4
7923.677,309,-212,16316,-2248,-1,-30,-4
7923.677,308,-212,16316,-2248,-1,-30,-4
7930.719,307,-212,16316,-2248,-1,-30,-4
7933.379000000001,307,-228,16348,-2264,-46,-33,-8
7933.379000000001,307,-228,16348,-2264,-46,-33,-8
7937.712,307,-228,16348,-2264,-46,-33,-8
7937.712,307,-228,16348,-2264,-46,-33,-8
7937.712,307,-228,16348,-2264,-46,-33,-8
7947.173000000001,307,-228,16348,-2264,-46,-33,-8
7949.191,307,-228,16348,-2264,-46,-33,-8
7952.909,307,-196,16328,-2216,-26,-35,-8
7952.909,307,-196,16328,-2216,-26,-35,-8
7952.909,307,-196,16328,-2216,-26,-35,-8
7960.937000000001,307,-196,16328,-2216,-26,-35,-8
7960.937000000001,307,-196,16328,-2216,-26,-35,-8
7966.743,307,-196,16328,-2216,-26,-35,-8
7968.759,307,-196,16328,-2216,-26,-35,-8
7968.759,307,-196,16412,-2276,-13,-48,-4
7968.759,307,-196,16412,-2276,-13,-48,-4
7978.902,307,-196,16412,-2276,-13,-48,-4
7979.933,307,-196,16412,-2276,-13,-48,-4
7979.933,307,-196,16412,-2276,-13,-48,-4
7987.003,307,-196,16412,-2276,-13,-48,-4
7987.003,307,-196,16412,-2276,-13,-48,-4
7990.552,307,-196,16412,-2276,-13,-48,-4
7995.196,307,-232,16324,-2268,-45,-37,6
7995.196,307,-232,16324,-2268,-45,-37,6
7995.196,307,-232,16324,-2268,-45,-37,6
8001.424,307,-232,16324,-2268,-45,-37,6
8005.670999999999,307,-232,16324,-2268,-45,-37,6
8005.670999999999,308,-232,16324,-2268,-45,-37,6
8009.684,308,-232,16324,-2268,-45,-37,6
8016.265,307,-216,16380,-2228,-18,-31,-7
8018.11,307,-216,16380,-2228,-18,-31,-7
8018.11,306,-216,16380,-2228,-18,-31,-7
8018.11,306,-216,16380,-2228,-18,-31,-7
8026.579,307,-216,16380,-2228,-18,-31,-7
8028.673,307,-216,16380,-2228,-18,-31,-7
8031.112999999999,308,-216,16380,-2228,-18,-31,-7
8031.112999999999,307,-220,16328,-2204,-57,-33,-6
8037.627,307,-220,16328,-2204,-57,-33,-6
8039.479,307,-220,16328,-2204,-57,-33,-6
8039.479,306,-220,16328,-2204,-57,-33,-6
8043.468000000001,308,-220,16328,-2204,-57,-33,-6
8043.468000000001,307,-220,16328,-2204,-57,-33,-6
8053.1539999999995,306,-220,16328,-2204,-57,-33,-6
8053.1539999999995,306,-220,16352,-2248,-45,-28,-12
8053.1539999999995,305,-220,16352,-2248,-45,-28,-12
8059.606000000001,306,-220,16352,-2248,-45,-28,-12
8061.616000000001,306,-220,16352,-2248,-45,-28,-12
8065.727000000001,306,-220,16352,-2248,-45,-28,-12
8069.445,306,-220,16352,-2248,-45,-28,-12
8071.052999999999,307,-220,16352,-2248,-45,-28,-12
8071.052999999999,307,-176,16296,-2212,-41,-33,-4
8077.712,307,-176,16296,-2212,-41,-33,-4
8077.712,307,-176,16296,-2212,-41,-33,-4
8083.322000000001,306,-176,16296,-2212,-41,-33,-4
8085.756,306,-176,16296,-2212,-41,-33,-4
8089.141,306,-176,16296,-2212,-41,-33,-4
8090.752,306,-176,16296,-2212,-41,-33,-4
8093.384,307,-224,16348,-2264,-17,-39,-11
8096.317000000001,307,-224,16348,-2264,-17,-39,-11
8100.889999999999,307,-224,16348,-2264,-17,-39,-11
8100.889999999999,307,-224,16348,-2264,-17,-39,-11
8100.889999999999,307,-224,16348,-2264,-17,-39,-11
8109.463999999999,307,-224,16348,-2264,-17,-39,-11
8109.463999999999,307,-224,16348,-2264,-17,-39,-11
8113.754999999999,307,-212,16356,-2240,-36,-31,-15
8118.677999999999,307,-212,16356,-2240,-36,-31,-15
8118.677999999999,308,-212,16356,-2240,-36,-31,-15
8118.677999999999,307,-212,16356,-2240,-36,-31,-15
8126.863,308,-212,16356,-2240,-36,-31,-15
8126.863,308,-212,16356,-2240,-36,-31,-15
8132.094,307,-212,16356,-2240,-36,-31,-15
8135.139,306,-212,16324,-2268,-53,-30,0
8137.527,306,-212,16324,-2268,-53,-30,0
8137.527,307,-212,16324,-2268,-53,-30,0
8143.433999999999,307,-212,16324,-2268,-53,-30,0
8146.746,307,-212,16324,-2268,-53,-30,0
8150.052000000001,307,-212,16324,-2268,-53,-30,0
8151.864,308,-212,16324,-2268,-53,-30,0
8151.864,307,-192,16340,-2224,-26,-26,-8
8151.864,308,-192,16340,-2224,-26,-26,-8
8159.92,307,-192,16340,-2224,-26,-26,-8
8163.942999999999,308,-192,16340,-2224,-26,-26,-8
8166.402,308,-192,16340,-2224,-26,-26,-8
8168.138000000001,308,-192,16340,-2224,-26,-26,-8
8171.910000000001,306,-192,16340,-2224,-26,-26,-8
8176.3189999999995,307,-212,16368,-2232,-19,-33,-19
8176.3189999999995,307,-212,16368,-2232,-19,-33,-19
8180.5830000000005,307,-212,16368,-2232,-19,-33,-19
8184.354000000001,308,-212,16368,-2232,-19,-33,-19
8188.329,307,-212,16368,-2232,-19,-33,-19
8189.961,308,-212,16368,-2232,-19,-33,-19
8192.508,307,-212,16368,-2232,-19,-33,-19
8196.84,307,-212,16352,-2260,-48,-41,0
8197.996,307,-212,16352,-2260,-48,-41,0
8200.76,307,-212,16352,-2260,-48,-41,0
8204.792,308,-212,16352,-2260,-48,-41,0
8206.809,307,-212,16352,-2260,-48,-41,0
8208.823,308,-212,16352,-2260,-48,-41,0
8212.983,307,-212,16352,-2260,-48,-41,0
8214.378,307,-212,16348,-2224,-36,-33,-13
8216.478000000001,307,-212,16348,-2224,-36,-33,-13
8218.01,308,-212,16348,-2224,-36,-33,-13
8224.672999999999,307,-212,16348,-2224,-36,-33,-13
8224.672999999999,308,-212,16348,-2224,-36,-33,-13
8228.034,308,-212,16348,-2224,-36,-33,-13
8232.732,307,-212,16348,-2224,-36,-33,-13
8232.732,307,-224,16324,-2260,-21,-36,-31
8237.518,308,-224,16324,-2260,-21,-36,-31
8240.82,308,-224,16324,-2260,-21,-36,-31
8240.82,308,-224,16324,-2260,-21,-36,-31
8247.634,307,-224,16324,-2260,-21,-36,-31
8249.171,308,-224,16324,-2260,-21,-36,-31
8249.171,307,-224,16324,-2260,-21,-36,-31
8249.171,307,-192,16364,-2268,-70,-18,-16
8257.506,307,-192,16364,-2268,-70,-18,-16
8257.506,307,-192,16364,-2268,-70,-18,-16
8265.875,307,-192,16364,-2268,-70,-18,-16
8265.875,308,-192,16364,-2268,-70,-18,-16
8265.875,307,-192,16364,-2268,-70,-18,-16
8273.929,306,-192,16364,-2268,-70,-18,-16
8273.929,307,-224,16276,-2188,-31,-41,13
8273.929,307,-224,16276,-2188,-31,-41,13
8282.241,307,-224,16276,-2188,-31,-41,13
8284.259,308,-224,16276,-2188,-31,-41,13
8286.529,307,-224,16276,-2188,-31,-41,13
8290.714,308,-224,16276,-2188,-31,-41,13
8292.726999999999,307,-224,16276,-2188,-31,-41,13
8296.408,307,-172,16400,-2224,11,-39,-13
8299.281,307,-172,16400,-2224,11,-39,-13
8302.964,308,-172,16400,-2224,11,-39,-13
8302.964,307,-172,16400,-2224,11,-39,-13
8306.737,309,-172,16400,-2224,11,-39,-13
8306.737,308,-172,16400,-2224,11,-39,-13
8306.737,308,-172,16400,-2224,11,-39,-13
8314.972,307,-220,16340,-2272,-67,-41,-12
8319.568000000001,307,-220,16340,-2272,-67,-41,-12
8323.003,307,-220,16340,-2272,-67,-41,-12
8323.003,308,-220,16340,-2272,-67,-41,-12
8327.574999999999,309,-220,16340,-2272,-67,-41,-12
8330.71,308,-220,16340,-2272,-67,-41,-12
8332.738000000001,308,-220,16340,-2272,-67,-41,-12
8335.744999999999,307,-212,16292,-2216,-22,-38,-10
8338.783,307,-212,16292,-2216,-22,-38,-10
8338.783,307,-212,16292,-2216,-22,-38,-10
8347.403,307,-212,16292,-2216,-22,-38,-10
8349.131,307,-212,16292,-2216,-22,-38,-10
8352.296,307,-212,16292,-2216,-22,-38,-10
8352.296,308,-224,16388,-2228,2,-28,2
8355.025,307,-224,16388,-2228,2,-28,2
8355.025,309,-224,16388,-2228,2,-28,2
8363.146,308,-224,16388,-2228,2,-28,2
8364.414,307,-224,16388,-2228,2,-28,2
8366.431,307,-224,16388,-2228,2,-28,2
8366.431,308,-224,16388,-2228,2,-28,2
8371.273000000001,307,-224,16388,-2228,2,-28,2
8371.273000000001,307,-204,16328,-2272,-56,-48,-13
8371.273000000001,307,-204,16328,-2272,-56,-48,-13
8380.597,307,-204,16328,-2272,-56,-48,-13
8385.084,307,-204,16328,-2272,-56,-48,-13
8387.355,308,-204,16328,-2272,-56,-48,-13
8389.379,308,-204,16328,-2272,-56,-48,-13
8389.379,308,-204,16328,-2272,-56,-48,-13
8395.456,307,-216,16312,-2220,-67,-31,-21
8397.042000000001,307,-216,16312,-2220,-67,-31,-21
8397.042000000001,307,-216,16312,-2220,-67,-31,-21
8403.753,307,-216,16312,-2220,-67,-31,-21
8403.753,308,-216,16312,-2220,-67,-31,-21
8403.753,307,-216,16312,-2220,-67,-31,-21
8413.904999999999,307,-216,16312,-2220,-67,-31,-21
8413.904999999999,307,-168,16356,-2264,4,-18,-5
8413.904999999999,308,-168,16356,-2264,4,-18,-5
8420.355000000001,308,-168,16356,-2264,4,-18,-5
8420.355000000001,307,-168,16356,-2264,4,-18,-5
8420.355000000001,308,-168,16356,-2264,4,-18,-5
8430.289,307,-168,16356,-2264,4,-18,-5
8430.289,308,-168,16356,-2264,4,-18,-5
8430.289,307,-212,16324,-2212,-22,-13,7
8438.409,307,-212,16324,-2212,-22,-13,7
8438.409,307,-212,16324,-2212,-22,-13,7
8438.409,308,-212,16324,-2212,-22,-13,7
8445.393,308,-212,16324,-2212,-22,-13,7
8447.419,308,-212,16324,-2212,-22,-13,7
8447.419,309,-212,16324,-2212,-22,-13,7
8453.590999999999,307,-212,16324,-2212,-22,-13,7
8453.590999999999,308,-216,16324,-2232,-53,-45,-10
8453.590999999999,307,-216,16324,-2232,-53,-45,-10
8461.951,307,-216,16324,-2232,-53,-45,-10
8463.971000000001,308,-216,16324,-2232,-53,-45,-10
8463.971000000001,308,-216,16324,-2232,-53,-45,-10
8470.235,307,-216,16324,-2232,-53,-45,-10
8470.235,307,-216,16324,-2232,-53,-45,-10
8470.235,306,-200,16372,-2252,-20,-50,-37
8480.509,307,-200,16372,-2252,-20,-50,-37
8482.534,307,-200,16372,-2252,-20,-50,-37
8486.921,307,-200,16372,-2252,-20,-50,-37
8486.921,307,-200,16372,-2252,-20,-50,-37
8486.921,307,-200,16372,-2252,-20,-50,-37
8495.002,308,-228,16332,-2220,-54,-31,-2
8497.377,307,-228,16332,-2220,-54,-31,-2
8497.377,308,-228,16332,-2220,-54,-31,-2
8503.501999999999,308,-228,16332,-2220,-54,-31,-2
8503.501999999999,307,-228,16332,-2220,-54,-31,-2
8503.501999999999,308,-228,16332,-2220,-54,-31,-2
8511.756,308,-228,16332,-2220,-54,-31,-2
8514.899,307,-180,16368,-2228,-35,-56,-16
8514.899,307,-180,16368,-2228,-35,-56,-16
8520.035,307,-180,16368,-2228,-35,-56,-16
8520.035,308,-180,16368,-2228,-35,-56,-16
8520.035,308,-180,16368,-2228,-35,-56,-16
8528.345,308,-180,16368,-2228,-35,-56,-16
8530.944,307,-180,16368,-2228,-35,-56,-16
8536.483,307,-228,16352,-2248,-39,-49,-14
8536.483,307,-228,16352,-2248,-39,-49,-14
8538.587,308,-228,16352,-2248,-39,-49,-14
8544.916000000001,308,-228,16352,-2248,-39,-49,-14
8546.826,307,-228,16352,-2248,-39,-49,-14
8546.826,308,-228,16352,-2248,-39,-49,-14
8553.276,308,-228,16352,-2248,-39,-49,-14
8555.289999999999,308,-216,16352,-2228,-43,-39,-16
8559.068,308,-216,16352,-2228,-43,-39,-16
8561.415,308,-216,16352,-2228,-43,-39,-16
8563.432999999999,308,-216,16352,-2228,-43,-39,-16
8563.432999999999,307,-216,16352,-2228,-43,-39,-16
8569.646,307,-216,16352,-2228,-43,-39,-16
8573.347,307,-216,16352,-2228,-43,-39,-16
8573.347,307,-176,16292,-2256,-29,-17,-9
8577.839000000002,307,-176,16292,-2256,-29,-17,-9
8580.317000000001,307,-176,16292,-2256,-29,-17,-9
8585.92,307,-176,16292,-2256,-29,-17,-9
8585.92,307,-176,16292,-2256,-29,-17,-9
8585.92,307,-176,16292,-2256,-29,-17,-9
8585.92,306,-176,16292,-2256,-29,-17,-9
8594.16,307,-224,16404,-2260,-26,-33,-8
8596.828,307,-224,16404,-2260,-26,-33,-8
8602.337,306,-224,16404,-2260,-26,-33,-8
8603.706,307,-224,16404,-2260,-26,-33,-8
8607.809,307,-224,16404,-2260,-26,-33,-8
8610.56,307,-224,16404,-2260,-26,-33,-8
8614.535,307,-224,16404,-2260,-26,-33,-8
8616.521,307,-196,16328,-2248,-46,-49,-15
8618.710000000001,308,-196,16328,-2248,-46,-49,-15
8622.472,309,-196,16328,-2248,-46,-49,-15
8622.472,308,-196,16328,-2248,-46,-49,-15
8626.857,307,-196,16328,-2248,-46,-49,-15
8626.857,308,-196,16328,-2248,-46,-49,-15
8631.584,307,-196,16328,-2248,-46,-49,-15
8635.364,308,-196,16296,-2252,-33,-32,6
8638.693,307,-196,16296,-2252,-33,-32,6
8638.693,308,-196,16296,-2252,-33,-32,6
8643.391,307,-196,16296,-2252,-33,-32,6
8647.214999999998,308,-196,16296,-2252,-33,-32,6
8647.214999999998,308,-196,16296,-2252,-33,-32,6
8653.432999999999,307,-196,16296,-2252,-33,-32,6
8653.432999999999,307,-296,16352,-2228,-13,-36,-5
8659.542,307,-296,16352,-2228,-13,-36,-5
8659.542,307,-296,16352,-2228,-13,-36,-5
8662.736,307,-296,16352,-2228,-13,-36,-5
8667.807,308,-296,16352,-2228,-13,-36,-5
8667.807,307,-296,16352,-2228,-13,-36,-5
8672.288,308,-296,16352,-2228,-13,-36,-5
8675.882,307,-200,16324,-2268,-13,-61,-11
8679.610999999999,307,-200,16324,-2268,-13,-61,-11
8681.258,307,-200,16324,-2268,-13,-61,-11
8681.258,307,-200,16324,-2268,-13,-61,-11
8684.386,306,-200,16324,-2268,-13,-61,-11
8684.386,307,-200,16324,-2268,-13,-61,-11
8692.74,307,-200,16324,-2268,-13,-61,-11
8692.74,306,-220,16352,-2252,-57,-35,-7
8699.448,307,-220,16352,-2252,-57,-35,-7
8701.190999999999,308,-220,16352,-2252,-57,-35,-7
8701.190999999999,308,-220,16352,-2252,-57,-35,-7
8701.190999999999,308,-220,16352,-2252,-57,-35,-7
8709.312,308,-220,16352,-2252,-57,-35,-7
8713.164,308,-220,16352,-2252,-57,-35,-7
8714.029,307,-224,16296,-2252,-13,-46,-4
8717.663,307,-224,16296,-2252,-13,-46,-4
8717.663,308,-224,16296,-2252,-13,-46,-4
8717.663,307,-224,16296,-2252,-13,-46,-4
8725.729,307,-224,16296,-2252,-13,-46,-4
8731.305,308,-224,16296,-2252,-13,-46,-4
8731.305,307,-224,16296,-2252,-13,-46,-4
8737.137,307,-116,16372,-2256,-34,-28,-16
8739.157000000001,307,-116,16372,-2256,-34,-28,-16
8739.157000000001,307,-116,16372,-2256,-34,-28,-16
8742.432,307,-116,16372,-2256,-34,-28,-16
8747.219,308,-116,16372,-2256,-34,-28,-16
8751.23,308,-116,16372,-2256,-34,-28,-16
8753.544,308,-116,16372,-2256,-34,-28,-16
8753.544,307,-232,16372,-2244,-48,-29,-4
8753.544,307,-232,16372,-2244,-48,-29,-4
8761.718,307,-232,16372,-2244,-48,-29,-4
8764.296999999999,307,-232,16372,-2244,-48,-29,-4
8766.988,307,-232,16372,-2244,-48,-29,-4
8770.042,308,-232,16372,-2244,-48,-29,-4
8770.042,307,-232,16372,-2244,-48,-29,-4
8775.243,308,-196,16320,-2264,-44,-46,-2
8775.243,307,-196,16320,-2264,-44,-46,-2
8779.895,307,-196,16320,-2264,-44,-46,-2
8783.759,307,-196,16320,-2264,-44,-46,-2
8786.275,308,-196,16320,-2264,-44,-46,-2
8786.275,307,-196,16320,-2264,-44,-46,-2
8791.877,307,-196,16320,-2264,-44,-46,-2
8791.877,307,-164,16384,-2288,-10,-46,-22
8799.960000000001,307,-164,16384,-2288,-10,-46,-22
8799.960000000001,308,-164,16384,-2288,-10,-46,-22
8804.582999999999,308,-164,16384,-2288,-10,-46,-22
8806.595,307,-164,16384,-2288,-10,-46,-22
8810.371,308,-164,16384,-2288,-10,-46,-22
8816.117,307,-164,16384,-2288,-10,-46,-22
8818.136,306,-216,16364,-2252,-53,-28,-7
8820.154,307,-216,16364,-2252,-53,-28,-7
8822.168,307,-216,16364,-2252,-53,-28,-7
8824.178,308,-216,16364,-2252,-53,-28,-7
8828.408,308,-216,16364,-2252,-53,-28,-7
8831.31,307,-216,16364,-2252,-53,-28,-7
8834.353000000001,308,-216,16364,-2252,-53,-28,-7
8836.368999999999,308,-144,16304,-2264,-47,-51,-4
8839.4,308,-144,16304,-2264,-47,-51,-4
8840.415,308,-144,16304,-2264,-47,-51,-4
8844.443,307,-144,16304,-2264,-47,-51,-4
8846.460000000001,308,-144,16304,-2264,-47,-51,-4
8850.493999999999,308,-144,16304,-2264,-47,-51,-4
8852.518999999998,307,-144,16304,-2264,-47,-51,-4
8856.550000000001,307,-208,16328,-2232,-15,-43,-1
8858.565999999999,307,-208,16328,-2232,-15,-43,-1
8860.581,307,-208,16328,-2232,-15,-43,-1
8864.922,307,-208,16328,-2232,-15,-43,-1
8866.939999999999,307,-208,16328,-2232,-15,-43,-1
8870.976,308,-208,16328,-2232,-15,-43,-1
8872.992,307,-208,16328,-2232,-15,-43,-1
8877.02,307,-192,16356,-2272,-20,-40,-24
8879.030999999999,307,-192,16356,-2272,-20,-40,-24
8881.267,308,-192,16356,-2272,-20,-40,-24
8885.298999999999,308,-192,16356,-2272,-20,-40,-24
8887.314999999999,307,-192,16356,-2272,-20,-40,-24
8889.332,308,-192,16356,-2272,-20,-40,-24
8893.362,308,-192,16356,-2272,-20,-40,-24
8896.134999999998,308,-200,16320,-2260,-76,-36,-16
8897.769999999999,308,-200,16320,-2260,-76,-36,-16
8902.300000000001,307,-200,16320,-2260,-76,-36,-16
8905.677000000001,308,-200,16320,-2260,-76,-36,-16
8907.693,308,-200,16320,-2260,-76,-36,-16
8909.706999999999,308,-200,16320,-2260,-76,-36,-16
8913.76,308,-200,16320,-2260,-76,-36,-16
8917.794,307,-172,16388,-2232,-11,-29,-21
8919.817000000001,307,-172,16388,-2232,-11,-29,-21
8921.832999999999,308,-172,16388,-2232,-11,-29,-21
8921.832999999999,308,-172,16388,-2232,-11,-29,-21
8930.03,308,-172,16388,-2232,-11,-29,-21
8932.055,308,-172,16388,-2232,-11,-29,-21
8934.072,308,-172,16388,-2232,-11,-29,-21
8938.100999999999,307,-208,16320,-2248,-24,-27,1
8939.617,308,-208,16320,-2248,-24,-27,1
8943.197,308,-208,16320,-2248,-24,-27,1
8946.538999999999,309,-208,16320,-2248,-24,-27,1
8947.266000000001,308,-208,16320,-2248,-24,-27,1
8949.283,308,-208,16320,-2248,-24,-27,1
8954.86,307,-208,16320,-2248,-24,-27,1
8954.86,307,-216,16404,-2252,-69,-34,2
8954.86,307,-216,16404,-2252,-69,-34,2
8963.168,307,-216,16404,-2252,-69,-34,2
8963.495,308,-216,16404,-2252,-69,-34,2
8963.495,308,-216,16404,-2252,-69,-34,2
8963.495,308,-216,16404,-2252,-69,-34,2
8971.491,307,-216,16404,-2252,-69,-34,2
8971.491,307,-216,16428,-2228,-25,-39,-23
8979.691,307,-216,16428,-2228,-25,-39,-23
8981.550000000001,308,-216,16428,-2228,-25,-39,-23
8981.550000000001,308,-216,16428,-2228,-25,-39,-23
8981.550000000001,308,-216,16428,-2228,-25,-39,-23
8988.291000000001,308,-216,16428,-2228,-25,-39,-23
8988.291000000001,307,-216,16428,-2228,-25,-39,-23
8996.686,307,-188,16316,-2264,-43,-35,-15
8996.686,307,-188,16316,-2264,-43,-35,-15
9003.807,308,-188,16316,-2264,-43,-35,-15
9004.822,307,-188,16316,-2264,-43,-35,-15
9004.822,307,-188,16316,-2264,-43,-35,-15
9004.822,307,-188,16316,-2264,-43,-35,-15
9013.54,307,-188,16316,-2264,-43,-35,-15
9017.274000000001,307,-208,16340,-2256,-45,-38,-13
9017.274000000001,307,-208,16340,-2256,-45,-38,-13
9021.554,308,-208,16340,-2256,-45,-38,-13
9021.554,307,-208,16340,-2256,-45,-38,-13
9021.554,309,-208,16340,-2256,-45,-38,-13
9029.902999999998,307,-208,16340,-2256,-45,-38,-13
9029.902999999998,307,-208,16340,-2256,-45,-38,-13
9029.902999999998,307,-184,16384,-2296,-20,-42,-13
9039.604000000001,308,-184,16384,-2296,-20,-42,-13
9039.604000000001,308,-184,16384,-2296,-20,-42,-13
9046.162,307,-184,16384,-2296,-20,-42,-13
9046.162,308,-184,16384,-2296,-20,-42,-13
9046.162,307,-184,16384,-2296,-20,-42,-13
9054.662,307,-184,16384,-2296,-20,-42,-13
9054.662,306,-200,16272,-2212,-64,-37,-10
9054.662,307,-200,16272,-2212,-64,-37,-10
9063.886999999999,308,-200,16272,-2212,-64,-37,-10
9063.886999999999,308,-200,16272,-2212,-64,-37,-10
9063.886999999999,307,-200,16272,-2212,-64,-37,-10
9070.912999999999,307,-200,16272,-2212,-64,-37,-10
9074.643999999998,307,-200,16272,-2212,-64,-37,-10
9074.643999999998,307,-188,16336,-2192,-42,-26,-5
9079.226,308,-188,16336,-2192,-42,-26,-5
9079.226,307,-188,16336,-2192,-42,-26,-5
9087.434,308,-188,16336,-2192,-42,-26,-5
9089.594,308,-188,16336,-2192,-42,-26,-5
9089.594,308,-188,16336,-2192,-42,-26,-5
9096.655,307,-188,16336,-2192,-42,-26,-5
9097.793,307,-184,16360,-2240,-8,-38,-21
9097.793,308,-184,16360,-2240,-8,-38,-21
9104.288,308,-184,16360,-2240,-8,-38,-21
9106.739,308,-184,16360,-2240,-8,-38,-21
9106.739,307,-184,16360,-2240,-8,-38,-21
9113.244999999999,307,-184,16360,-2240,-8,-38,-21
9116.041,307,-184,16360,-2240,-8,-38,-21
9116.041,307,-208,16312,-2264,-45,-41,9
9121.798,308,-208,16312,-2264,-45,-41,9
9122.927000000001,307,-208,16312,-2264,-45,-41,9
9127.074999999999,308,-208,16312,-2264,-45,-41,9
9129.353,308,-208,16312,-2264,-45,-41,9
9132.887999999999,307,-208,16312,-2264,-45,-41,9
9133.545,307,-208,16312,-2264,-45,-41,9
9137.724,307,-212,16324,-2248,-58,-32,-36
9139.746000000001,308,-212,16324,-2248,-58,-32,-36
9139.746000000001,307,-212,16324,-2248,-58,-32,-36
9145.839,308,-212,16324,-2248,-58,-32,-36
9145.839,308,-212,16324,-2248,-58,-32,-36
9145.839,307,-212,16324,-2248,-58,-32,-36
9154.462000000001,307,-212,16324,-2248,-58,-32,-36
9154.462000000001,307,-188,16288,-2216,20,-38,-10
9154.462000000001,308,-188,16288,-2216,20,-38,-10
9164.158000000001,307,-188,16288,-2216,20,-38,-10
9166.179,309,-188,16288,-2216,20,-38,-10
9166.179,308,-188,16288,-2216,20,-38,-10
9170.911,308,-188,16288,-2216,20,-38,-10
9170.911,307,-188,16288,-2216,20,-38,-10
9170.911,307,-244,16388,-2256,-47,-45,-21
9181.393999999998,308,-244,16388,-2256,-47,-45,-21
9183.762,307,-244,16388,-2256,-47,-45,-21
9187.944,307,-244,16388,-2256,-47,-45,-21
9189.958,307,-244,16388,-2256,-47,-45,-21
9191.971000000001,307,-244,16388,-2256,-47,-45,-21
9196.67,307,-244,16388,-2256,-47,-45,-21
9198.756,307,-216,16316,-2236,-61,-31,-5
9198.756,307,-216,16316,-2236,-61,-31,-5
9204.481,308,-216,16316,-2236,-61,-31,-5
9204.481,308,-216,16316,-2236,-61,-31,-5
9204.481,307,-216,16316,-2236,-61,-31,-5
9213.857,307,-216,16316,-2236,-61,-31,-5
9216.578,307,-216,16316,-2236,-61,-31,-5
9216.578,308,-252,16344,-2256,-29,-25,-25
9220.753,308,-252,16344,-2256,-29,-25,-25
9220.753,308,-252,16344,-2256,-29,-25,-25
9220.753,308,-252,16344,-2256,-29,-25,-25
9230.652,308,-252,16344,-2256,-29,-25,-25
9230.652,307,-252,16344,-2256,-29,-25,-25
9237.451000000001,306,-252,16344,-2256,-29,-25,-25
9237.451000000001,306,-204,16392,-2184,-10,-37,-1
9239.967,307,-204,16392,-2184,-10,-37,-1
9245.886,307,-204,16392,-2184,-10,-37,-1
9247.225,307,-204,16392,-2184,-10,-37,-1
9247.225,307,-204,16392,-2184,-10,-37,-1
9247.225,308,-204,16392,-2184,-10,-37,-1
9254.300000000001,307,-204,16392,-2184,-10,-37,-1
9258.546,307,-204,16380,-2256,-76,-51,-6
9262.715999999999,307,-204,16380,-2256,-76,-51,-6
9262.715999999999,307,-204,16380,-2256,-76,-51,-6
9262.715999999999,308,-204,16380,-2256,-76,-51,-6
9262.715999999999,307,-204,16380,-2256,-76,-51,-6
9271.062,307,-204,16380,-2256,-76,-51,-6
9271.062,307,-204,16380,-2256,-76,-51,-6
9271.062,308,-176,16368,-2256,-38,-41,-27
9280.412999999999,307,-176,16368,-2256,-38,-41,-27
9280.412999999999,307,-176,16368,-2256,-38,-41,-27
9280.412999999999,307,-176,16368,-2256,-38,-41,-27
9290.105000000001,308,-176,16368,-2256,-38,-41,-27
9290.105000000001,308,-176,16368,-2256,-38,-41,-27
9295.6,307,-176,16368,-2256,-38,-41,-27
9297.625,307,-264,16380,-2248,12,-40,3
9302.607,307,-264,16380,-2248,12,-40,3
9303.637999999999,308,-264,16380,-2248,12,-40,3
9303.637999999999,308,-264,16380,-2248,12,-40,3
9303.637999999999,308,-264,16380,-2248,12,-40,3
9311.832,307,-264,16380,-2248,12,-40,3
9313.856,307,-264,16380,-2248,12,-40,3
9318.953000000001,308,-240,16344,-2256,-72,-41,-12
9320.608,308,-240,16344,-2256,-72,-41,-12
9322.618,307,-240,16344,-2256,-72,-41,-12
9326.637,308,-240,16344,-2256,-72,-41,-12
9328.645,308,-240,16344,-2256,-72,-41,-12
9330.661,307,-240,16344,-2256,-72,-41,-12
9334.679,308,-240,16344,-2256,-72,-41,-12
9338.713,307,-180,16316,-2244,-71,-24,-16
9340.227,307,-180,16316,-2244,-71,-24,-16
9340.227,307,-180,16316,-2244,-71,-24,-16
9348.007000000001,308,-180,16316,-2244,-71,-24,-16
9348.007000000001,308,-180,16316,-2244,-71,-24,-16
9352.198,308,-180,16316,-2244,-71,-24,-16
9353.216,307,-180,16316,-2244,-71,-24,-16
9358.738000000001,308,-184,16356,-2216,-10,-29,-28
9360.751,307,-184,16356,-2216,-10,-29,-28
9363.481,308,-184,16356,-2216,-10,-29,-28
9363.481,308,-184,16356,-2216,-10,-29,-28
9368.819,308,-184,16356,-2216,-10,-29,-28
9368.819,308,-184,16356,-2216,-10,-29,-28
9368.819,307,-184,16356,-2216,-10,-29,-28
9380.389,307,-216,16292,-2228,-54,-58,-15
9383.183,307,-216,16292,-2228,-54,-58,-15
9385.203000000001,308,-216,16292,-2228,-54,-58,-15
9385.203000000001,309,-216,16292,-2228,-54,-58,-15
9391.591999999999,308,-216,16292,-2228,-54,-58,-15
