Time (ms),EMG1,EMG2,EMG3,EMG4,AccX,AccY,AccZ,GyroX,GyroY,GyroZ
1545.4470000000001,0,0,0,0,0,0,0,0,0,0
1545.4470000000001,0,0,0,0,0,0,0,0,0,0
1556.23,304,303,301,305,0,0,0,0,0,0
1556.23,303,304,301,305,0,0,0,0,0,0
1556.23,303,304,301,305,0,0,0,0,0,0
1567.047,303,304,302,305,0,0,0,0,0,0
1567.047,303,304,301,305,0,0,0,0,0,0
1567.047,303,304,301,305,0,0,0,0,0,0
1578.1989999999998,304,304,301,305,0,0,0,0,0,0
1578.1989999999998,304,304,301,305,0,0,0,0,0,0
1586.2050000000002,304,304,301,305,0,0,0,0,0,0
1590.092,304,304,302,305,0,0,0,0,0,0
1594.09,303,304,302,305,0,0,0,0,0,0
1596.124,303,304,302,305,0,0,0,0,0,0
1602.287,303,304,302,305,2048,16172,788,-60,10,-38
1602.287,303,304,301,305,2048,16172,788,-60,10,-38
1615.1979999999999,303,304,301,305,2048,16172,788,-60,10,-38
1618.3300000000002,303,304,301,305,2048,16172,788,-60,10,-38
1623.016,304,304,302,305,2048,16172,788,-60,10,-38
1626.395,303,304,302,305,2048,16172,788,-60,10,-38
1633.867,304,304,302,305,2048,16172,788,-60,10,-38
1637.769,304,304,301,305,2048,16172,788,-60,10,-38
1644.259,304,304,302,305,2096,16464,868,15,36,-70
1652.057,303,303,302,305,2096,16464,868,15,36,-70
1656.1589999999999,303,305,302,305,2096,16464,868,15,36,-70
1660.2369999999999,304,304,301,305,2096,16464,868,15,36,-70
1667.459,303,304,302,305,2096,16464,868,15,36,-70
1667.459,303,304,301,305,2096,16464,868,15,36,-70
1667.459,304,304,302,305,2096,16464,868,15,36,-70
1678.401,304,304,302,305,2004,16020,816,-104,8,50
1688.6989999999998,303,304,302,305,2004,16020,816,-104,8,50
1693.023,304,304,302,305,2004,16020,816,-104,8,50
1697.117,303,304,302,305,2004,16020,816,-104,8,50
1700.683,303,304,302,305,2004,16020,816,-104,8,50
1700.683,304,304,302,305,2004,16020,816,-104,8,50
1713.5,304,304,302,305,2004,16020,816,-104,8,50
1716.644,304,304,301,305,2004,16020,816,-104,8,50
1722.931,304,304,301,305,2048,16296,808,-39,41,-71
1722.931,304,304,302,305,2048,16296,808,-39,41,-71
1733.981,303,304,301,305,2048,16296,808,-39,41,-71
1742.184,304,304,302,305,2048,16296,808,-39,41,-71
1746.2759999999998,303,304,302,305,2048,16296,808,-39,41,-71
1750.356,304,304,302,305,2048,16296,808,-39,41,-71
1758.545,305,304,301,305,2048,16296,808,-39,41,-71
1759.457,304,304,302,305,2048,16296,808,-39,41,-71
1766.4820000000002,304,304,302,305,2076,16452,900,-61,40,-11
1773.0520000000001,304,304,302,305,2076,16452,900,-61,40,-11
1778.577,303,304,302,305,2076,16452,900,-61,40,-11
1778.577,303,304,302,305,2076,16452,900,-61,40,-11
1789.469,303,304,302,305,2076,16452,900,-61,40,-11
1789.469,304,304,302,305,2076,16452,900,-61,40,-11
1799.82,304,304,301,305,2076,16452,900,-61,40,-11
1803.423,304,304,302,305,1984,16040,848,-78,14,-20
1811.821,303,304,301,305,1984,16040,848,-78,14,-20
1815.9099999999999,304,304,302,305,1984,16040,848,-78,14,-20
1817.923,304,304,301,305,1984,16040,848,-78,14,-20
1823.056,304,304,302,305,1984,16040,848,-78,14,-20
1823.056,303,304,302,305,1984,16040,848,-78,14,-20
1834.2,304,304,301,305,1984,16040,848,-78,14,-20
1844.2549999999999,304,304,302,305,2092,16612,892,-38,24,-34
1848.725,304,304,302,305,2092,16612,892,-38,24,-34
1852.749,304,305,301,305,2092,16612,892,-38,24,-34
1860.952,304,304,302,305,2092,16612,892,-38,24,-34
1865.114,304,305,302,305,2092,16612,892,-38,24,-34
1869.156,304,304,302,305,2092,16612,892,-38,24,-34
1870.673,303,304,302,305,2092,16612,892,-38,24,-34
1881.433,304,304,302,305,2092,16612,892,-38,24,-34
1883.964,303,304,302,305,2032,16068,808,-87,-4,33
1889.645,304,304,302,305,2032,16068,808,-87,-4,33
1889.645,303,304,302,305,2032,16068,808,-87,-4,33
1900.544,303,304,302,305,2032,16068,808,-87,-4,33
1900.544,303,304,302,305,2032,16068,808,-87,-4,33
1914.1490000000001,303,304,302,305,2032,16068,808,-87,-4,33
1917.792,303,304,302,304,2032,16068,808,-87,-4,33
1922.043,304,304,302,305,2052,16464,824,-16,42,-80
1922.832,304,304,302,305,2052,16464,824,-16,42,-80
1934.7510000000002,304,304,302,304,2052,16464,824,-16,42,-80
1938.7669999999998,303,304,302,305,2052,16464,824,-16,42,-80
1939.769,303,304,302,305,2052,16464,824,-16,42,-80
1944.974,304,304,302,305,2052,16464,824,-16,42,-80
1955.3670000000002,303,304,302,305,2052,16464,824,-16,42,-80
1959.6970000000001,303,304,302,305,2052,16464,824,-16,42,-80
1967.278,304,304,302,305,2048,16272,880,-47,14,13
1971.552,305,304,302,305,2048,16272,880,-47,14,13
1973.567,304,304,302,305,2048,16272,880,-47,14,13
1978.538,304,304,302,305,2048,16272,880,-47,14,13
1986.542,303,304,302,305,2048,16272,880,-47,14,13
1989.485,304,304,302,305,2048,16272,880,-47,14,13
1989.485,304,304,302,305,2048,16272,880,-47,14,13
2004.308,304,304,302,305,2048,16272,880,-47,14,13
2008.41,304,304,302,305,2028,16196,780,-110,-11,-12
2012.511,304,304,302,305,2028,16196,780,-110,-11,-12
2020.7259999999999,304,304,302,305,2028,16196,780,-110,-11,-12
2024.239,303,304,302,305,2028,16196,780,-110,-11,-12
2025.206,303,304,302,305,2028,16196,780,-110,-11,-12
2034.0539999999999,303,305,302,305,2028,16196,780,-110,-11,-12
2034.0539999999999,304,304,302,305,2028,16196,780,-110,-11,-12
2049.2129999999997,304,304,302,305,2092,16372,824,-15,33,-59
2050.165,304,304,302,305,2092,16372,824,-15,33,-59
2056.139,304,305,302,305,2092,16372,824,-15,33,-59
2058.1420000000003,304,304,302,305,2092,16372,824,-15,33,-59
2069.8500000000004,303,304,302,305,2092,16372,824,-15,33,-59
2073.9390000000003,303,305,301,305,2092,16372,824,-15,33,-59
2078.502,303,304,302,305,2092,16372,824,-15,33,-59
2078.502,303,305,302,305,2072,16168,840,-96,11,21
2090.5,304,304,302,305,2072,16168,840,-96,11,21
2094.5209999999997,304,304,302,305,2072,16168,840,-96,11,21
2100.479,304,304,302,305,2072,16168,840,-96,11,21
2100.479,304,304,301,305,2072,16168,840,-96,11,21
2110.926,304,304,302,305,2072,16168,840,-96,11,21
2118.9990000000003,304,304,302,305,2072,16168,840,-96,11,21
2123.0829999999996,304,304,302,305,2072,16168,840,-96,11,21
2127.183,303,304,302,305,2020,16288,844,-26,27,-36
2131.268,304,304,302,305,2020,16288,844,-26,27,-36
2139.561,304,304,302,305,2020,16288,844,-26,27,-36
2139.561,304,304,301,305,2020,16288,844,-26,27,-36
2145.416,304,304,302,305,2020,16288,844,-26,27,-36
2155.379,303,304,302,304,2020,16288,844,-26,27,-36
2158.694,304,304,302,305,2020,16288,844,-26,27,-36
2158.694,304,304,302,305,2064,16400,840,-69,26,-8
2172.159,304,304,302,305,2064,16400,840,-69,26,-8
2176.268,304,304,302,305,2064,16400,840,-69,26,-8
2178.329,303,304,302,305,2064,16400,840,-69,26,-8
2178.329,304,304,302,305,2064,16400,840,-69,26,-8
2192.726,303,304,302,305,2064,16400,840,-69,26,-8
2196.82,303,304,302,305,2064,16400,840,-69,26,-8
2200.52,303,304,302,305,2064,16400,840,-69,26,-8
2200.52,304,304,302,305,2032,16144,768,-53,-11,-10
2213.2019999999998,304,304,302,305,2032,16144,768,-53,-11,-10
2217.297,303,304,302,305,2032,16144,768,-53,-11,-10
2225.4809999999998,304,304,302,305,2032,16144,768,-53,-11,-10
2229.5699999999997,304,305,302,305,2032,16144,768,-53,-11,-10
2234.018,304,304,302,305,2032,16144,768,-53,-11,-10
2234.018,304,304,302,305,2032,16144,768,-53,-11,-10
2245.969,304,304,302,305,2024,16372,852,-55,14,-42
2250.066,304,304,302,305,2024,16372,852,-55,14,-42
2256.3140000000003,304,304,301,305,2024,16372,852,-55,14,-42
2258.819,303,304,302,305,2024,16372,852,-55,14,-42
2266.4849999999997,304,304,301,304,2024,16372,852,-55,14,-42
2267.391,304,304,301,305,2024,16372,852,-55,14,-42
2278.725,304,304,302,305,2024,16372,852,-55,14,-42
2282.731,304,304,302,305,2024,16372,852,-55,14,-42
2289.544,304,304,302,305,2088,16396,892,-41,23,-2
2289.544,304,304,302,305,2088,16396,892,-41,23,-2
2289.544,303,304,302,305,2088,16396,892,-41,23,-2
2303.314,303,304,302,305,2088,16396,892,-41,23,-2
2311.1989999999996,304,304,302,305,2088,16396,892,-41,23,-2
2312.331,303,304,302,305,2088,16396,892,-41,23,-2
2312.331,304,304,302,305,2088,16396,892,-41,23,-2
2322.799,303,304,302,305,2048,16268,824,-67,11,-23
2322.799,304,304,302,305,2048,16268,824,-67,11,-23
2336.0699999999997,304,304,302,304,2048,16268,824,-67,11,-23
2344.276,303,304,302,304,2048,16268,824,-67,11,-23
2345.2099999999996,303,304,302,305,2048,16268,824,-67,11,-23
2345.2099999999996,304,304,302,305,2048,16268,824,-67,11,-23
2357.017,304,304,302,305,2048,16268,824,-67,11,-23
2361.268,304,304,301,305,2048,16268,824,-67,11,-23
2367.559,303,304,302,305,2092,16328,864,-35,12,-47
2367.559,303,304,302,305,2092,16328,864,-35,12,-47
2381.118,303,304,302,305,2092,16328,864,-35,12,-47
2385.2129999999997,303,304,301,305,2092,16328,864,-35,12,-47
2389.536,304,304,302,305,2092,16328,864,-35,12,-47
2397.511,304,304,302,305,2092,16328,864,-35,12,-47
2401.201,304,304,302,305,2092,16328,864,-35,12,-47
2401.201,304,304,302,305,2100,16316,868,-94,0,-6
2401.201,304,304,302,305,2100,16316,868,-94,0,-6
2417.394,303,304,302,305,2100,16316,868,-94,0,-6
2422.0640000000003,303,304,302,305,2100,16316,868,-94,0,-6
2423.34,303,304,302,305,2100,16316,868,-94,0,-6
2434.043,303,304,302,305,2100,16316,868,-94,0,-6
2434.043,305,304,302,305,2100,16316,868,-94,0,-6
2434.043,304,304,302,305,2100,16316,868,-94,0,-6
2446.725,304,304,302,305,1988,16256,800,-38,17,-13
2454.857,304,304,302,305,1988,16256,800,-38,17,-13
2459.023,304,304,302,305,1988,16256,800,-38,17,-13
2461.807,303,304,302,305,1988,16256,800,-38,17,-13
2467.509,304,304,302,305,1988,16256,800,-38,17,-13
2467.509,303,304,301,305,1988,16256,800,-38,17,-13
2478.4120000000003,304,304,302,305,1988,16256,800,-38,17,-13
2485.916,304,304,302,305,1812,15508,368,-92,14,-77
2491.728,304,304,302,305,1812,15508,368,-92,14,-77
2495.42,304,304,302,305,1812,15508,368,-92,14,-77
2499.8019999999997,304,304,302,305,1812,15508,368,-92,14,-77
2500.5190000000002,304,304,301,305,1812,15508,368,-92,14,-77
2512.189,304,304,301,305,1812,15508,368,-92,14,-77
2516.278,304,304,302,305,1812,15508,368,-92,14,-77
2524.4680000000003,305,304,302,305,1812,15508,368,-92,14,-77
2528.574,304,304,302,305,2100,16704,1028,-66,-4,33
2533.229,304,304,302,305,2100,16704,1028,-66,-4,33
2533.992,304,304,302,305,2100,16704,1028,-66,-4,33
2545.3070000000002,304,304,301,305,2100,16704,1028,-66,-4,33
2545.3070000000002,303,304,302,304,2100,16704,1028,-66,-4,33
2556.82,303,304,302,305,2100,16704,1028,-66,-4,33
2561.3320000000003,304,304,302,305,2100,16704,1028,-66,-4,33
2561.8289999999997,304,304,302,305,2104,16316,856,-50,19,-66
2573.629,304,304,301,304,2104,16316,856,-50,19,-66
2577.5860000000002,304,304,302,305,2104,16316,856,-50,19,-66
2581.742,304,304,302,305,2104,16316,856,-50,19,-66
2589.7169999999996,304,304,302,305,2104,16316,856,-50,19,-66
2590.967,303,304,302,305,2104,16316,856,-50,19,-66
2590.967,303,304,302,305,2104,16316,856,-50,19,-66
2602.329,304,304,302,305,2104,16316,856,-50,19,-66
2608.075,304,304,302,305,2180,16704,804,59,38,51
2614.575,303,304,302,305,2180,16704,804,59,38,51
2618.3399999999997,304,304,302,305,2180,16704,804,59,38,51
2624.382,304,304,302,305,2180,16704,804,59,38,51
2624.382,304,304,302,305,2180,16704,804,59,38,51
2634.944,303,304,302,305,2180,16704,804,59,38,51
2634.944,304,304,302,305,2180,16704,804,59,38,51
2645.5730000000003,304,304,302,305,1888,15492,684,-134,-15,-10
2645.5730000000003,304,304,302,305,1888,15492,684,-134,-15,-10
2655.375,303,304,302,305,1888,15492,684,-134,-15,-10
2662.985,304,304,301,305,1888,15492,684,-134,-15,-10
2667.489,303,304,302,305,1888,15492,684,-134,-15,-10
2673.817,304,304,302,305,1888,15492,684,-134,-15,-10
2679.705,303,304,302,305,1888,15492,684,-134,-15,-10
2679.705,304,304,302,305,2124,16624,876,105,45,-80
2691.8869999999997,304,304,302,305,2124,16624,876,105,45,-80
2691.8869999999997,305,304,302,305,2124,16624,876,105,45,-80
2700.8450000000003,304,304,302,305,2124,16624,876,105,45,-80
2704.725,304,304,302,305,2124,16624,876,105,45,-80
2712.547,304,304,302,305,2124,16624,876,105,45,-80
2714.299,303,304,302,304,2124,16624,876,105,45,-80
2714.299,303,304,302,304,2124,16624,876,105,45,-80
2723.7219999999998,304,304,302,305,2048,16112,836,-173,-33,87
2733.151,304,304,302,304,2048,16112,836,-173,-33,87
2737.374,304,304,302,305,2048,16112,836,-173,-33,87
2745.336,304,304,302,305,2048,16112,836,-173,-33,87
2745.336,304,304,302,305,2048,16112,836,-173,-33,87
2745.336,304,304,302,305,2048,16112,836,-173,-33,87
2760.155,304,304,302,305,2048,16112,836,-173,-33,87
2766.47,304,304,301,305,1988,16100,732,-46,38,-61
2774.338,303,304,302,305,1988,16100,732,-46,38,-61
2778.2529999999997,304,304,302,305,1988,16100,732,-46,38,-61
2782.534,303,304,301,305,1988,16100,732,-46,38,-61
2785.8619999999996,304,304,302,305,1988,16100,732,-46,38,-61
2790.658,304,304,302,305,1988,16100,732,-46,38,-61
2790.658,303,304,302,305,1988,16100,732,-46,38,-61
2801.22,304,304,302,304,1988,16100,732,-46,38,-61
2810.925,303,304,302,304,2136,16544,940,-51,9,0
2814.2960000000003,304,304,302,305,2136,16544,940,-51,9,0
2814.2960000000003,304,304,302,305,2136,16544,940,-51,9,0
2823.032,304,304,302,305,2136,16544,940,-51,9,0
2831.735,304,304,302,304,2136,16544,940,-51,9,0
2835.145,304,303,302,305,2136,16544,940,-51,9,0
2839.8669999999997,304,304,302,305,2136,16544,940,-51,9,0
2844.2400000000002,304,304,302,305,2136,16544,940,-51,9,0
2845.869,303,304,301,305,1964,15920,836,-74,-5,20
2856.021,303,304,302,305,1964,15920,836,-74,-5,20
2860.021,303,304,302,305,1964,15920,836,-74,-5,20
2864.023,303,304,301,305,1964,15920,836,-74,-5,20
2872.64,303,304,301,304,1964,15920,836,-74,-5,20
2874.664,303,304,302,305,1964,15920,836,-74,-5,20
2877.907,303,304,302,305,1964,15920,836,-74,-5,20
2885.3740000000003,303,304,301,305,2164,16616,848,19,41,-70
2889.042,304,304,302,305,2164,16616,848,19,41,-70
2889.042,303,304,302,305,2164,16616,848,19,41,-70
2900.1749999999997,304,304,301,305,2164,16616,848,19,41,-70
2900.1749999999997,304,304,302,305,2164,16616,848,19,41,-70
2911.324,304,304,302,305,2164,16616,848,19,41,-70
2911.324,304,303,301,305,2164,16616,848,19,41,-70
2922.037,304,304,302,305,2164,16616,848,19,41,-70
2929.9750000000004,303,304,301,305,2040,16152,860,-82,-17,43
2933.51,303,304,301,305,2040,16152,860,-82,-17,43
2933.51,303,304,302,305,2040,16152,860,-82,-17,43
2944.613,304,304,302,305,2040,16152,860,-82,-17,43
2944.613,305,304,302,305,2040,16152,860,-82,-17,43
2944.613,304,304,302,305,2040,16152,860,-82,-17,43
2961.246,304,304,301,305,2040,16152,860,-82,-17,43
2966.87,303,304,302,305,2036,16264,744,-44,30,-63
2966.87,304,304,302,305,2036,16264,744,-44,30,-63
2977.975,304,304,302,305,2036,16264,744,-44,30,-63
2982.736,303,304,302,305,2036,16264,744,-44,30,-63
2986.665,304,304,302,305,2036,16264,744,-44,30,-63
2989.064,304,304,302,305,2036,16264,744,-44,30,-63
2999.8,305,304,302,305,2036,16264,744,-44,30,-63
3000.0719999999997,304,304,302,305,2036,16264,744,-44,30,-63
3000.0719999999997,304,304,302,305,2128,16460,904,-1,17,7
3011.32,303,304,302,305,2128,16460,904,-1,17,7
3011.32,304,305,302,305,2128,16460,904,-1,17,7
3023.183,304,304,302,305,2128,16460,904,-1,17,7
3023.183,303,304,302,305,2128,16460,904,-1,17,7
3036.292,304,304,302,305,2128,16460,904,-1,17,7
3040.552,304,304,302,305,2128,16460,904,-1,17,7
3044.272,304,304,302,305,2128,16460,904,-1,17,7
3048.7419999999997,304,304,301,305,2080,16444,860,-5,5,56
3052.067,303,304,301,305,2080,16444,860,-5,5,56
3056.967,304,304,302,305,2080,16444,860,-5,5,56
3061.471,304,304,302,305,2080,16444,860,-5,5,56
3067.881,303,304,302,305,2080,16444,860,-5,5,56
3067.881,303,304,302,305,2080,16444,860,-5,5,56
3081.5209999999997,303,304,302,305,2080,16444,860,-5,5,56
3084.788,304,304,301,305,2080,16444,860,-5,5,56
3089.715,304,304,301,305,1984,15996,772,-15,15,-35
3093.7960000000003,303,304,301,305,1984,15996,772,-15,15,-35
3101.7329999999997,303,304,302,305,1984,15996,772,-15,15,-35
3101.7329999999997,303,304,301,305,1984,15996,772,-15,15,-35
3101.7329999999997,304,304,302,305,1984,15996,772,-15,15,-35
3114.245,303,304,301,304,1984,15996,772,-15,15,-35
3122.0629999999996,304,304,302,305,1984,15996,772,-15,15,-35
3123.123,304,304,302,305,2080,16528,848,-40,15,-4
3134.148,304,304,302,305,2080,16528,848,-40,15,-4
3138.843,303,304,302,304,2080,16528,848,-40,15,-4
3143.056,303,304,302,305,2080,16528,848,-40,15,-4
3147.04,303,304,302,305,2080,16528,848,-40,15,-4
3155.394,303,304,302,305,2080,16528,848,-40,15,-4
3159.339,303,304,301,305,2080,16528,848,-40,15,-4
3161.842,304,304,301,305,2080,16528,848,-40,15,-4
3171.47,304,304,302,305,2048,16080,840,-44,2,29
3175.471,303,304,301,304,2048,16080,840,-44,2,29
3177.9700000000003,304,304,301,305,2048,16080,840,-44,2,29
3177.9700000000003,303,304,301,305,2048,16080,840,-44,2,29
3192.058,304,304,302,305,2048,16080,840,-44,2,29
3196.2000000000003,303,304,302,305,2048,16080,840,-44,2,29
3200.158,304,304,302,305,2048,16080,840,-44,2,29
3200.158,304,303,302,305,2048,16080,840,-44,2,29
3211.338,304,304,302,305,2060,16372,844,-91,3,-75
3211.338,303,303,302,305,2060,16372,844,-91,3,-75
3211.338,304,304,301,305,2060,16372,844,-91,3,-75
3222.3869999999997,304,304,302,305,2060,16372,844,-91,3,-75
3233.176,303,304,301,305,2060,16372,844,-91,3,-75
3236.841,304,304,301,305,2060,16372,844,-91,3,-75
3241.058,304,304,302,305,2060,16372,844,-91,3,-75
3249.451,303,304,301,305,2164,16380,892,-103,9,-11
3251.9269999999997,303,304,302,305,2164,16380,892,-103,9,-11
3255.805,303,304,302,305,2164,16380,892,-103,9,-11
3262.3129999999996,304,304,301,305,2164,16380,892,-103,9,-11
3266.961,303,304,302,305,2164,16380,892,-103,9,-11
3266.961,303,304,302,305,2164,16380,892,-103,9,-11
3278.106,304,304,301,305,2164,16380,892,-103,9,-11
3278.106,304,304,302,305,2164,16380,892,-103,9,-11
3290.399,304,304,302,305,1980,16132,836,-143,18,-5
3294.788,304,304,302,305,1980,16132,836,-143,18,-5
3302.725,303,304,302,305,1980,16132,836,-143,18,-5
3306.579,303,304,302,305,1980,16132,836,-143,18,-5
3310.921,303,304,302,305,1980,16132,836,-143,18,-5
3312.6929999999998,303,304,301,305,1980,16132,836,-143,18,-5
3323.376,303,304,302,305,1980,16132,836,-143,18,-5
3323.376,304,304,302,304,2072,16332,896,-40,39,-70
3335.455,304,304,302,304,2072,16332,896,-40,39,-70
3339.5519999999997,304,304,301,305,2072,16332,896,-40,39,-70
3343.968,303,304,302,305,2072,16332,896,-40,39,-70
3351.8500000000004,304,304,302,305,2072,16332,896,-40,39,-70
3356.15,304,304,302,305,2072,16332,896,-40,39,-70
3359.489,304,304,302,305,2072,16332,896,-40,39,-70
3367.7709999999997,303,304,302,305,2072,16332,896,-40,39,-70
3372.326,303,304,302,305,1972,16180,780,-128,-8,-5
3372.995,304,304,302,305,1972,16180,780,-128,-8,-5
3379.118,304,304,302,305,1972,16180,780,-128,-8,-5
3388.704,304,304,302,305,1972,16180,780,-128,-8,-5
3389.5080000000003,304,304,302,305,1972,16180,780,-128,-8,-5
3389.5080000000003,304,304,302,305,1972,16180,780,-128,-8,-5
3404.3450000000003,303,304,302,305,1972,16180,780,-128,-8,-5
3409.189,303,304,302,305,2036,16320,788,-15,40,-48
3413.2889999999998,304,304,302,305,2036,16320,788,-15,40,-48
3417.482,304,304,302,305,2036,16320,788,-15,40,-48
3423.4559999999997,304,305,302,305,2036,16320,788,-15,40,-48
3423.4559999999997,304,304,302,305,2036,16320,788,-15,40,-48
3434.093,303,304,302,305,2036,16320,788,-15,40,-48
3434.093,304,304,302,305,2036,16320,788,-15,40,-48
3446.0510000000004,304,304,302,305,2100,16292,892,-82,-12,-9
3454.017,304,304,302,305,2100,16292,892,-82,-12,-9
3458.3370000000004,303,304,302,305,2100,16292,892,-82,-12,-9
3462.361,304,304,302,305,2100,16292,892,-82,-12,-9
3467.34,304,304,302,305,2100,16292,892,-82,-12,-9
3467.34,304,304,302,305,2100,16292,892,-82,-12,-9
3479.065,303,304,302,305,2100,16292,892,-82,-12,-9
3479.065,303,304,301,305,2100,16292,892,-82,-12,-9
3491.111,304,304,302,305,2060,16248,884,-22,44,-15
3495.213,304,304,302,305,2060,16248,884,-22,44,-15
3499.731,303,305,302,305,2060,16248,884,-22,44,-15
3507.4649999999997,304,304,302,305,2060,16248,884,-22,44,-15
3511.8779999999997,303,304,302,305,2060,16248,884,-22,44,-15
3515.189,304,304,302,305,2060,16248,884,-22,44,-15
3523.8610000000003,303,304,302,305,2060,16248,884,-22,44,-15
3527.956,304,304,302,305,2032,16388,832,-39,9,2
3528.448,304,304,302,304,2032,16388,832,-39,9,2
3534.143,304,304,302,305,2032,16388,832,-39,9,2
3544.277,304,304,302,305,2032,16388,832,-39,9,2
3545.212,304,304,302,305,2032,16388,832,-39,9,2
3545.212,304,304,302,305,2032,16388,832,-39,9,2
3556.7250000000004,304,304,302,305,2032,16388,832,-39,9,2
3560.73,304,304,302,304,2032,16388,832,-39,9,2
3568.9139999999998,303,304,302,305,2012,16092,848,-66,25,-6
3572.803,304,304,301,305,2012,16092,848,-66,25,-6
3572.803,303,304,302,305,2012,16092,848,-66,25,-6
3578.602,303,304,301,305,2012,16092,848,-66,25,-6
3589.52,304,304,301,305,2012,16092,848,-66,25,-6
3589.52,304,304,301,305,2012,16092,848,-66,25,-6
3589.52,304,304,301,305,2012,16092,848,-66,25,-6
3605.723,304,304,302,305,2012,16092,848,-66,25,-6
3610.001,304,304,301,305,2052,16336,812,-35,22,-40
3612.118,303,304,302,305,2052,16336,812,-35,22,-40
3622.028,304,304,302,305,2052,16336,812,-35,22,-40
3626.2599999999998,303,304,301,305,2052,16336,812,-35,22,-40
3630.36,304,303,302,305,2052,16336,812,-35,22,-40
3633.968,304,303,302,305,2052,16336,812,-35,22,-40
3633.968,304,303,302,304,2052,16336,812,-35,22,-40
3646.755,303,303,302,304,1992,16256,808,-57,29,14
3654.945,303,304,302,305,1992,16256,808,-57,29,14
3658.6409999999996,304,304,302,305,1992,16256,808,-57,29,14
3663.395,303,304,302,305,1992,16256,808,-57,29,14
3666.645,303,304,302,305,1992,16256,808,-57,29,14
3666.645,303,304,302,305,1992,16256,808,-57,29,14
3666.645,303,304,302,305,1992,16256,808,-57,29,14
3683.856,303,304,302,305,1992,16256,808,-57,29,14
3691.8129999999996,303,304,302,305,1988,16100,796,-86,-5,-49
3694.8880000000004,303,304,301,305,1988,16100,796,-86,-5,-49
3699.801,304,304,302,305,1988,16100,796,-86,-5,-49
3700.725,303,304,302,305,1988,16100,796,-86,-5,-49
3712.266,303,304,302,305,1988,16100,796,-86,-5,-49
3716.361,304,304,302,305,1988,16100,796,-86,-5,-49
3717.281,304,304,302,305,1988,16100,796,-86,-5,-49
3722.858,304,304,301,305,2080,16376,896,-37,5,-30
3722.858,304,304,302,305,2080,16376,896,-37,5,-30
3736.8559999999998,304,304,302,305,2080,16376,896,-37,5,-30
3744.258,303,304,302,304,2080,16376,896,-37,5,-30
3745.171,304,304,302,305,2080,16376,896,-37,5,-30
3745.171,304,304,302,305,2080,16376,896,-37,5,-30
3756.107,304,304,302,305,2080,16376,896,-37,5,-30
3763.611,304,304,302,305,2080,16376,896,-37,5,-30
3769.623,304,304,302,305,2140,16260,836,-94,4,10
3773.728,304,304,302,305,2140,16260,836,-94,4,10
3778.34,304,304,302,305,2140,16260,836,-94,4,10
3778.34,303,304,302,305,2140,16260,836,-94,4,10
3790.23,303,304,302,305,2140,16260,836,-94,4,10
3794.213,304,304,302,305,2140,16260,836,-94,4,10
3800.5,303,304,302,305,2140,16260,836,-94,4,10
3800.5,304,304,301,305,2140,16260,836,-94,4,10
3800.5,304,304,302,305,2068,16268,848,-9,25,-21
3814.232,304,304,302,305,2068,16268,848,-9,25,-21
3822.6710000000003,303,304,301,305,2068,16268,848,-9,25,-21
3822.6710000000003,303,304,302,305,2068,16268,848,-9,25,-21
3822.6710000000003,304,304,302,305,2068,16268,848,-9,25,-21
3839.07,303,304,302,305,2068,16268,848,-9,25,-21
3842.922,304,304,302,305,2068,16268,848,-9,25,-21
3844.952,303,304,302,305,2068,16268,848,-9,25,-21
3844.952,304,304,302,305,2092,16336,884,-77,7,-25
3859.725,304,304,302,305,2092,16336,884,-77,7,-25
3863.711,304,304,302,304,2092,16336,884,-77,7,-25
3867.9269999999997,304,304,302,305,2092,16336,884,-77,7,-25
3876.1169999999997,304,304,302,305,2092,16336,884,-77,7,-25
3877.665,303,304,302,305,2092,16336,884,-77,7,-25
3877.665,303,304,302,305,2092,16336,884,-77,7,-25
3888.59,304,304,302,305,2040,16132,912,-43,21,2
3892.579,304,304,302,305,2040,16132,912,-43,21,2
3900.618,304,304,302,305,2040,16132,912,-43,21,2
3904.258,303,304,302,305,2040,16132,912,-43,21,2
3908.866,303,304,302,305,2040,16132,912,-43,21,2
3911.648,303,304,302,305,2040,16132,912,-43,21,2
3911.648,303,304,302,305,2040,16132,912,-43,21,2
3925.2780000000002,303,304,302,305,2040,16132,912,-43,21,2
3929.3680000000004,304,304,302,305,1952,16188,796,-114,6,-36
3937.367,304,304,302,304,1952,16188,796,-114,6,-36
3941.261,304,304,302,305,1952,16188,796,-114,6,-36
3945.538,304,304,302,305,1952,16188,796,-114,6,-36
3945.538,304,304,302,305,1952,16188,796,-114,6,-36
3956.89,303,304,301,304,1952,16188,796,-114,6,-36
3956.89,303,304,301,305,1952,16188,796,-114,6,-36
3970.5249999999996,303,304,301,305,2108,16456,856,-41,20,-24
3970.5249999999996,304,304,301,305,2108,16456,856,-41,20,-24
3978.528,303,304,301,305,2108,16456,856,-41,20,-24
3986.6229999999996,304,304,302,305,2108,16456,856,-41,20,-24
3990.802,304,304,301,304,2108,16456,856,-41,20,-24
3992.906,303,304,302,305,2108,16456,856,-41,20,-24
3992.906,303,304,302,305,2108,16456,856,-41,20,-24
4006.26,304,304,302,305,2108,16456,856,-41,20,-24
4011.5170000000003,304,304,302,305,2032,15996,856,-128,-14,-2
4011.5170000000003,304,304,302,305,2032,15996,856,-128,-14,-2
4023.5709999999995,304,304,302,305,2032,15996,856,-128,-14,-2
4027.7260000000006,303,304,302,305,2032,15996,856,-128,-14,-2
4035.8549999999996,304,304,302,305,2032,15996,856,-128,-14,-2
4039.9570000000003,303,304,302,305,2032,15996,856,-128,-14,-2
4044.2960000000003,303,304,302,305,2032,15996,856,-128,-14,-2
4050.568,304,304,302,305,2108,16548,904,19,34,-65
4056.388,304,304,302,305,2108,16548,904,19,34,-65
4056.6570000000006,303,304,302,305,2108,16548,904,19,34,-65
4064.1679999999997,304,304,302,305,2108,16548,904,19,34,-65
4067.2050000000004,303,304,302,305,2108,16548,904,19,34,-65
4067.2050000000004,304,304,302,305,2108,16548,904,19,34,-65
4080.916,303,304,302,305,2108,16548,904,19,34,-65
4089.1000000000004,303,304,302,305,2108,16548,904,19,34,-65
4092.9779999999996,304,304,302,305,2096,16324,796,-106,-18,18
4097.278,304,304,301,305,2096,16324,796,-106,-18,18
4105.48,304,304,302,305,2096,16324,796,-106,-18,18
4106.147,305,304,302,305,2096,16324,796,-106,-18,18
4112.126,304,304,302,305,2096,16324,796,-106,-18,18
4112.126,304,304,302,305,2096,16324,796,-106,-18,18
4122.882,303,304,302,305,2096,16324,796,-106,-18,18
4122.882,304,304,302,305,2092,16312,836,-5,36,-48
4138.164,304,304,302,305,2092,16312,836,-5,36,-48
4142.343000000001,303,304,302,305,2092,16312,836,-5,36,-48
4146.435,304,304,302,305,2092,16312,836,-5,36,-48
4150.598,304,304,302,305,2092,16312,836,-5,36,-48
4156.162,304,304,302,305,2092,16312,836,-5,36,-48
4156.162,304,304,302,305,2092,16312,836,-5,36,-48
4166.517,304,304,301,305,2092,16312,836,-5,36,-48
4167.357,303,304,301,305,2060,16464,876,-44,29,-15
4179.213,304,304,302,305,2060,16464,876,-44,29,-15
4183.308,304,304,301,305,2060,16464,876,-44,29,-15
4187.397,304,304,302,305,2060,16464,876,-44,29,-15
4195.574,305,304,302,305,2060,16464,876,-44,29,-15
4200.138,304,304,302,305,2060,16464,876,-44,29,-15
4200.668000000001,304,304,302,305,2060,16464,876,-44,29,-15
4211.778,304,305,301,305,2020,16108,796,-59,4,11
4216.082,304,304,301,305,2020,16108,796,-59,4,11
4218.0960000000005,304,304,302,305,2020,16108,796,-59,4,11
4222.9890000000005,304,304,302,305,2020,16108,796,-59,4,11
4222.9890000000005,304,304,302,305,2020,16108,796,-59,4,11
4233.9890000000005,304,304,302,305,2020,16108,796,-59,4,11
4233.9890000000005,304,304,301,305,2020,16108,796,-59,4,11
4244.738,304,304,301,305,2020,16108,796,-59,4,11
4252.941,303,304,302,305,2096,16336,820,-54,22,-63
4256.258,303,304,301,305,2096,16336,820,-54,22,-63
4256.258,304,304,302,305,2096,16336,820,-54,22,-63
4269.334,304,305,302,305,2096,16336,820,-54,22,-63
4272.160000000001,304,304,302,305,2096,16336,820,-54,22,-63
4277.611,304,304,302,305,2096,16336,820,-54,22,-63
4278.552000000001,303,304,301,305,2096,16336,820,-54,22,-63
4289.782999999999,304,304,303,305,2076,16272,872,-61,-9,4
4293.798,303,304,302,305,2076,16272,872,-61,-9,4
4297.987,304,304,302,305,2076,16272,872,-61,-9,4
4306.19,303,304,302,305,2076,16272,872,-61,-9,4
4310.126,303,304,302,305,2076,16272,872,-61,-9,4
4314.378,304,304,302,305,2076,16272,872,-61,-9,4
4315.994,304,304,302,305,2076,16272,872,-61,-9,4
4326.724999999999,304,304,302,305,2076,16272,872,-61,-9,4
4328.543,304,304,302,305,2040,16244,864,-95,21,-29
4334.049,303,304,302,305,2040,16244,864,-95,21,-29
4334.049,303,304,302,305,2040,16244,864,-95,21,-29
4345.094999999999,304,304,302,305,2040,16244,864,-95,21,-29
4345.094999999999,303,304,302,305,2040,16244,864,-95,21,-29
4359.427000000001,303,304,302,305,2040,16244,864,-95,21,-29
4363.537,304,304,302,305,2040,16244,864,-95,21,-29
4367.219999999999,304,304,302,305,2040,16244,864,-95,21,-29
4367.219999999999,303,304,301,305,2136,16468,868,-13,21,-31
4379.9039999999995,303,305,301,305,2136,16468,868,-13,21,-31
4383.994000000001,303,304,302,305,2136,16468,868,-13,21,-31
4392.1939999999995,303,304,301,305,2136,16468,868,-13,21,-31
4396.29,303,304,302,305,2136,16468,868,-13,21,-31
4400.651,303,304,302,305,2136,16468,868,-13,21,-31
4400.651,304,304,302,305,2136,16468,868,-13,21,-31
4400.651,304,303,302,305,2056,16180,848,-99,-25,-19
4416.443,304,304,302,305,2056,16180,848,-99,-25,-19
4420.867,303,304,302,305,2056,16180,848,-99,-25,-19
4428.276000000001,303,304,302,305,2056,16180,848,-99,-25,-19
4433.139,303,304,302,305,2056,16180,848,-99,-25,-19
4434.076,303,304,302,305,2056,16180,848,-99,-25,-19
4445.273,303,304,302,305,2056,16180,848,-99,-25,-19
4445.273,304,304,302,305,2104,16448,824,-5,22,-19
4445.273,304,304,302,305,2104,16448,824,-5,22,-19
4461.735,304,304,302,305,2104,16448,824,-5,22,-19
4465.646,303,304,302,305,2104,16448,824,-5,22,-19
4470.011,303,304,302,305,2104,16448,824,-5,22,-19
4477.607,303,304,302,305,2104,16448,824,-5,22,-19
4478.783,303,304,302,305,2104,16448,824,-5,22,-19
4478.783,304,304,302,305,2104,16448,824,-5,22,-19
4489.467000000001,304,304,302,305,2092,16312,840,-106,2,35
4489.467000000001,304,304,302,305,2092,16312,840,-106,2,35
4503.228,304,304,302,305,2092,16312,840,-106,2,35
4506.848,304,304,302,305,2092,16312,840,-106,2,35
4515.071,303,305,302,305,2092,16312,840,-106,2,35
4519.184,303,304,302,305,2092,16312,840,-106,2,35
4523.215999999999,304,304,302,305,2092,16312,840,-106,2,35
4527.236,304,304,302,305,2092,16312,840,-106,2,35
4535.5509999999995,304,304,301,305,2044,16164,824,-24,52,-48
4539.479,304,304,302,305,2044,16164,824,-24,52,-48
4539.479,304,304,302,305,2044,16164,824,-24,52,-48
4545.358,303,304,301,305,2044,16164,824,-24,52,-48
4556.320000000001,303,304,302,305,2044,16164,824,-24,52,-48
4556.320000000001,303,304,301,305,2044,16164,824,-24,52,-48
4568.306,303,304,301,305,2044,16164,824,-24,52,-48
4572.315,304,304,301,305,2060,16408,864,-69,10,-8
4576.49,304,304,302,305,2060,16408,864,-69,10,-8
4578.678,304,304,302,305,2060,16408,864,-69,10,-8
4588.6990000000005,304,304,302,305,2060,16408,864,-69,10,-8
4592.897,303,304,302,305,2060,16408,864,-69,10,-8
4594.646,304,304,302,305,2060,16408,864,-69,10,-8
4600.574,303,304,302,305,2060,16408,864,-69,10,-8
4600.574,303,304,302,305,2060,16408,864,-69,10,-8
4613.3730000000005,303,304,301,304,2020,16032,780,-81,-3,-8
4617.859,304,304,302,305,2020,16032,780,-81,-3,-8
4625.454000000001,303,304,302,305,2020,16032,780,-81,-3,-8
4628.813,304,304,302,305,2020,16032,780,-81,-3,-8
4633.812,303,304,302,305,2020,16032,780,-81,-3,-8
4638.7029999999995,303,304,301,305,2020,16032,780,-81,-3,-8
4645.981,303,304,301,305,2020,16032,780,-81,-3,-8
4650.237,303,304,302,305,2184,16664,776,11,24,-12
4651.018,303,304,302,305,2184,16664,776,11,24,-12
4656.717000000001,304,304,302,305,2184,16664,776,11,24,-12
4666.492,303,304,302,305,2184,16664,776,11,24,-12
4670.724,304,304,302,305,2184,16664,776,11,24,-12
4678.6630000000005,304,304,302,305,2184,16664,776,11,24,-12
4678.6630000000005,304,304,302,305,2184,16664,776,11,24,-12
4687.166,303,304,302,305,2184,16664,776,11,24,-12
4691.194,303,304,302,305,2064,15992,824,-87,2,28
4695.399,304,304,302,305,2064,15992,824,-87,2,28
4700.911999999999,304,304,302,305,2064,15992,824,-87,2,28
4700.911999999999,304,304,302,305,2064,15992,824,-87,2,28
4711.75,303,304,302,305,2064,15992,824,-87,2,28
4711.75,304,304,302,305,2064,15992,824,-87,2,28
4723.950000000001,303,304,302,305,2064,15992,824,-87,2,28
4728.421,304,304,302,305,2064,15992,824,-87,2,28
4736.254,303,304,302,305,2064,16456,916,27,40,-55
4739.409000000001,303,304,302,305,2064,16456,916,27,40,-55
4744.252,304,304,302,305,2064,16456,916,27,40,-55
4745.138,303,304,302,305,2064,16456,916,27,40,-55
4756.206999999999,304,304,302,305,2064,16456,916,27,40,-55
4756.206999999999,304,304,302,305,2064,16456,916,27,40,-55
4756.206999999999,304,304,302,305,2064,16456,916,27,40,-55
4773.131,303,304,302,305,2084,16216,812,-63,11,45
4777.201,304,304,302,305,2084,16216,812,-63,11,45
4778.339,303,304,302,305,2084,16216,812,-63,11,45
4778.339,304,304,302,305,2084,16216,812,-63,11,45
4793.594,303,304,302,305,2084,16216,812,-63,11,45
4797.726,304,304,301,305,2084,16216,812,-63,11,45
4801.785,303,304,301,305,2084,16216,812,-63,11,45
4805.8769999999995,304,304,301,305,2084,16216,812,-63,11,45
4811.859,303,303,301,305,2004,16184,720,-64,29,-28
4811.859,303,304,302,305,2004,16184,720,-64,29,-28
4822.037,304,304,302,305,2004,16184,720,-64,29,-28
4822.893,304,303,301,305,2004,16184,720,-64,29,-28
4834.552000000001,304,303,302,305,2004,16184,720,-64,29,-28
4838.557,305,304,302,304,2004,16184,720,-64,29,-28
4846.814,304,304,302,304,2004,16184,720,-64,29,-28
4850.248,304,304,301,305,2160,16492,912,-12,40,-31
4855.37,304,304,302,305,2160,16492,912,-12,40,-31
4856.237,303,304,302,305,2160,16492,912,-12,40,-31
4867.357,303,304,302,305,2160,16492,912,-12,40,-31
4867.357,304,304,302,305,2160,16492,912,-12,40,-31
4879.62,304,304,302,305,2160,16492,912,-12,40,-31
4883.229,304,304,302,305,2160,16492,912,-12,40,-31
4887.233,304,304,301,305,2160,16492,912,-12,40,-31
4889.43,303,304,301,305,2052,16108,876,-95,-21,27
4899.839,303,304,302,305,2052,16108,876,-95,-21,27
4904.166,304,304,302,305,2052,16108,876,-95,-21,27
4908.273999999999,304,304,302,305,2052,16108,876,-95,-21,27
4911.902,303,304,302,305,2052,16108,876,-95,-21,27
4911.902,304,304,302,305,2052,16108,876,-95,-21,27
4924.724999999999,305,304,302,305,2052,16108,876,-95,-21,27
4932.082,304,304,302,305,2072,16300,808,-16,34,-58
4936.945,304,304,301,305,2072,16300,808,-16,34,-58
4941.041,304,304,302,305,2072,16300,808,-16,34,-58
4949.231,304,304,302,305,2072,16300,808,-16,34,-58
4950.825,303,304,302,305,2072,16300,808,-16,34,-58
4956.549,303,304,302,305,2072,16300,808,-16,34,-58
4956.549,304,304,301,304,2072,16300,808,-16,34,-58
4967.256,305,304,302,305,2072,16300,808,-16,34,-58
4967.256,304,304,302,305,2092,16440,880,-69,17,30
4982.004,304,304,302,305,2092,16440,880,-69,17,30
4986.107,304,304,301,305,2092,16440,880,-69,17,30
4990.204000000001,304,304,302,305,2092,16440,880,-69,17,30
4994.285,303,304,302,305,2092,16440,880,-69,17,30
5002.473,304,304,302,305,2092,16440,880,-69,17,30
5004.485,304,304,302,305,2092,16440,880,-69,17,30
5010.9349999999995,304,304,302,305,1956,16004,816,-32,9,-50
5017.158,304,304,302,305,1956,16004,816,-32,9,-50
5023.089,303,304,302,305,1956,16004,816,-32,9,-50
5024.092,303,304,302,305,1956,16004,816,-32,9,-50
5024.092,303,304,302,305,1956,16004,816,-32,9,-50
5033.871,304,304,301,305,1956,16004,816,-32,9,-50
5033.871,304,304,302,305,1956,16004,816,-32,9,-50
5047.418000000001,304,304,302,305,1956,16004,816,-32,9,-50
5051.596,304,304,302,305,2144,16612,816,0,26,-41
5056.301,304,304,302,305,2144,16612,816,0,26,-41
5056.301,304,304,302,305,2144,16612,816,0,26,-41
5068.136,304,304,302,305,2144,16612,816,0,26,-41
5072.155000000001,304,304,302,305,2144,16612,816,0,26,-41
5078.395,304,304,302,305,2144,16612,816,0,26,-41
5078.395,304,304,301,305,2144,16612,816,0,26,-41
5088.675,304,304,302,305,2144,16612,816,0,26,-41
5096.724,304,304,301,305,1992,16076,812,-68,4,19
5100.517,304,304,301,305,1992,16076,812,-68,4,19
5104.8679999999995,303,304,302,305,1992,16076,812,-68,4,19
5106.882,304,304,302,305,1992,16076,812,-68,4,19
5111.896,303,304,302,305,1992,16076,812,-68,4,19
5111.896,303,305,301,305,1992,16076,812,-68,4,19
5122.969999999999,304,304,302,305,1992,16076,812,-68,4,19
5122.969999999999,304,304,302,305,1992,16076,812,-68,4,19
5137.724999999999,304,304,302,305,2092,16408,852,-15,24,-56
5141.737,304,304,302,305,2092,16408,852,-15,24,-56
5145.831,303,304,302,305,2092,16408,852,-15,24,-56
5153.8820000000005,303,304,302,305,2092,16408,852,-15,24,-56
5158.117,304,304,302,305,2092,16408,852,-15,24,-56
5160.132,303,304,301,305,2092,16408,852,-15,24,-56
5170.421,303,304,302,305,2092,16408,852,-15,24,-56
5173.031,304,304,302,305,2064,16188,880,-48,6,45
5178.705,304,304,302,305,2064,16188,880,-48,6,45
5178.705,304,304,302,305,2064,16188,880,-48,6,45
5189.457,304,304,302,305,2064,16188,880,-48,6,45
5189.457,304,304,302,305,2064,16188,880,-48,6,45
5189.457,303,304,302,305,2064,16188,880,-48,6,45
5203.171,304,304,302,305,2064,16188,880,-48,6,45
5210.952,304,304,302,305,2064,16188,880,-48,6,45
5215.469,304,304,302,305,2072,16136,812,-77,-13,-32
5217.341,305,304,302,305,2072,16136,812,-77,-13,-32
5222.924,304,304,302,305,2072,16136,812,-77,-13,-32
5222.924,304,304,302,305,2072,16136,812,-77,-13,-32
5233.905,304,304,302,305,2072,16136,812,-77,-13,-32
5233.905,304,304,302,305,2072,16136,812,-77,-13,-32
5247.967,304,304,302,305,2072,16136,812,-77,-13,-32
5252.32,304,304,302,305,2080,16388,856,19,24,-18
5260.523,303,304,302,305,2080,16388,856,19,24,-18
5264.894,304,304,302,305,2080,16388,856,19,24,-18
5268.151,304,304,302,305,2080,16388,856,19,24,-18
5270.661999999999,303,304,302,305,2080,16388,856,19,24,-18
5281.003,303,304,302,305,2080,16388,856,19,24,-18
5283.957,303,304,302,305,2080,16388,856,19,24,-18
5288.7029999999995,304,304,302,305,2080,16388,856,19,24,-18
5289.710999999999,304,304,302,305,2012,16148,804,-119,-3,11
5300.548,303,304,302,305,2012,16148,804,-119,-3,11
5300.548,304,304,302,305,2012,16148,804,-119,-3,11
5313.773,304,304,302,305,2012,16148,804,-119,-3,11
5317.869,304,304,302,305,2012,16148,804,-119,-3,11
5322.045,304,304,302,305,2012,16148,804,-119,-3,11
5326.057,304,304,302,305,2012,16148,804,-119,-3,11
5334.072,303,304,301,305,2036,16384,844,14,40,-66
5334.072,303,304,302,305,2036,16384,844,14,40,-66
5334.072,304,304,301,305,2036,16384,844,14,40,-66
5345.0689999999995,304,304,302,305,2036,16384,844,14,40,-66
5345.0689999999995,304,304,302,304,2036,16384,844,14,40,-66
5358.821,303,304,302,305,2036,16384,844,14,40,-66
5362.642,303,304,302,305,2036,16384,844,14,40,-66
5371.111,303,304,302,305,2036,16384,844,14,40,-66
5372.843,303,304,302,305,2088,16244,816,-139,-3,17
5378.484,303,304,302,305,2088,16244,816,-139,-3,17
5386.989,304,304,302,305,2088,16244,816,-139,-3,17
5389.491,304,304,302,305,2088,16244,816,-139,-3,17
5389.491,303,304,302,305,2088,16244,816,-139,-3,17
5403.874,304,304,302,305,2088,16244,816,-139,-3,17
5407.968999999999,304,304,302,305,2088,16244,816,-139,-3,17
5412.0650000000005,304,304,302,305,2068,16308,832,-17,8,-55
5420.358,303,304,302,305,2068,16308,832,-17,8,-55
5424.3550000000005,303,304,302,305,2068,16308,832,-17,8,-55
5426.17,304,304,302,305,2068,16308,832,-17,8,-55
5426.17,304,304,302,305,2068,16308,832,-17,8,-55
5439.721,304,304,302,305,2068,16308,832,-17,8,-55
5444.263,304,304,302,305,2068,16308,832,-17,8,-55
5445.183,304,304,302,305,2068,16308,832,-17,8,-55
5456.176,304,304,302,305,2068,16396,880,-54,23,-13
5456.176,303,304,302,305,2068,16396,880,-54,23,-13
5456.176,303,304,302,305,2068,16396,880,-54,23,-13
5473.299,304,304,302,305,2068,16396,880,-54,23,-13
5477.491,304,304,302,305,2068,16396,880,-54,23,-13
5481.725,304,304,302,305,2068,16396,880,-54,23,-13
5483.9890000000005,304,304,302,305,2068,16396,880,-54,23,-13
5489.563999999999,304,304,302,305,2052,16160,796,-36,33,4
5489.563999999999,303,304,302,305,2052,16160,796,-36,33,4
5500.5470000000005,303,304,302,305,2052,16160,796,-36,33,4
5500.5470000000005,304,304,302,305,2052,16160,796,-36,33,4
5514.463,304,304,302,305,2052,16160,796,-36,33,4
5518.566,304,304,302,305,2052,16160,796,-36,33,4
5522.802000000001,304,304,302,305,2052,16160,796,-36,33,4
5526.741999999999,304,304,302,305,2052,16160,796,-36,33,4
5534.026,303,304,302,305,2084,16376,812,-31,28,-53
5534.026,303,304,302,305,2084,16376,812,-31,28,-53
5534.026,303,304,302,305,2084,16376,812,-31,28,-53
5545.0109999999995,303,304,301,305,2084,16376,812,-31,28,-53
5555.385,304,304,301,305,2084,16376,812,-31,28,-53
5559.517,304,304,301,305,2084,16376,812,-31,28,-53
5567.725,305,304,301,305,2084,16376,812,-31,28,-53
5571.802,304,304,301,305,2084,16376,812,-31,28,-53
5575.949,304,304,301,305,2056,16276,880,-47,11,-1
5582.734,303,304,302,305,2056,16276,880,-47,11,-1
5587.238,303,304,302,305,2056,16276,880,-47,11,-1
5592.283,303,304,302,305,2056,16276,880,-47,11,-1
5594.941000000001,304,304,302,305,2056,16276,880,-47,11,-1
5600.791,304,304,302,305,2056,16276,880,-47,11,-1
5600.791,303,304,302,305,2056,16276,880,-47,11,-1
5611.674,304,304,302,305,2036,16220,816,-72,1,-18
5611.674,304,304,302,305,2036,16220,816,-72,1,-18
5625.046,303,304,302,305,2036,16220,816,-72,1,-18
5629.134,304,304,301,305,2036,16220,816,-72,1,-18
5633.143999999999,304,304,302,305,2036,16220,816,-72,1,-18
5639.344,304,304,302,305,2036,16220,816,-72,1,-18
5645.177000000001,304,304,302,305,2036,16220,816,-72,1,-18
5645.177000000001,304,304,302,305,2036,16220,816,-72,1,-18
5657.102,304,304,302,305,2068,16240,812,-48,35,-22
5657.102,303,304,302,305,2068,16240,812,-48,35,-22
5657.102,303,304,302,305,2068,16240,812,-48,35,-22
5674.2119999999995,303,304,302,305,2068,16240,812,-48,35,-22
5678.395,304,304,302,305,2068,16240,812,-48,35,-22
5678.395,304,304,302,305,2068,16240,812,-48,35,-22
5690.59,304,304,302,305,2068,16240,812,-48,35,-22
5694.596,304,304,302,305,2128,16252,832,-88,18,-38
5698.772,304,304,302,305,2128,16252,832,-88,18,-38
5700.7880000000005,304,304,302,305,2128,16252,832,-88,18,-38
5710.952,303,304,302,305,2128,16252,832,-88,18,-38
5715.154,303,304,302,305,2128,16252,832,-88,18,-38
5719.6230000000005,304,304,302,305,2128,16252,832,-88,18,-38
5727.31,304,304,302,305,2128,16252,832,-88,18,-38
5731.544000000001,304,304,302,305,2128,16252,832,-88,18,-38
5733.956,304,304,302,305,1976,16036,844,-60,23,4
5733.956,304,303,302,305,1976,16036,844,-60,23,4
5747.932,304,304,302,305,1976,16036,844,-60,23,4
5751.192,303,304,302,305,1976,16036,844,-60,23,4
5756.5109999999995,304,304,302,305,1976,16036,844,-60,23,4
5756.5109999999995,303,304,302,305,1976,16036,844,-60,23,4
5767.201,303,304,302,305,1976,16036,844,-60,23,4
5768.706,304,304,302,305,2120,16424,892,-72,16,-45
5768.706,305,304,302,304,2120,16424,892,-72,16,-45
5784.611,304,304,302,305,2120,16424,892,-72,16,-45
5788.723,304,304,302,304,2120,16424,892,-72,16,-45
5789.459,303,305,302,305,2120,16424,892,-72,16,-45
5801.319,304,304,302,305,2120,16424,892,-72,16,-45
5805.286,303,304,302,305,2120,16424,892,-72,16,-45
5805.684,304,304,302,304,2120,16424,892,-72,16,-45
5812.001,304,304,302,305,2112,16228,860,-48,4,-13
5812.001,304,304,302,305,2112,16228,860,-48,4,-13
5825.742,304,304,302,304,2112,16228,860,-48,4,-13
5833.9400000000005,303,304,302,304,2112,16228,860,-48,4,-13
5838.033,304,304,302,305,2112,16228,860,-48,4,-13
5842.039,304,304,301,305,2112,16228,860,-48,4,-13
5846.017,303,304,302,305,2112,16228,860,-48,4,-13
5848.478,303,304,302,305,2112,16228,860,-48,4,-13
5858.518,305,304,302,305,2052,16212,840,-91,15,-53
5862.433,304,304,302,305,2052,16212,840,-91,15,-53
5869.097,304,304,302,305,2052,16212,840,-91,15,-53
5869.097,304,304,301,305,2052,16212,840,-91,15,-53
5878.334,303,304,302,305,2052,16212,840,-91,15,-53
5878.334,303,304,302,305,2052,16212,840,-91,15,-53
5891.289000000001,303,304,302,305,2052,16212,840,-91,15,-53
5895.378,303,304,302,305,2092,16328,864,11,44,-4
5899.827,303,304,302,305,2092,16328,864,11,44,-4
5906.157999999999,304,304,302,305,2092,16328,864,11,44,-4
5911.945000000001,303,304,302,305,2092,16328,864,11,44,-4
5912.099999999999,304,304,302,305,2092,16328,864,11,44,-4
5912.099999999999,303,304,302,305,2092,16328,864,11,44,-4
5922.805,303,304,302,305,2092,16328,864,11,44,-4
5922.805,304,304,302,305,2092,16328,864,11,44,-4
5936.343,303,304,302,305,1988,16088,748,-104,-2,6
5940.451,304,304,302,305,1988,16088,748,-104,-2,6
5944.91,304,304,302,305,1988,16088,748,-104,-2,6
5944.91,303,304,302,305,1988,16088,748,-104,-2,6
5956.813999999999,304,304,302,305,1988,16088,748,-104,-2,6
5964.991999999999,304,304,302,305,1988,16088,748,-104,-2,6
5969.21,303,304,302,305,1988,16088,748,-104,-2,6
5973.115,304,304,302,305,2064,16364,868,30,40,-42
5977.717000000001,303,304,301,305,2064,16364,868,30,40,-42
5978.584,304,304,302,305,2064,16364,868,30,40,-42
5989.455999999999,304,304,302,305,2064,16364,868,30,40,-42
5989.455999999999,305,304,302,305,2064,16364,868,30,40,-42
6001.866,304,304,302,305,2064,16364,868,30,40,-42
6005.903,303,304,302,305,2064,16364,868,30,40,-42
6010.2880000000005,303,304,302,305,2064,16364,868,30,40,-42
6014.14,303,304,302,305,2064,16124,796,-130,-16,21
6022.068,303,304,301,305,2064,16124,796,-130,-16,21
6023.156,304,304,301,305,2064,16124,796,-130,-16,21
6033.899,305,304,302,305,2064,16124,796,-130,-16,21
6033.899,304,304,301,305,2064,16124,796,-130,-16,21
6033.899,303,304,301,305,2064,16124,796,-130,-16,21
6051.049,303,304,302,305,2064,16124,796,-130,-16,21
6055.066,303,304,302,305,2096,16324,836,-15,23,-43
6059.1939999999995,303,304,302,305,2096,16324,836,-15,23,-43
6066.505,303,304,302,305,2096,16324,836,-15,23,-43
6069.572,304,304,302,305,2096,16324,836,-15,23,-43
6069.572,304,304,302,305,2096,16324,836,-15,23,-43
6078.388,304,304,301,305,2096,16324,836,-15,23,-43
6087.889999999999,304,304,301,305,2096,16324,836,-15,23,-43
6091.992,304,304,301,305,2096,16324,836,-15,23,-43
6096.0689999999995,304,304,302,305,2072,16228,864,-117,17,-32
6104.261,304,305,302,305,2072,16228,864,-117,17,-32
6108.348999999999,304,304,301,305,2072,16228,864,-117,17,-32
6112.089,304,304,301,305,2072,16228,864,-117,17,-32
6115.105,304,304,301,305,2072,16228,864,-117,17,-32
6124.75,304,304,302,305,2072,16228,864,-117,17,-32
6128.3859999999995,304,304,302,305,2072,16228,864,-117,17,-32
6134.2480000000005,304,304,302,305,2060,16140,868,-31,11,-18
6134.2480000000005,304,304,302,305,2060,16140,868,-31,11,-18
6145.196,304,304,301,305,2060,16140,868,-31,11,-18
6145.196,304,304,302,305,2060,16140,868,-31,11,-18
6157.497,304,304,302,305,2060,16140,868,-31,11,-18
6161.889,304,304,302,305,2060,16140,868,-31,11,-18
6169.8009999999995,305,304,302,305,2060,16140,868,-31,11,-18
6172.821,304,304,302,305,2124,16444,872,-70,40,-24
6177.5960000000005,303,304,301,305,2124,16444,872,-70,40,-24
6178.546,303,304,302,305,2124,16444,872,-70,40,-24
6189.459,304,304,302,305,2124,16444,872,-70,40,-24
6189.459,304,304,301,305,2124,16444,872,-70,40,-24
6202.557,304,304,302,305,2124,16444,872,-70,40,-24
6206.724999999999,304,304,302,304,2124,16444,872,-70,40,-24
6211.1140000000005,305,304,302,305,2124,16444,872,-70,40,-24
6219.665,304,304,302,305,2044,16208,756,-51,15,7
6223.09,304,304,302,305,2044,16208,756,-51,15,7
6227.129,304,304,302,305,2044,16208,756,-51,15,7
6227.129,304,304,302,305,2044,16208,756,-51,15,7
6239.427,304,304,302,305,2044,16208,756,-51,15,7
6239.491,304,304,302,305,2044,16208,756,-51,15,7
6245.174,304,304,302,305,2044,16208,756,-51,15,7
6245.174,304,304,302,305,2044,16208,756,-51,15,7
6256.342,304,304,302,305,2052,16156,824,-121,17,-61
6256.342,304,304,302,305,2052,16156,824,-121,17,-61
6268.1050000000005,304,304,302,305,2052,16156,824,-121,17,-61
6276.301,304,304,302,305,2052,16156,824,-121,17,-61
6280.385,304,304,302,305,2052,16156,824,-121,17,-61
6283.599999999999,304,304,302,305,2052,16156,824,-121,17,-61
6289.575,304,304,302,305,2052,16156,824,-121,17,-61
6289.575,304,304,302,305,2000,16304,856,-37,22,-17
6300.6359999999995,303,304,302,305,2000,16304,856,-37,22,-17
6300.6359999999995,303,304,301,304,2000,16304,856,-37,22,-17
6313.164000000001,303,304,302,305,2000,16304,856,-37,22,-17
6317.391,303,304,302,305,2000,16304,856,-37,22,-17
6322.824,303,304,302,304,2000,16304,856,-37,22,-17
6322.824,304,304,302,304,2000,16304,856,-37,22,-17
6333.57,304,304,302,305,2124,16308,776,-79,15,-16
6341.819,304,304,302,305,2124,16308,776,-79,15,-16
6344.972000000001,303,304,302,305,2124,16308,776,-79,15,-16
6344.972000000001,304,304,302,305,2124,16308,776,-79,15,-16
6358.211,304,304,301,305,2124,16308,776,-79,15,-16
6362.313,303,304,301,305,2124,16308,776,-79,15,-16
6367.089,303,304,301,305,2124,16308,776,-79,15,-16
6370.504000000001,304,304,301,305,2124,16308,776,-79,15,-16
6378.1179999999995,304,304,301,305,2052,16288,852,-34,27,-28
6378.1179999999995,304,304,302,305,2052,16288,852,-34,27,-28
6378.1179999999995,303,304,302,305,2052,16288,852,-34,27,-28
6394.29,303,304,302,305,2052,16288,852,-34,27,-28
6394.29,304,304,302,305,2052,16288,852,-34,27,-28
6403.264,303,304,301,305,2052,16288,852,-34,27,-28
6410.9220000000005,304,304,302,305,2052,16288,852,-34,27,-28
6411.853,304,304,302,305,2152,16432,884,-63,8,-8
6411.853,304,304,302,305,2152,16432,884,-63,8,-8
6423.449,304,304,302,305,2152,16432,884,-63,8,-8
6428.465,304,304,302,305,2152,16432,884,-63,8,-8
6434.246,304,304,302,305,2152,16432,884,-63,8,-8
6434.246,304,304,302,305,2152,16432,884,-63,8,-8
6444.273,303,304,302,305,2152,16432,884,-63,8,-8
6450.692,304,304,301,305,2152,16432,884,-63,8,-8
6456.273,304,304,302,305,2044,16140,848,-22,5,-2
6456.273,304,304,301,305,2044,16140,848,-22,5,-2
6456.273,304,304,302,305,2044,16140,848,-22,5,-2
6470.658,304,304,302,305,2044,16140,848,-22,5,-2
6470.658,303,304,302,305,2044,16140,848,-22,5,-2
6481.088,304,304,302,304,2044,16140,848,-22,5,-2
6485.176,303,304,302,305,2044,16140,848,-22,5,-2
6493.3550000000005,303,304,302,305,2044,16140,848,-22,5,-2
6495.0419999999995,304,304,301,304,2100,16404,792,-46,32,-38
6500.701,305,304,301,305,2100,16404,792,-46,32,-38
6500.701,303,304,302,305,2100,16404,792,-46,32,-38
6511.701999999999,304,304,302,305,2100,16404,792,-46,32,-38
6511.701999999999,303,304,302,305,2100,16404,792,-46,32,-38
6525.97,304,304,302,305,2100,16404,792,-46,32,-38
6530.235000000001,304,304,302,305,2100,16404,792,-46,32,-38
6534.355,303,304,302,305,2052,16200,820,-56,0,5
6538.414000000001,304,304,302,305,2052,16200,820,-56,0,5
6545.169,304,304,302,305,2052,16200,820,-56,0,5
6545.169,304,304,302,305,2052,16200,820,-56,0,5
6545.169,304,304,302,305,2052,16200,820,-56,0,5
6556.056,303,304,302,305,2052,16200,820,-56,0,5
6556.056,303,304,302,305,2052,16200,820,-56,0,5
6571.196,303,304,302,305,2052,16200,820,-56,0,5
6575.289,303,304,302,305,1992,16276,860,-38,26,-35
6579.378000000001,303,304,302,305,1992,16276,860,-38,26,-35
6587.568,303,304,301,305,1992,16276,860,-38,26,-35
6591.871,303,304,302,304,1992,16276,860,-38,26,-35
6591.871,304,304,301,305,1992,16276,860,-38,26,-35
6603.974,303,304,301,305,1992,16276,860,-38,26,-35
6606.251,303,304,302,305,1992,16276,860,-38,26,-35
6612.205,303,304,301,305,1992,16276,860,-38,26,-35
6612.205,303,304,301,305,2036,16348,848,-27,31,-23
6622.841,304,304,301,305,2036,16348,848,-27,31,-23
6622.841,304,304,302,305,2036,16348,848,-27,31,-23
6633.155000000001,303,304,301,305,2036,16348,848,-27,31,-23
6640.8189999999995,303,304,301,305,2036,16348,848,-27,31,-23
6645.1359999999995,303,304,301,305,2036,16348,848,-27,31,-23
6649.022000000001,303,304,302,305,2036,16348,848,-27,31,-23
6656.226000000001,303,304,302,305,2040,16120,808,-133,-11,-15
6656.226000000001,303,304,302,305,2040,16120,808,-133,-11,-15
6667.283,303,304,302,305,2040,16120,808,-133,-11,-15
6671.287,305,303,302,305,2040,16120,808,-133,-11,-15
6677.59,304,304,302,305,2040,16120,808,-133,-11,-15
6685.594,305,304,302,305,2040,16120,808,-133,-11,-15
6690.063999999999,303,304,302,305,2040,16120,808,-133,-11,-15
6694.0650000000005,304,304,302,305,2092,16444,896,-25,49,-39
6702.264999999999,304,304,302,305,2092,16444,896,-25,49,-39
6704.432,304,304,302,305,2092,16444,896,-25,49,-39
6704.432,304,304,302,305,2092,16444,896,-25,49,-39
6717.456,304,304,302,304,2092,16444,896,-25,49,-39
6722.054,305,304,302,304,2092,16444,896,-25,49,-39
6723.304,304,304,302,305,2092,16444,896,-25,49,-39
6733.961,304,304,302,305,2092,16444,896,-25,49,-39
6733.961,304,304,302,304,1932,16120,876,-169,12,10
6733.961,304,304,302,305,1932,16120,876,-169,12,10
6751.414,304,304,302,305,1932,16120,876,-169,12,10
6755.358,304,304,302,305,1932,16120,876,-169,12,10
6759.605,304,304,302,305,1932,16120,876,-169,12,10
6761.706,304,304,301,305,1932,16120,876,-169,12,10
6771.459,304,304,302,305,1932,16120,876,-169,12,10
6771.459,304,304,301,305,2120,16588,760,-12,-49,0
6778.308,304,304,302,305,2120,16588,760,-12,-49,0
6778.308,304,304,302,305,2120,16588,760,-12,-49,0
6792.379999999999,304,304,302,305,2120,16588,760,-12,-49,0
6796.469,304,304,302,305,2120,16588,760,-12,-49,0
6804.725,304,304,302,305,2120,16588,760,-12,-49,0
6808.351,304,304,302,305,2120,16588,760,-12,-49,0
6813.112,304,304,302,305,2120,16588,760,-12,-49,0
6815.12,303,304,302,305,2080,16168,840,-151,3,-32
6825.122,304,304,302,305,2080,16168,840,-151,3,-32
6828.4349999999995,304,304,302,305,2080,16168,840,-151,3,-32
6833.152,304,304,302,305,2080,16168,840,-151,3,-32
6834.169,304,304,301,305,2080,16168,840,-151,3,-32
6845.0470000000005,304,304,302,305,2080,16168,840,-151,3,-32
6845.0470000000005,304,304,302,304,2080,16168,840,-151,3,-32
6857.902,304,304,302,305,2028,16344,840,-40,22,-34
6861.881,303,304,302,305,2028,16344,840,-40,22,-34
6865.369000000001,303,305,302,305,2028,16344,840,-40,22,-34
6873.199,304,304,302,305,2028,16344,840,-40,22,-34
6878.548000000001,304,304,302,305,2028,16344,840,-40,22,-34
6878.548000000001,303,304,302,305,2028,16344,840,-40,22,-34
6889.478999999999,304,304,302,305,2028,16344,840,-40,22,-34
6889.478999999999,304,304,301,305,2028,16344,840,-40,22,-34
6889.478999999999,304,304,302,305,1968,16216,768,-70,8,-42
6902.9619999999995,304,304,302,305,1968,16216,768,-70,8,-42
6910.92,303,304,301,305,1968,16216,768,-70,8,-42
6911.741,303,304,301,305,1968,16216,768,-70,8,-42
6911.741,303,304,302,305,1968,16216,768,-70,8,-42
6926.707,304,304,301,305,1968,16216,768,-70,8,-42
6927.651,304,304,301,305,1968,16216,768,-70,8,-42
6933.965,304,304,301,304,2108,16408,868,-1,30,-22
6933.965,304,304,302,305,2108,16408,868,-1,30,-22
6948.016,303,304,302,305,2108,16408,868,-1,30,-22
6952.117,303,304,302,305,2108,16408,868,-1,30,-22
6956.213,304,304,302,305,2108,16408,868,-1,30,-22
6964.391,303,304,301,305,2108,16408,868,-1,30,-22
6968.479,304,304,301,305,2108,16408,868,-1,30,-22
6972.637,304,304,302,305,2108,16408,868,-1,30,-22
6972.637,304,304,302,305,2060,16092,824,-114,15,-8
6983.937,304,304,302,305,2060,16092,824,-114,15,-8
6988.71,303,304,302,305,2060,16092,824,-114,15,-8
6989.794,303,304,302,305,2060,16092,824,-114,15,-8
7000.672,304,304,302,305,2060,16092,824,-114,15,-8
7000.672,303,304,302,305,2060,16092,824,-114,15,-8
7000.672,304,304,302,305,2060,16092,824,-114,15,-8
7016.665,304,304,302,305,2000,16316,904,7,34,-23
7016.665,304,304,302,305,2000,16316,904,7,34,-23
7025.825,304,304,302,305,2000,16316,904,7,34,-23
7028.465,303,304,302,304,2000,16316,904,7,34,-23
7034.201,304,304,302,305,2000,16316,904,7,34,-23
7034.201,304,304,302,304,2000,16316,904,7,34,-23
7045.075,303,304,302,304,2000,16316,904,7,34,-23
7045.075,303,304,302,305,2000,16316,904,7,34,-23
7058.6,304,304,302,305,2076,16108,860,-121,3,16
7062.724,304,304,302,305,2076,16108,860,-121,3,16
7066.478,304,304,302,305,2076,16108,860,-121,3,16
7073.214,303,304,302,305,2076,16108,860,-121,3,16
7078.593,303,304,302,305,2076,16108,860,-121,3,16
7083.488,303,304,302,305,2076,16108,860,-121,3,16
7083.488,304,304,302,305,2076,16108,860,-121,3,16
7089.465999999999,303,304,302,305,2076,16108,860,-121,3,16
7089.465999999999,304,304,302,305,2036,16384,764,-20,18,-50
7103.724,304,304,302,304,2036,16384,764,-20,18,-50
7111.84,304,304,302,305,2036,16384,764,-20,18,-50
7115.932,303,304,302,305,2036,16384,764,-20,18,-50
7119.8949999999995,303,304,302,305,2036,16384,764,-20,18,-50
7126.31,304,304,302,304,2036,16384,764,-20,18,-50
7126.31,304,304,302,305,2036,16384,764,-20,18,-50
7136.425,303,304,302,305,2028,16080,852,-88,9,-20
7139.494,304,304,302,305,2028,16080,852,-88,9,-20
7145.205,304,304,302,305,2028,16080,852,-88,9,-20
7145.205,304,304,302,305,2028,16080,852,-88,9,-20
7156.139999999999,304,304,302,305,2028,16080,852,-88,9,-20
7156.139999999999,304,304,301,305,2028,16080,852,-88,9,-20
7169.181,304,304,302,306,2028,16080,852,-88,9,-20
7173.368,304,304,301,305,2028,16080,852,-88,9,-20
7177.58,303,304,302,305,2028,16424,864,-52,3,4
7183.922,304,304,302,305,2028,16424,864,-52,3,4
7189.670999999999,304,304,302,305,2028,16424,864,-52,3,4
7189.670999999999,304,304,302,305,2028,16424,864,-52,3,4
7189.670999999999,304,303,302,305,2028,16424,864,-52,3,4
7200.602,303,304,302,305,2028,16424,864,-52,3,4
7200.602,304,304,302,305,2028,16424,864,-52,3,4
7214.235000000001,304,303,302,305,2028,16424,864,-52,3,4
7218.336,303,303,302,305,2124,16428,872,-59,3,-22
7222.731,304,304,302,305,2124,16428,872,-59,3,-22
7222.731,304,304,302,305,2124,16428,872,-59,3,-22
7234.736,304,304,302,305,2124,16428,872,-59,3,-22
7239.1269999999995,303,304,302,305,2124,16428,872,-59,3,-22
7245.093,304,304,302,305,2124,16428,872,-59,3,-22
7245.093,304,304,302,305,2124,16428,872,-59,3,-22
7255.394,304,304,302,305,2124,16428,872,-59,3,-22
7263.39,304,304,302,305,2108,16324,864,-38,22,-23
7267.492,304,304,302,305,2108,16324,864,-38,22,-23
7271.594999999999,304,304,302,305,2108,16324,864,-38,22,-23
7275.605,304,304,302,305,2108,16324,864,-38,22,-23
7282.657999999999,304,304,302,305,2108,16324,864,-38,22,-23
7282.657999999999,303,304,302,305,2108,16324,864,-38,22,-23
7292.063,303,304,302,305,2108,16324,864,-38,22,-23
7299.829,303,304,302,305,2012,16120,844,-90,2,-26
7300.941,303,304,302,305,2012,16120,844,-90,2,-26
7300.941,303,304,302,305,2012,16120,844,-90,2,-26
7311.754,304,304,302,305,2012,16120,844,-90,2,-26
7311.754,303,304,302,305,2012,16120,844,-90,2,-26
7324.8369999999995,304,304,302,305,2012,16120,844,-90,2,-26
7328.933,304,304,302,305,2012,16120,844,-90,2,-26
7336.557,304,304,302,305,2012,16120,844,-90,2,-26
7339.575,303,304,302,305,2180,16624,892,17,26,-23
7345.505,303,304,302,305,2180,16624,892,17,26,-23
7345.505,303,304,302,305,2180,16624,892,17,26,-23
7356.149,304,304,302,305,2180,16624,892,17,26,-23
7356.149,304,304,302,305,2180,16624,892,17,26,-23
7356.149,304,304,302,305,2180,16624,892,17,26,-23
7373.986999999999,303,304,302,305,2180,16624,892,17,26,-23
7378.0869999999995,303,304,302,305,1988,16000,784,-130,13,5
7382.189,303,304,302,305,1988,16000,784,-130,13,5
7389.903,304,304,302,305,1988,16000,784,-130,13,5
7392.9130000000005,303,304,302,305,1988,16000,784,-130,13,5
7392.9130000000005,303,304,302,305,1988,16000,784,-130,13,5
7402.723,304,304,301,305,1988,16000,784,-130,13,5
7410.927,304,304,302,305,1988,16000,784,-130,13,5
7411.813999999999,303,304,302,305,1988,16000,784,-130,13,5
7411.813999999999,304,304,302,305,2084,16436,792,-4,24,-62
7422.812000000001,303,304,302,305,2084,16436,792,-4,24,-62
7422.812000000001,304,304,302,305,2084,16436,792,-4,24,-62
7435.4259999999995,303,304,302,305,2084,16436,792,-4,24,-62
7439.7609999999995,304,304,302,305,2084,16436,792,-4,24,-62
7447.726000000001,303,304,302,305,2084,16436,792,-4,24,-62
7450.807,304,304,302,304,2084,16436,792,-4,24,-62
7456.374000000001,304,304,302,305,2084,16436,792,-4,24,-62
7456.512,304,304,302,305,2096,16112,832,-133,15,5
7467.237,304,304,301,305,2096,16112,832,-133,15,5
7467.237,304,304,302,305,2096,16112,832,-133,15,5
7473.749,304,304,302,305,2096,16112,832,-133,15,5
7483.164000000001,304,304,302,305,2096,16112,832,-133,15,5
7488.666,303,304,302,305,2096,16112,832,-133,15,5
7489.783,304,304,302,305,2096,16112,832,-133,15,5
7489.783,303,304,302,305,2000,16448,840,2,20,-17
7505.045,303,304,302,304,2000,16448,840,2,20,-17
7509.1720000000005,304,304,302,304,2000,16448,840,2,20,-17
7513.248,304,304,302,305,2000,16448,840,2,20,-17
7521.439,304,304,302,305,2000,16448,840,2,20,-17
7522.671,304,304,302,304,2000,16448,840,2,20,-17
7522.671,304,304,302,305,2000,16448,840,2,20,-17
7533.952,304,304,302,305,2000,16448,840,2,20,-17
7539.831999999999,304,304,302,305,2108,16216,868,-105,-13,-9
7546.005,304,304,302,305,2108,16216,868,-105,-13,-9
7550.1050000000005,303,304,302,305,2108,16216,868,-105,-13,-9
7556.545,304,304,302,305,2108,16216,868,-105,-13,-9
7556.545,303,304,302,305,2108,16216,868,-105,-13,-9
7566.489,303,304,301,305,2108,16216,868,-105,-13,-9
7574.356,304,304,302,305,2108,16216,868,-105,-13,-9
7578.784,304,304,302,305,2052,16228,860,-58,12,-18
7582.868,304,304,301,305,2052,16228,860,-58,12,-18
7591.051,303,304,302,305,2052,16228,860,-58,12,-18
7595.152,304,304,302,305,2052,16228,860,-58,12,-18
7599.253,304,304,302,305,2052,16228,860,-58,12,-18
7604.07,303,304,302,305,2052,16228,860,-58,12,-18
7611.815,304,304,302,305,2052,16228,860,-58,12,-18
7615.6410000000005,304,304,302,305,2052,16228,860,-58,12,-18
7623.034,304,304,302,305,2064,16288,804,-76,13,-32
7623.034,304,304,302,305,2064,16288,804,-76,13,-32
7623.034,304,304,302,305,2064,16288,804,-76,13,-32
7634.041,304,304,302,305,2064,16288,804,-76,13,-32
7644.253,304,304,302,305,2064,16288,804,-76,13,-32
7648.402,304,304,301,305,2064,16288,804,-76,13,-32
7652.503000000001,303,304,302,305,2064,16288,804,-76,13,-32
7660.724,303,304,301,305,2040,16176,848,-65,27,0
7661.492,304,304,301,305,2040,16176,848,-65,27,0
7667.307,304,304,301,305,2040,16176,848,-65,27,0
7667.307,304,304,302,305,2040,16176,848,-65,27,0
7678.442,303,304,301,305,2040,16176,848,-65,27,0
7678.442,303,304,302,305,2040,16176,848,-65,27,0
7689.361,303,304,302,305,2040,16176,848,-65,27,0
7693.367,304,304,302,305,2040,16176,848,-65,27,0
7701.900000000001,304,304,302,305,2032,16360,792,-42,-9,-71
7705.9,304,304,302,305,2032,16360,792,-42,-9,-71
7706.922,304,304,302,304,2032,16360,792,-42,-9,-71
7712.1320000000005,303,304,302,304,2032,16360,792,-42,-9,-71
7722.044000000001,303,304,302,305,2032,16360,792,-42,-9,-71
7722.914000000001,303,304,301,305,2032,16360,792,-42,-9,-71
7734.407,303,304,302,305,2032,16360,792,-42,-9,-71
7738.509,304,304,302,304,1964,16224,844,-56,13,30
7742.611,303,304,302,304,1964,16224,844,-56,13,30
7749.920999999999,303,304,302,305,1964,16224,844,-56,13,30
7754.902,304,304,302,305,1964,16224,844,-56,13,30
7756.022,304,304,302,304,1964,16224,844,-56,13,30
7756.022,303,304,302,305,1964,16224,844,-56,13,30
7771.284,304,304,301,305,1964,16224,844,-56,13,30
7775.369000000001,303,304,301,305,1964,16224,844,-56,13,30
7778.585,304,304,302,305,2020,16164,788,-85,8,-48
7778.585,305,304,302,305,2020,16164,788,-85,8,-48
7789.503,304,304,302,305,2020,16164,788,-85,8,-48
7789.503,304,304,302,305,2020,16164,788,-85,8,-48
7799.829,304,304,302,305,2020,16164,788,-85,8,-48
7808.146,303,304,302,305,2020,16164,788,-85,8,-48
7811.764,304,304,302,305,2020,16164,788,-85,8,-48
7811.764,304,304,302,305,2020,16164,788,-85,8,-48
7811.764,304,304,302,305,2148,16488,856,5,15,-29
7827.744,304,304,302,305,2148,16488,856,5,15,-29
7827.744,304,304,302,305,2148,16488,856,5,15,-29
7834.043000000001,304,304,302,305,2148,16488,856,5,15,-29
7845.021,304,304,302,305,2148,16488,856,5,15,-29
7849.112,304,304,302,305,2148,16488,856,5,15,-29
7853.212,304,304,302,305,2148,16488,856,5,15,-29
7857.3009999999995,304,304,302,305,2016,16076,912,-122,15,-4
7864.826,304,304,302,305,2016,16076,912,-122,15,-4
7869.581,305,304,302,305,2016,16076,912,-122,15,-4
7872.772,304,304,302,305,2016,16076,912,-122,15,-4
7878.746999999999,304,304,302,305,2016,16076,912,-122,15,-4
7878.746999999999,304,304,302,305,2016,16076,912,-122,15,-4
7889.389,304,304,302,305,2016,16076,912,-122,15,-4
7889.389,304,304,302,305,2016,16076,912,-122,15,-4
7902.367,304,304,302,305,2072,16508,824,40,39,-58
7906.4439999999995,304,304,302,304,2072,16508,824,40,39,-58
7910.8150000000005,304,304,302,304,2072,16508,824,40,39,-58
7918.7300000000005,304,304,301,304,2072,16508,824,40,39,-58
7923.066000000001,304,304,302,304,2072,16508,824,40,39,-58
7926.907,304,304,301,304,2072,16508,824,40,39,-58
7934.347,303,304,302,305,2072,16508,824,40,39,-58
7934.347,303,304,302,305,2016,16012,796,-147,-27,-1
7934.347,304,304,302,305,2016,16012,796,-147,-27,-1
7945.061,303,304,301,305,2016,16012,796,-147,-27,-1
7955.344,304,304,302,305,2016,16012,796,-147,-27,-1
7959.176,304,304,301,305,2016,16012,796,-147,-27,-1
7967.878,304,304,301,305,2016,16012,796,-147,-27,-1
7971.968000000001,303,304,302,305,2016,16012,796,-147,-27,-1
7976.1410000000005,304,304,301,305,2016,16012,796,-147,-27,-1
7978.451,303,304,301,305,2064,16476,840,-15,27,-42
7978.451,304,304,302,305,2064,16476,840,-15,27,-42
7989.467000000001,303,304,302,305,2064,16476,840,-15,27,-42
8000.724999999999,304,304,302,305,2064,16476,840,-15,27,-42
8004.754999999999,304,304,301,305,2064,16476,840,-15,27,-42
8008.844,305,304,301,305,2064,16476,840,-15,27,-42
8012.942000000001,304,304,302,305,2064,16476,840,-15,27,-42
8021.0740000000005,303,304,302,305,1948,15992,812,-137,-1,15
8025.223000000001,304,304,302,305,1948,15992,812,-137,-1,15
8028.589999999999,304,304,302,305,1948,15992,812,-137,-1,15
8034.262999999999,304,304,302,305,1948,15992,812,-137,-1,15
8034.262999999999,304,304,302,305,1948,15992,812,-137,-1,15
8045.036,304,304,301,305,1948,15992,812,-137,-1,15
8045.036,304,304,301,305,1948,15992,812,-137,-1,15
8057.998,304,304,302,305,1948,15992,812,-137,-1,15
8062.087,304,304,302,305,2044,16440,804,14,2,-36
8070.271,304,304,301,305,2044,16440,804,14,2,-36
8074.367,304,304,302,304,2044,16440,804,14,2,-36
8078.703,304,304,302,305,2044,16440,804,14,2,-36
8082.5689999999995,304,304,302,305,2044,16440,804,14,2,-36
8089.789,304,304,302,305,2044,16440,804,14,2,-36
8089.789,304,304,302,305,2044,16440,804,14,2,-36
8089.789,304,304,302,305,2108,16260,820,-82,17,-8
8100.529999999999,304,304,302,305,2108,16260,820,-82,17,-8
8111.231,304,304,302,305,2108,16260,820,-82,17,-8
8114.718999999999,303,304,302,305,2108,16260,820,-82,17,-8
8119.419000000001,304,304,302,305,2108,16260,820,-82,17,-8
8127.623,304,304,302,305,2108,16260,820,-82,17,-8
8131.724999999999,304,304,302,305,2108,16260,820,-82,17,-8
8135.669,304,304,302,305,2108,16260,820,-82,17,-8
8136.427,304,304,302,305,2012,16136,840,-65,8,-13
8148.104,304,304,302,305,2012,16136,840,-65,8,-13
8150.572,303,304,302,305,2012,16136,840,-65,8,-13
8156.414,304,304,302,305,2012,16136,840,-65,8,-13
8156.414,304,304,302,305,2012,16136,840,-65,8,-13
8168.566999999999,304,304,303,305,2012,16136,840,-65,8,-13
8172.779,304,304,302,305,2012,16136,840,-65,8,-13
8176.7880000000005,304,304,302,305,2012,16136,840,-65,8,-13
8178.601000000001,304,304,302,305,2072,16288,912,-49,30,-69
8188.722000000001,303,304,302,305,2072,16288,912,-49,30,-69
8193.158000000001,304,304,302,305,2072,16288,912,-49,30,-69
8200.76,304,304,302,305,2072,16288,912,-49,30,-69
8200.76,303,304,302,305,2072,16288,912,-49,30,-69
8200.76,304,304,302,305,2072,16288,912,-49,30,-69
8211.830000000002,304,304,302,305,2072,16288,912,-49,30,-69
8211.830000000002,304,304,302,305,2132,16224,768,-53,4,29
8225.927,303,304,302,305,2132,16224,768,-53,4,29
8230.02,303,304,302,305,2132,16224,768,-53,4,29
8238.212000000001,303,304,302,305,2132,16224,768,-53,4,29
8240.227,303,304,302,305,2132,16224,768,-53,4,29
8245.2,304,304,302,305,2132,16224,768,-53,4,29
8245.2,304,304,302,305,2132,16224,768,-53,4,29
8256.284000000001,304,304,302,305,2132,16224,768,-53,4,29
8256.284000000001,304,304,301,305,2028,16188,792,-90,22,-57
8266.876,303,304,302,305,2028,16188,792,-90,22,-57
8275.081,303,304,302,305,2028,16188,792,-90,22,-57
8279.184000000001,303,304,302,305,2028,16188,792,-90,22,-57
8283.277999999998,303,304,302,305,2028,16188,792,-90,22,-57
8291.199,303,304,302,305,2028,16188,792,-90,22,-57
8291.938999999998,303,304,302,305,2028,16188,792,-90,22,-57
8299.825,303,304,302,305,2080,16496,884,-16,14,0
8303.734999999999,303,304,302,305,2080,16496,884,-16,14,0
8311.972000000002,304,304,302,305,2080,16496,884,-16,14,0
8311.972000000002,303,304,302,305,2080,16496,884,-16,14,0
8311.972000000002,303,304,302,305,2080,16496,884,-16,14,0
8322.784,303,304,302,305,2080,16496,884,-16,14,0
8322.784,303,304,302,305,2080,16496,884,-16,14,0
8336.520999999999,303,304,302,305,2080,16496,884,-16,14,0
8340.61,304,304,302,305,1984,15956,788,-140,-2,-8
8345.057,304,304,302,305,1984,15956,788,-140,-2,-8
8350.628,304,304,302,305,1984,15956,788,-140,-2,-8
8356.298,303,304,302,305,1984,15956,788,-140,-2,-8
8356.298,303,304,302,305,1984,15956,788,-140,-2,-8
8367.236,303,304,302,305,1984,15956,788,-140,-2,-8
8367.236,303,304,301,305,1984,15956,788,-140,-2,-8
8377.601999999999,303,304,302,305,1984,15956,788,-140,-2,-8
8385.726,303,304,302,305,2156,16704,836,51,51,-59
8389.916,304,304,302,305,2156,16704,836,51,51,-59
8393.855,304,304,302,305,2156,16704,836,51,51,-59
8395.882,303,304,302,305,2156,16704,836,51,51,-59
8400.756,303,303,302,305,2156,16704,836,51,51,-59
8400.756,303,304,302,305,2156,16704,836,51,51,-59
8411.839,303,304,302,305,2156,16704,836,51,51,-59
8422.53,304,304,302,305,2024,15928,836,-173,-28,34
8426.629,304,304,301,305,2024,15928,836,-173,-28,34
8430.731,304,304,302,305,2024,15928,836,-173,-28,34
8438.909000000001,304,304,302,305,2024,15928,836,-173,-28,34
8443.005,304,304,302,305,2024,15928,836,-173,-28,34
8447.448,303,304,301,305,2024,15928,836,-173,-28,34
8455.366,303,304,302,305,2024,15928,836,-173,-28,34
8457.048,303,304,302,305,2140,16512,864,17,38,-90
8457.048,304,304,302,305,2140,16512,864,17,38,-90
8467.982,304,304,302,305,2140,16512,864,17,38,-90
8467.982,304,304,302,305,2140,16512,864,17,38,-90
8478.883,304,304,302,305,2140,16512,864,17,38,-90
8478.883,303,304,301,305,2140,16512,864,17,38,-90
8492.152,303,304,302,305,2140,16512,864,17,38,-90
8495.369,303,304,302,305,2140,16512,864,17,38,-90
8500.559000000001,303,304,302,305,1988,16064,860,-78,8,29
8505.985,304,304,302,305,1988,16064,860,-78,8,29
8511.836000000001,304,304,302,305,1988,16064,860,-78,8,29
8511.836000000001,303,304,302,305,1988,16064,860,-78,8,29
8511.836000000001,304,304,302,305,1988,16064,860,-78,8,29
8522.953,304,304,302,305,1988,16064,860,-78,8,29
8533.163,304,304,302,305,1988,16064,860,-78,8,29
8537.206,304,304,302,305,1988,16064,860,-78,8,29
8541.301000000001,303,304,302,305,2080,16352,848,-63,22,-47
8549.480000000001,304,304,302,305,2080,16352,848,-63,22,-47
8553.708999999999,304,304,302,305,2080,16352,848,-63,22,-47
8557.492999999999,304,304,302,305,2080,16352,848,-63,22,-47
8560.507,304,304,302,305,2080,16352,848,-63,22,-47
8569.986,303,304,302,305,2080,16352,848,-63,22,-47
8573.978000000001,304,304,302,305,2080,16352,848,-63,22,-47
8579.069000000001,304,304,302,305,2104,16344,860,-51,29,-4
8579.069000000001,304,304,302,305,2104,16344,860,-51,29,-4
8589.42,303,304,302,305,2104,16344,860,-51,29,-4
8589.42,304,304,301,305,2104,16344,860,-51,29,-4
8602.734999999999,304,304,301,305,2104,16344,860,-51,29,-4
8606.379,304,304,302,305,2104,16344,860,-51,29,-4
8610.943000000001,303,304,302,305,2104,16344,860,-51,29,-4
8617.294,303,304,301,305,2104,16344,860,-51,29,-4
8622.913999999999,303,304,302,305,2056,16124,868,-104,-21,-3
8622.913999999999,304,304,302,305,2056,16124,868,-104,-21,-3
8633.917,304,304,302,305,2056,16124,868,-104,-21,-3
8633.917,304,304,301,305,2056,16124,868,-104,-21,-3
8633.917,304,304,302,305,2056,16124,868,-104,-21,-3
8651.89,304,304,302,305,2056,16124,868,-104,-21,-3
8656.319,303,304,302,305,2056,16124,868,-104,-21,-3
8656.319,303,304,302,305,2140,16524,828,-4,29,-53
8668.092,303,304,302,305,2140,16524,828,-4,29,-53
8672.374,303,304,302,305,2140,16524,828,-4,29,-53
8673.122,304,304,302,305,2140,16524,828,-4,29,-53
8679.608999999999,304,304,302,305,2140,16524,828,-4,29,-53
8688.713,304,304,302,305,2140,16524,828,-4,29,-53
8692.837000000001,304,304,301,305,2140,16524,828,-4,29,-53
8696.94,304,304,302,305,2140,16524,828,-4,29,-53
8705.143,303,304,302,304,2060,16316,872,-95,16,24
8709.334,303,304,302,305,2060,16316,872,-95,16,24
8713.616,303,304,302,305,2060,16316,872,-95,16,24
8716.632000000001,303,304,302,304,2060,16316,872,-95,16,24
8725.615,304,304,302,305,2060,16316,872,-95,16,24
8728.958999999999,304,304,302,304,2060,16316,872,-95,16,24
8734.154999999999,304,304,302,305,2060,16316,872,-95,16,24
8734.37,303,304,302,305,2056,16156,792,-31,17,-70
8744.954,304,304,302,305,2056,16156,792,-31,17,-70
8744.954,303,304,301,305,2056,16156,792,-31,17,-70
8758.353,304,304,301,305,2056,16156,792,-31,17,-70
8762.485,303,304,301,305,2056,16156,792,-31,17,-70
8766.467999999999,304,304,302,305,2056,16156,792,-31,17,-70
8772.633000000002,304,304,301,305,2056,16156,792,-31,17,-70
8778.518999999998,304,304,302,305,2056,16156,792,-31,17,-70
8780.028,303,304,302,305,2152,16644,868,20,31,-7
8780.028,303,304,302,305,2152,16644,868,20,31,-7
8789.475,303,304,302,305,2152,16644,868,20,31,-7
8789.475,304,304,302,305,2152,16644,868,20,31,-7
8803.451000000001,304,304,302,305,2152,16644,868,20,31,-7
8807.539,304,304,302,305,2152,16644,868,20,31,-7
8815.73,304,304,302,305,2152,16644,868,20,31,-7
8819.656,304,304,302,305,2152,16644,868,20,31,-7
8823.92,303,304,302,305,2036,16000,776,-156,-12,-5
8828.32,304,304,302,305,2036,16000,776,-156,-12,-5
8834.163,303,304,302,305,2036,16000,776,-156,-12,-5
8834.163,304,304,302,305,2036,16000,776,-156,-12,-5
8845.198999999999,303,304,302,305,2036,16000,776,-156,-12,-5
8845.198999999999,304,304,302,305,2036,16000,776,-156,-12,-5
8856.724,304,304,302,305,2036,16000,776,-156,-12,-5
8864.164,304,304,302,305,2132,16652,844,10,43,-41
8867.212,304,304,302,305,2132,16652,844,10,43,-41
8867.212,303,304,302,305,2132,16652,844,10,43,-41
8877.582,303,304,302,305,2132,16652,844,10,43,-41
8883.343,304,304,302,305,2132,16652,844,10,43,-41
8889.439,303,304,302,305,2132,16652,844,10,43,-41
8889.439,304,304,302,305,2132,16652,844,10,43,-41
8901.742,304,304,302,305,2132,16652,844,10,43,-41
8905.844000000001,304,304,302,305,2028,16016,840,-128,-3,45
8909.944,304,304,302,305,2028,16016,840,-128,-3,45
8918.131000000001,303,304,302,305,2028,16016,840,-128,-3,45
8922.205,303,304,302,305,2028,16016,840,-128,-3,45
8926.306,304,304,302,305,2028,16016,840,-128,-3,45
8928.178000000002,304,304,302,305,2028,16016,840,-128,-3,45
8934.303,304,304,302,305,2028,16016,840,-128,-3,45
8934.303,304,304,302,305,2192,16608,800,28,58,-62
8945.021999999999,304,304,302,305,2192,16608,800,28,58,-62
8945.021999999999,304,304,302,305,2192,16608,800,28,58,-62
8958.71,304,304,302,305,2192,16608,800,28,58,-62
8963.175,304,304,302,305,2192,16608,800,28,58,-62
8967.284,304,304,302,305,2192,16608,800,28,58,-62
8975.508,303,304,302,305,2192,16608,800,28,58,-62
8979.615000000002,304,304,302,305,2192,16608,800,28,58,-62
8982.163999999999,304,304,302,305,2044,16208,848,-85,4,30
8989.572,305,304,302,305,2044,16208,848,-85,4,30
8989.572,304,304,302,305,2044,16208,848,-85,4,30
8999.822999999999,304,304,302,305,2044,16208,848,-85,4,30
9004.14,304,304,302,305,2044,16208,848,-85,4,30
9011.694,303,304,302,305,2044,16208,848,-85,4,30
9011.694,303,304,302,304,2044,16208,848,-85,4,30
9011.694,304,304,302,305,2056,16400,884,-38,28,-37
9024.604,304,304,302,304,2056,16400,884,-38,28,-37
9032.156,304,304,302,304,2056,16400,884,-38,28,-37
9036.907,304,304,302,305,2056,16400,884,-38,28,-37
9039.491999999998,303,304,302,305,2056,16400,884,-38,28,-37
9045.306999999999,303,304,302,305,2056,16400,884,-38,28,-37
9045.306999999999,303,304,302,305,2056,16400,884,-38,28,-37
9056.138,304,304,302,305,2056,16400,884,-38,28,-37
9056.138,304,304,302,305,2144,16288,840,-36,36,-33
9069.724,304,304,302,305,2144,16288,840,-36,36,-33
9073.76,304,304,302,304,2144,16288,840,-36,36,-33
9081.961,304,304,302,305,2144,16288,840,-36,36,-33
9083.746,303,304,302,305,2144,16288,840,-36,36,-33
9089.743999999999,304,304,302,305,2144,16288,840,-36,36,-33
9094.774,303,304,302,305,2144,16288,840,-36,36,-33
9100.884,303,304,302,304,2024,16164,792,-76,12,-28
9100.884,304,304,302,304,2024,16164,792,-76,12,-28
9110.912,304,304,301,305,2024,16164,792,-76,12,-28
9111.615,304,304,302,304,2024,16164,792,-76,12,-28
9122.904999999999,304,304,302,304,2024,16164,792,-76,12,-28
9127.368,303,304,302,304,2024,16164,792,-76,12,-28
9133.934,303,304,302,305,2024,16164,792,-76,12,-28
9133.934,304,304,302,305,2024,16164,792,-76,12,-28
9133.934,303,304,302,305,2116,16424,800,-47,31,-47
9151.002999999999,304,304,302,305,2116,16424,800,-47,31,-47
9155.383,304,304,301,305,2116,16424,800,-47,31,-47
9156.25,304,304,302,305,2116,16424,800,-47,31,-47
9167.956,304,304,301,305,2116,16424,800,-47,31,-47
9172.057,304,304,301,305,2116,16424,800,-47,31,-47
9176.159,303,304,302,305,2116,16424,800,-47,31,-47
9184.36,304,304,302,305,2004,16244,808,-86,-9,32
9188.691,303,304,302,304,2004,16244,808,-86,-9,32
9189.705,304,304,302,305,2004,16244,808,-86,-9,32
9189.705,304,304,302,305,2004,16244,808,-86,-9,32
9204.838,304,304,302,305,2004,16244,808,-86,-9,32
9206.851999999999,304,304,302,305,2004,16244,808,-86,-9,32
9211.854000000001,303,304,302,305,2004,16244,808,-86,-9,32
9211.854000000001,303,304,302,305,2004,16244,808,-86,-9,32
9222.899,303,304,302,305,2020,16200,780,-98,16,-51
9222.899,303,304,302,305,2020,16200,780,-98,16,-51
9237.605,304,304,302,305,2020,16200,780,-98,16,-51
9241.723,303,304,302,305,2020,16200,780,-98,16,-51
9245.803,304,304,301,305,2020,16200,780,-98,16,-51
9250.411,303,304,302,305,2020,16200,780,-98,16,-51
9256.190999999999,303,304,302,305,2020,16200,780,-98,16,-51
9256.190999999999,303,304,302,305,2136,16624,840,-16,18,14
9266.498,303,304,301,305,2136,16624,840,-16,18,14
9267.408,304,304,302,305,2136,16624,840,-16,18,14
9278.565,304,304,302,305,2136,16624,840,-16,18,14
9282.939,304,304,302,305,2136,16624,840,-16,18,14
9290.849,304,304,302,305,2136,16624,840,-16,18,14
9294.945,304,304,302,305,2136,16624,840,-16,18,14
9298.897,303,304,302,305,2136,16624,840,-16,18,14
9303.136,303,304,301,305,2020,15936,824,-138,-13,3
9310.937,304,304,302,305,2020,15936,824,-138,-13,3
9315.412999999999,304,304,302,305,2020,15936,824,-138,-13,3
9317.524000000001,304,304,302,305,2020,15936,824,-138,-13,3
9323.181999999999,304,304,302,305,2020,15936,824,-138,-13,3
9323.181999999999,304,304,302,305,2020,15936,824,-138,-13,3
9333.972,304,304,302,305,2020,15936,824,-138,-13,3
9333.972,303,304,302,305,2152,16628,844,23,36,-28
9348.188,303,304,302,305,2152,16628,844,23,36,-28
9352.282000000001,304,304,302,305,2152,16628,844,23,36,-28
9356.709,304,304,302,305,2152,16628,844,23,36,-28
9362.473,304,304,302,305,2152,16628,844,23,36,-28
9367.453,304,304,302,305,2152,16628,844,23,36,-28
9367.453,304,304,302,305,2152,16628,844,23,36,-28
9378.520999999999,304,304,302,305,2152,16628,844,23,36,-28
9382.532,303,304,302,305,2040,16088,792,-130,-23,29
9389.205,304,304,302,305,2040,16088,792,-130,-23,29
9397.323,303,304,302,305,2040,16088,792,-130,-23,29
9401.431,304,304,302,305,2040,16088,792,-130,-23,29
9405.844000000001,304,304,302,305,2040,16088,792,-130,-23,29
9411.817,304,304,302,305,2040,16088,792,-130,-23,29
9411.817,304,304,302,305,2040,16088,792,-130,-23,29
9422.015,304,304,302,305,2100,16472,808,11,31,-59
9422.814,304,304,302,305,2100,16472,808,11,31,-59
9434.206,303,304,302,305,2100,16472,808,11,31,-59
9437.690999999999,304,304,302,305,2100,16472,808,11,31,-59
9442.39,303,304,302,305,2100,16472,808,11,31,-59
9450.581,304,304,302,305,2100,16472,808,11,31,-59
9454.723,304,304,302,305,2100,16472,808,11,31,-59
9458.764000000001,304,304,302,305,2100,16472,808,11,31,-59
9466.485999999999,304,304,302,305,2068,16404,876,-41,18,2
9471.075,304,304,302,305,2068,16404,876,-41,18,2
9473.089999999998,304,304,302,305,2068,16404,876,-41,18,2
9478.547,304,304,302,305,2068,16404,876,-41,18,2
9483.057999999999,304,304,302,305,2068,16404,876,-41,18,2
9489.697,303,304,302,305,2068,16404,876,-41,18,2
9489.697,304,304,302,305,2068,16404,876,-41,18,2
9499.939,304,304,302,305,2068,16404,876,-41,18,2
9505.653,304,304,302,305,1996,16084,792,-71,9,-1
9512.173,304,304,302,304,1996,16084,792,-71,9,-1
9516.123,304,304,302,304,1996,16084,792,-71,9,-1
9518.138,304,304,302,305,1996,16084,792,-71,9,-1
9522.99,304,304,302,305,1996,16084,792,-71,9,-1
9522.99,304,304,302,305,1996,16084,792,-71,9,-1
9534.050000000001,304,304,302,305,1996,16084,792,-71,9,-1
9534.050000000001,304,304,301,305,2100,16380,836,1,15,-52
9548.795,304,304,301,305,2100,16380,836,1,15,-52
9552.967,304,304,301,305,2100,16380,836,1,15,-52
9556.813999999998,304,304,301,305,2100,16380,836,1,15,-52
9561.17,304,304,301,305,2100,16380,836,1,15,-52
9567.432,303,304,301,305,2100,16380,836,1,15,-52
9567.432,303,304,301,305,2100,16380,836,1,15,-52
9577.591999999999,304,304,302,305,2100,16380,836,1,15,-52
9578.466,304,304,302,305,2052,16196,852,-117,-2,4
9589.837,303,304,301,305,2052,16196,852,-117,-2,4
9593.930999999999,305,304,301,305,2052,16196,852,-117,-2,4
9598.022,304,304,302,305,2052,16196,852,-117,-2,4
9606.223999999998,304,304,301,305,2052,16196,852,-117,-2,4
9609.801,304,303,302,305,2052,16196,852,-117,-2,4
9614.084,303,304,302,305,2052,16196,852,-117,-2,4
9615.098,304,304,302,305,2052,16196,852,-117,-2,4
9626.338,304,304,301,304,2092,16280,824,-7,16,-49
9629.349,304,304,302,305,2092,16280,824,-7,16,-49
9634.007,304,304,301,305,2092,16280,824,-7,16,-49
9634.007,303,304,302,305,2092,16280,824,-7,16,-49
9646.251,303,304,302,305,2092,16280,824,-7,16,-49
9646.251,303,304,302,305,2092,16280,824,-7,16,-49
9655.383,303,304,302,305,2092,16280,824,-7,16,-49
9663.582999999999,303,304,302,305,2092,16280,824,-7,16,-49
9667.368,304,304,302,305,2076,16324,784,-47,8,12
9667.368,303,304,302,305,2076,16324,784,-47,8,12
9667.368,304,304,302,305,2076,16324,784,-47,8,12
9683.868,303,304,302,304,2076,16324,784,-47,8,12
9683.868,304,304,302,305,2076,16324,784,-47,8,12
9689.548999999999,304,304,302,305,2076,16324,784,-47,8,12
9689.548999999999,304,304,302,305,2076,16324,784,-47,8,12
9704.527,304,304,302,305,2068,16200,812,-72,23,-37
9708.644,304,304,301,305,2068,16200,812,-72,23,-37
9712.730000000001,304,304,302,305,2068,16200,812,-72,23,-37
9720.255,304,304,301,305,2068,16200,812,-72,23,-37
9725.206999999999,303,304,302,305,2068,16200,812,-72,23,-37
9728.218,303,304,301,305,2068,16200,812,-72,23,-37
9734.448,304,304,302,305,2068,16200,812,-72,23,-37
9734.448,303,305,302,304,2068,16200,812,-72,23,-37
9745.68,303,304,302,305,2100,16456,864,-28,36,-34
9751.696,303,304,301,305,2100,16456,864,-28,36,-34
9758.122,304,304,301,305,2100,16456,864,-28,36,-34
9761.198,304,304,301,305,2100,16456,864,-28,36,-34
9770.279999999999,303,304,301,304,2100,16456,864,-28,36,-34
9773.303,303,304,301,304,2100,16456,864,-28,36,-34
9778.582999999999,304,304,302,305,2100,16456,864,-28,36,-34
9784.024000000001,303,304,301,305,2024,16100,816,-134,10,-18
9789.392,304,304,302,305,2024,16100,816,-134,10,-18
9789.392,304,304,302,305,2024,16100,816,-134,10,-18
9802.836,304,304,302,304,2024,16100,816,-134,10,-18
9806.939,304,304,301,304,2024,16100,816,-134,10,-18
9811.137,304,304,302,305,2024,16100,816,-134,10,-18
9819.188,303,304,301,305,2024,16100,816,-134,10,-18
9822.812,304,304,302,305,2152,16628,836,29,21,-48
9822.812,304,304,302,305,2152,16628,836,29,21,-48
9822.812,304,304,302,305,2152,16628,836,29,21,-48
9839.866,304,304,302,305,2152,16628,836,29,21,-48
9839.866,305,304,302,305,2152,16628,836,29,21,-48
9845.221,304,304,302,305,2152,16628,836,29,21,-48
9855.387999999999,303,304,302,305,2152,16628,836,29,21,-48
9856.354,303,304,302,305,2152,16628,836,29,21,-48
9856.354,303,304,302,305,2024,16080,844,-107,-3,20
9872.232,303,304,302,305,2024,16080,844,-107,-3,20
9875.999,303,304,302,305,2024,16080,844,-107,-3,20
9880.723,304,304,302,305,2024,16080,844,-107,-3,20
9884.285,304,304,302,305,2024,16080,844,-107,-3,20
9889.69,304,304,301,305,2024,16080,844,-107,-3,20
9889.69,303,304,302,305,2024,16080,844,-107,-3,20
9900.617,303,304,302,305,2024,16080,844,-107,-3,20
9900.617,304,304,302,305,2084,16452,868,-8,52,-43
9913.423,304,304,302,305,2084,16452,868,-8,52,-43
9917.512999999999,303,304,302,305,2084,16452,868,-8,52,-43
9925.724,304,304,302,305,2084,16452,868,-8,52,-43
9929.788999999999,303,304,302,305,2084,16452,868,-8,52,-43
9934.178,304,304,302,305,2084,16452,868,-8,52,-43
9937.453,303,304,302,305,2084,16452,868,-8,52,-43
9945.473,303,304,301,305,2068,16176,812,-93,8,6
9950.491,304,304,301,305,2068,16176,812,-93,8,6
9950.491,303,304,301,305,2068,16176,812,-93,8,6
9956.272,303,304,302,305,2068,16176,812,-93,8,6
9966.493,304,304,301,305,2068,16176,812,-93,8,6
9967.363000000001,304,304,301,305,2068,16176,812,-93,8,6
9967.363000000001,304,304,301,305,2068,16176,812,-93,8,6
9978.945,304,304,301,305,2068,16176,812,-93,8,6
9987.132000000001,304,304,301,305,2064,16344,840,-16,18,-21
9989.589,304,304,302,305,2064,16344,840,-16,18,-21
9989.589,303,304,302,305,2064,16344,840,-16,18,-21
10003.545,304,304,302,305,2064,16344,840,-16,18,-21
10005.494,304,303,302,305,2064,16344,840,-16,18,-21
10011.86,304,304,302,305,2064,16344,840,-16,18,-21
10011.86,304,304,302,305,2064,16344,840,-16,18,-21
10024.003,304,304,301,305,2064,16344,840,-16,18,-21
10028.01,304,304,302,305,1996,16064,836,-69,29,-29
10032.180999999999,304,304,302,305,1996,16064,836,-69,29,-29
10033.812,304,304,302,305,1996,16064,836,-69,29,-29
10044.273000000001,304,304,301,305,1996,16064,836,-69,29,-29
10048.586,303,304,301,305,1996,16064,836,-69,29,-29
10056.198,303,304,302,305,1996,16064,836,-69,29,-29
10056.198,303,304,302,305,1996,16064,836,-69,29,-29
10056.198,304,304,302,305,2016,16456,812,-17,30,-10
10073.154,304,304,302,305,2016,16456,812,-17,30,-10
10077.241,303,304,302,305,2016,16456,812,-17,30,-10
10081.341999999999,303,304,302,305,2016,16456,812,-17,30,-10
10089.412,304,304,302,305,2016,16456,812,-17,30,-10
10093.422,304,304,302,305,2016,16456,812,-17,30,-10
10097.735999999999,304,304,302,305,2016,16456,812,-17,30,-10
10100.527,304,304,302,305,2040,16180,780,-89,9,16
10100.527,304,304,302,305,2040,16180,780,-89,9,16
10114.125,304,304,302,305,2040,16180,780,-89,9,16
10116.73,304,304,302,305,2040,16180,780,-89,9,16
10122.059,304,304,302,305,2040,16180,780,-89,9,16
10122.947999999999,304,304,302,304,2040,16180,780,-89,9,16
10134.591999999999,304,304,302,305,2040,16180,780,-89,9,16
10138.17,304,304,302,305,2040,16180,780,-89,9,16
10146.905,304,304,302,305,2008,16284,824,-32,19,-51
10150.605000000001,304,304,302,305,2008,16284,824,-32,19,-51
10155.364000000001,303,304,302,305,2008,16284,824,-32,19,-51
10156.297999999999,304,304,302,305,2008,16284,824,-32,19,-51
10167.356,303,304,302,305,2008,16284,824,-32,19,-51
10167.356,304,305,302,305,2008,16284,824,-32,19,-51
10167.356,304,304,302,305,2008,16284,824,-32,19,-51
10183.901,304,304,302,305,2008,16284,824,-32,19,-51
10187.917000000001,304,304,302,305,2140,16200,908,-64,2,-20
10189.555,304,304,302,305,2140,16200,908,-64,2,-20
10199.836,303,304,302,305,2140,16200,908,-64,2,-20
10204.231,304,304,302,305,2140,16200,908,-64,2,-20
10208.325,304,304,302,305,2140,16200,908,-64,2,-20
10212.414,303,304,302,305,2140,16200,908,-64,2,-20
10220.511,305,304,302,305,2140,16200,908,-64,2,-20
10222.883,304,304,302,305,2004,16236,836,-55,6,-31
10222.883,304,304,302,305,2004,16236,836,-55,6,-31
10234.026,304,304,302,305,2004,16236,836,-55,6,-31
10234.026,303,304,302,305,2004,16236,836,-55,6,-31
10245.188,304,304,302,304,2004,16236,836,-55,6,-31
10249.711,303,304,302,305,2004,16236,836,-55,6,-31
10256.226,303,304,302,305,2004,16236,836,-55,6,-31
10256.226,304,304,302,305,2004,16236,836,-55,6,-31
10256.226,304,304,302,305,2024,16220,836,-79,9,-59
10272.088,304,304,302,305,2024,16220,836,-79,9,-59
10277.592,304,304,302,305,2024,16220,836,-79,9,-59
10278.404,304,304,302,305,2024,16220,836,-79,9,-59
10285.918,304,304,302,305,2024,16220,836,-79,9,-59
10294.449,303,304,302,305,2024,16220,836,-79,9,-59
10298.685000000001,304,304,302,305,2024,16220,836,-79,9,-59
10302.532,304,304,302,304,2024,16220,836,-79,9,-59
10305.861,304,304,302,305,2128,16480,840,-45,17,-5
10311.942000000001,304,304,302,304,2128,16480,840,-45,17,-5
10311.942000000001,304,304,302,305,2128,16480,840,-45,17,-5
10322.85,304,304,302,305,2128,16480,840,-45,17,-5
10322.85,304,304,302,304,2128,16480,840,-45,17,-5
10335.295,304,304,302,305,2128,16480,840,-45,17,-5
10339.39,304,304,302,304,2128,16480,840,-45,17,-5
10347.581,304,304,302,305,1980,16164,796,-66,12,-14
10351.73,304,304,301,305,1980,16164,796,-66,12,-14
10356.182999999999,303,304,302,305,1980,16164,796,-66,12,-14
10359.506,304,304,301,305,1980,16164,796,-66,12,-14
10368.057999999999,303,304,302,304,1980,16164,796,-66,12,-14
10372.152,303,304,302,304,1980,16164,796,-66,12,-14
10378.646,303,304,302,305,1980,16164,796,-66,12,-14
10378.646,303,304,302,305,1980,16164,796,-66,12,-14
10388.696,303,304,302,304,2068,16408,856,5,57,-26
10389.668,304,304,302,304,2068,16408,856,5,57,-26
10400.83,304,304,302,305,2068,16408,856,5,57,-26
10404.921,304,304,302,305,2068,16408,856,5,57,-26
10405.547,303,304,302,305,2068,16408,856,5,57,-26
10413.097,304,304,302,305,2068,16408,856,5,57,-26
10417.236,304,304,302,305,2068,16408,856,5,57,-26
10423.030999999999,303,304,302,305,1984,16108,856,-105,-9,-5
10423.030999999999,303,304,302,305,1984,16108,856,-105,-9,-5
10433.992,304,304,302,305,1984,16108,856,-105,-9,-5
10433.992,303,304,302,305,1984,16108,856,-105,-9,-5
10445.889,303,304,302,305,1984,16108,856,-105,-9,-5
10449.896,303,304,302,305,1984,16108,856,-105,-9,-5
10458.164999999999,303,304,302,305,1984,16108,856,-105,-9,-5
10461.694,303,304,302,305,1984,16108,856,-105,-9,-5
10466.473,304,304,302,305,2076,16376,888,-16,10,-41
10467.427000000001,304,304,302,305,2076,16376,888,-16,10,-41
10478.589,304,304,302,305,2076,16376,888,-16,10,-41
10479.597,304,304,302,305,2076,16376,888,-16,10,-41
10490.931,304,304,302,305,2076,16376,888,-16,10,-41
10495.034,304,304,301,305,2076,16376,888,-16,10,-41
10499.129,304,304,302,305,2076,16376,888,-16,10,-41
10507.307,303,304,302,305,2076,16104,852,-92,10,0
10511.538,303,304,302,305,2076,16104,852,-92,10,0
10514.177,303,304,302,305,2076,16104,852,-92,10,0
10514.177,304,304,302,305,2076,16104,852,-92,10,0
10527.808,304,304,302,305,2076,16104,852,-92,10,0
10528.29,304,304,301,305,2076,16104,852,-92,10,0
10534.13,304,304,301,305,2076,16104,852,-92,10,0
10534.13,303,304,302,305,2076,16104,852,-92,10,0
10545.168,303,304,301,305,2096,16296,808,-56,29,-24
10545.168,303,304,302,305,2096,16296,808,-56,29,-24
10556.461000000001,303,304,302,305,2096,16296,808,-56,29,-24
10564.722,304,304,302,305,2096,16296,808,-56,29,-24
10568.755,304,304,302,305,2096,16296,808,-56,29,-24
10572.787999999999,304,304,302,305,2096,16296,808,-56,29,-24
10578.409000000001,303,304,302,305,2096,16296,808,-56,29,-24
10578.409000000001,303,304,302,305,2096,16296,808,-56,29,-24
10589.489,304,304,302,305,2076,16276,856,-55,18,-31
10589.489,304,304,302,305,2076,16276,856,-55,18,-31
10600.816,303,304,302,305,2076,16276,856,-55,18,-31
10605.603000000001,304,304,302,305,2076,16276,856,-55,18,-31
10609.723,304,304,302,305,2076,16276,856,-55,18,-31
10617.776,304,304,302,305,2076,16276,856,-55,18,-31
10622.413,303,304,302,305,2076,16276,856,-55,18,-31
10626.107,303,304,302,305,2004,16224,816,-62,1,1
10634.347,303,304,302,305,2004,16224,816,-62,1,1
10634.347,304,304,301,305,2004,16224,816,-62,1,1
10634.347,303,304,302,305,2004,16224,816,-62,1,1
10645.054999999998,304,304,302,305,2004,16224,816,-62,1,1
10645.054999999998,304,304,302,305,2004,16224,816,-62,1,1
10658.86,304,304,302,305,2004,16224,816,-62,1,1
10662.653,304,304,302,305,2004,16224,816,-62,1,1
10667.196,303,304,302,305,2032,16200,764,-38,23,-48
10672.723,303,304,302,305,2032,16200,764,-38,23,-48
10678.475,303,304,302,305,2032,16200,764,-38,23,-48
10678.475,303,304,302,305,2032,16200,764,-38,23,-48
10687.483,304,304,302,305,2032,16200,764,-38,23,-48
10689.555,304,304,302,305,2032,16200,764,-38,23,-48
10699.816,304,304,302,305,2032,16200,764,-38,23,-48
10703.919000000002,304,304,301,305,2132,16456,900,-48,27,-9
10712.109999999999,303,304,302,305,2132,16456,900,-48,27,-9
10716.217999999999,304,304,302,305,2132,16456,900,-48,27,-9
10720.313,304,304,302,305,2132,16456,900,-48,27,-9
10728.461,303,304,302,305,2132,16456,900,-48,27,-9
10728.461,303,304,302,305,2132,16456,900,-48,27,-9
10734.287,304,304,302,305,2132,16456,900,-48,27,-9
10734.287,304,304,301,305,2132,16456,900,-48,27,-9
10745.0,304,304,301,305,2044,16064,848,-85,9,-7
10745.0,304,304,301,305,2044,16064,848,-85,9,-7
10757.168,304,304,301,305,2044,16064,848,-85,9,-7
10761.271,303,304,301,305,2044,16064,848,-85,9,-7
10769.242,304,304,301,305,2044,16064,848,-85,9,-7
10773.244,304,304,301,305,2044,16064,848,-85,9,-7
10778.076000000001,304,304,302,305,2044,16064,848,-85,9,-7
10781.741,304,304,302,305,2044,16064,848,-85,9,-7
10789.212,304,304,301,305,2112,16544,884,-17,21,-42
10790.353,303,304,302,305,2112,16544,884,-17,21,-42
10790.353,303,304,302,305,2112,16544,884,-17,21,-42
10800.55,304,304,302,305,2112,16544,884,-17,21,-42
10800.55,304,304,302,305,2112,16544,884,-17,21,-42
10814.409,304,304,302,305,2112,16544,884,-17,21,-42
10822.723999999998,304,304,302,305,2112,16544,884,-17,21,-42
10826.802000000001,304,304,302,305,2052,16016,808,-123,6,10
10830.626,304,304,302,305,2052,16016,808,-123,6,10
10834.98,303,304,301,305,2052,16016,808,-123,6,10
10836.993,303,304,302,305,2052,16016,808,-123,6,10
10847.262999999999,303,304,302,305,2052,16016,808,-123,6,10
10850.780999999999,304,304,302,305,2052,16016,808,-123,6,10
10856.335,303,304,302,305,2052,16016,808,-123,6,10
10856.335,304,304,302,305,2052,16016,808,-123,6,10
10867.271,303,304,302,305,2080,16464,852,-25,34,-70
10867.271,305,304,301,305,2080,16464,852,-25,34,-70
10880.046999999999,303,304,301,305,2080,16464,852,-25,34,-70
10884.140000000001,303,304,301,305,2080,16464,852,-25,34,-70
10888.158000000001,303,304,302,305,2080,16464,852,-25,34,-70
10889.439,304,304,302,305,2080,16464,852,-25,34,-70
10900.815,303,304,301,305,2080,16464,852,-25,34,-70
10904.616,304,304,302,305,2108,16264,896,-69,22,-8
10911.728000000001,304,304,302,305,2108,16264,896,-69,22,-8
10911.728000000001,304,304,302,305,2108,16264,896,-69,22,-8
10911.728000000001,304,304,301,305,2108,16264,896,-69,22,-8
10925.098,304,304,301,305,2108,16264,896,-69,22,-8
10933.17,303,304,302,305,2108,16264,896,-69,22,-8
10933.932,304,304,301,305,2108,16264,896,-69,22,-8
10933.932,304,304,302,305,2108,16264,896,-69,22,-8
10949.724,304,304,302,305,2068,16344,832,-51,2,1
10949.951000000001,304,304,302,305,2068,16344,832,-51,2,1
10956.092,304,304,301,305,2068,16344,832,-51,2,1
10956.092,304,304,301,305,2068,16344,832,-51,2,1
10966.499,303,304,302,305,2068,16344,832,-51,2,1
10974.248,304,304,302,305,2068,16344,832,-51,2,1
10978.341999999999,303,304,302,305,2068,16344,832,-51,2,1
10982.431,303,304,302,305,2068,16344,832,-51,2,1
10986.641000000001,303,304,302,305,2076,16120,932,-14,36,-93
10992.639000000001,304,304,302,305,2076,16120,932,-14,36,-93
10992.639000000001,304,304,302,305,2076,16120,932,-14,36,-93
11002.925,303,304,302,305,2076,16120,932,-14,36,-93
11010.938,303,304,302,305,2076,16120,932,-14,36,-93
11011.851,304,304,302,305,2076,16120,932,-14,36,-93
11011.851,303,304,302,305,2076,16120,932,-14,36,-93
11027.483999999999,303,304,302,305,2096,16292,788,-23,19,-10
11031.468,304,304,302,305,2096,16292,788,-23,19,-10
11035.653,304,304,302,305,2096,16292,788,-23,19,-10
11043.871,304,304,302,305,2096,16292,788,-23,19,-10
11047.873,304,304,302,305,2096,16292,788,-23,19,-10
11052.079000000002,304,304,302,305,2096,16292,788,-23,19,-10
11060.28,303,304,302,305,2096,16292,788,-23,19,-10
11064.252,304,304,302,305,2096,16292,788,-23,19,-10
11068.389,303,304,302,305,2028,16084,804,-65,10,-8
11072.556,304,304,302,305,2028,16084,804,-65,10,-8
11080.5,304,304,302,304,2028,16084,804,-65,10,-8
11084.817,304,304,302,305,2028,16084,804,-65,10,-8
11088.864,304,304,302,305,2028,16084,804,-65,10,-8
11097.127,303,304,302,304,2028,16084,804,-65,10,-8
11100.663,303,304,301,305,2028,16084,804,-65,10,-8
11104.981,303,304,302,305,2028,16084,804,-65,10,-8
11109.413,303,304,302,304,2132,16560,828,-27,27,-49
11117.143,304,304,302,304,2132,16560,828,-27,27,-49
11121.713,303,304,302,305,2132,16560,828,-27,27,-49
11125.715,304,304,302,304,2132,16560,828,-27,27,-49
11134.055999999999,303,304,302,305,2132,16560,828,-27,27,-49
11138.082,303,304,302,305,2132,16560,828,-27,27,-49
11142.182999999999,303,304,302,305,2132,16560,828,-27,27,-49
11150.377,303,304,302,304,2084,16140,868,-51,6,6
11154.467,303,304,302,305,2084,16140,868,-51,6,6
11158.277999999998,303,304,302,305,2084,16140,868,-51,6,6
11162.723,304,304,302,305,2084,16140,868,-51,6,6
11167.127,304,304,302,305,2084,16140,868,-51,6,6
11174.939,304,304,302,305,2084,16140,868,-51,6,6
11178.501,304,304,302,305,2084,16140,868,-51,6,6
11183.401,303,304,302,305,2084,16140,868,-51,6,6
11187.228,304,304,302,305,2088,16440,860,-2,25,-26
11195.434000000001,304,304,302,305,2088,16440,860,-2,25,-26
11199.521,303,304,302,305,2088,16440,860,-2,25,-26
11203.960000000001,304,304,302,305,2088,16440,860,-2,25,-26
11211.833999999999,304,303,302,305,2088,16440,860,-2,25,-26
11215.908000000001,304,304,302,305,2088,16440,860,-2,25,-26
11219.997,304,304,302,305,2088,16440,860,-2,25,-26
11223.945,304,304,302,305,2088,16440,860,-2,25,-26
11232.277,304,304,302,305,2008,16188,804,-56,15,-1
11236.489000000001,303,304,301,305,2008,16188,804,-56,15,-1
11240.481000000002,303,304,302,305,2008,16188,804,-56,15,-1
11248.809,304,304,302,305,2008,16188,804,-56,15,-1
11252.774000000001,304,304,302,305,2008,16188,804,-56,15,-1
11256.278999999999,304,304,302,305,2008,16188,804,-56,15,-1
11260.944,304,304,302,305,2008,16188,804,-56,15,-1
11268.971000000001,304,304,302,305,2080,16324,824,-25,7,-13
11273.233,303,304,302,305,2080,16324,824,-25,7,-13
11277.324,304,304,302,305,2080,16324,824,-25,7,-13
11285.531,303,304,301,305,2080,16324,824,-25,7,-13
11289.373,304,304,302,305,2080,16324,824,-25,7,-13
11293.735,304,304,302,305,2080,16324,824,-25,7,-13
11297.824999999999,303,304,302,305,2080,16324,824,-25,7,-13
11306.015000000001,304,304,302,305,2080,16324,824,-25,7,-13
11310.11,303,304,302,305,2036,16120,816,-59,34,-31
11313.836,303,304,302,305,2036,16120,816,-59,34,-31
11321.944,304,304,302,305,2036,16120,816,-59,34,-31
11325.947,303,305,302,305,2036,16120,816,-59,34,-31
11330.584,304,304,302,305,2036,16120,816,-59,34,-31
11338.789999999999,304,304,302,305,2036,16120,816,-59,34,-31
11342.879,304,304,302,305,2036,16120,816,-59,34,-31
11347.171,304,304,302,305,2124,16364,884,-53,16,-5
11355.169,304,304,302,305,2124,16364,884,-53,16,-5
11359.258,303,304,302,305,2124,16364,884,-53,16,-5
11363.354,304,304,302,305,2124,16364,884,-53,16,-5
11367.36,304,304,302,304,2124,16364,884,-53,16,-5
11375.634,304,304,302,305,2124,16364,884,-53,16,-5
11379.592,304,304,302,305,2124,16364,884,-53,16,-5
11383.836000000001,304,304,302,305,2124,16364,884,-53,16,-5
11391.937,304,304,302,305,1984,16040,800,-78,2,-25
11396.123,303,304,302,305,1984,16040,800,-78,2,-25
11399.721,304,304,302,305,1984,16040,800,-78,2,-25
11404.312,304,304,301,305,1984,16040,800,-78,2,-25
11412.416000000001,304,304,301,305,1984,16040,800,-78,2,-25
11414.726,304,304,302,305,1984,16040,800,-78,2,-25
11414.726,304,304,302,305,1984,16040,800,-78,2,-25
11428.883000000002,304,304,302,305,1984,16040,800,-78,2,-25
11432.992,304,304,302,305,2144,16460,836,-55,13,-50
11437.085,303,304,302,304,2144,16460,836,-55,13,-50
11441.176000000001,304,304,302,305,2144,16460,836,-55,13,-50
11448.361,304,304,302,305,2144,16460,836,-55,13,-50
11448.361,303,304,302,304,2144,16460,836,-55,13,-50
11457.556,304,304,302,305,2144,16460,836,-55,13,-50
11461.91,304,304,302,305,2144,16460,836,-55,13,-50
11469.498,304,304,302,305,1960,16012,852,-94,4,10
11473.942,303,304,302,305,1960,16012,852,-94,4,10
11482.139,303,304,302,305,1960,16012,852,-94,4,10
11486.241,303,304,302,305,1960,16012,852,-94,4,10
11490.3,303,304,302,305,1960,16012,852,-94,4,10
11493.312,303,304,302,305,1960,16012,852,-94,4,10
11493.312,304,304,302,305,1960,16012,852,-94,4,10
11506.723,304,304,302,304,1960,16012,852,-94,4,10
11511.144,304,304,302,304,2104,16496,864,-47,31,-65
11515.212,304,304,302,304,2104,16496,864,-47,31,-65
11523.201000000001,304,304,302,305,2104,16496,864,-47,31,-65
11527.187,304,304,302,305,2104,16496,864,-47,31,-65
11529.199,304,304,302,305,2104,16496,864,-47,31,-65
11534.181999999999,303,304,302,305,2104,16496,864,-47,31,-65
11534.181999999999,303,304,302,305,2104,16496,864,-47,31,-65
11547.28,304,304,302,305,2056,16200,784,-82,4,0
11551.764000000001,304,304,302,305,2056,16200,784,-82,4,0
11559.943000000001,304,304,302,305,2056,16200,784,-82,4,0
11563.948,303,304,302,304,2056,16200,784,-82,4,0
11568.137999999999,304,304,302,305,2056,16200,784,-82,4,0
11572.191,304,304,302,305,2056,16200,784,-82,4,0
11580.436000000002,304,304,302,305,2056,16200,784,-82,4,0
11583.898,304,304,302,305,2056,16200,784,-82,4,0
11588.725,304,304,302,305,2068,16316,836,-35,11,-28
11590.647,304,303,301,305,2068,16316,836,-35,11,-28
11600.862,304,304,302,305,2068,16316,836,-35,11,-28
11600.862,304,304,302,305,2068,16316,836,-35,11,-28
11600.862,304,304,302,305,2068,16316,836,-35,11,-28
11617.231,304,304,301,305,2068,16316,836,-35,11,-28
11621.247000000001,304,304,302,305,2068,16316,836,-35,11,-28
11625.495,304,304,301,305,2068,16316,836,-35,11,-28
11633.166,304,304,301,305,2088,16280,876,2,29,-41
11634.141,304,304,302,305,2088,16280,876,2,29,-41
11634.141,303,304,301,305,2088,16280,876,2,29,-41
11645.129,304,304,302,305,2088,16280,876,2,29,-41
11645.129,303,304,302,305,2088,16280,876,2,29,-41
11658.24,304,304,302,305,2088,16280,876,2,29,-41
11662.341,303,304,301,305,2088,16280,876,2,29,-41
11666.569000000001,303,304,301,305,2064,16340,844,-62,9,18
11667.216,304,304,302,305,2064,16340,844,-62,9,18
11678.741,304,304,302,305,2064,16340,844,-62,9,18
11682.445,304,304,302,305,2064,16340,844,-62,9,18
11686.93,304,304,302,305,2064,16340,844,-62,9,18
11691.108,304,304,302,305,2064,16340,844,-62,9,18
11691.108,304,304,302,305,2064,16340,844,-62,9,18
11703.294,304,304,302,305,2064,16340,844,-62,9,18
11707.389,304,304,302,305,2048,16096,792,-92,11,-51
11715.598,304,304,302,305,2048,16096,792,-92,11,-51
11719.735999999999,304,304,302,306,2048,16096,792,-92,11,-51
11723.262999999999,304,304,302,305,2048,16096,792,-92,11,-51
11723.262999999999,304,304,301,305,2048,16096,792,-92,11,-51
11735.338,304,304,301,305,2048,16096,792,-92,11,-51
11739.359999999999,304,304,302,305,2048,16096,792,-92,11,-51
11748.36,303,304,301,305,2048,16096,792,-92,11,-51
11752.447999999999,303,304,301,305,2080,16488,884,-53,26,-35
11756.198,304,304,301,305,2080,16488,884,-53,26,-35
11756.198,303,304,302,305,2080,16488,884,-53,26,-35
11768.856,304,304,301,305,2080,16488,884,-53,26,-35
11772.176,304,304,301,305,2080,16488,884,-53,26,-35
11781.140000000001,303,304,301,305,2080,16488,884,-53,26,-35
11783.979000000001,303,304,302,305,2080,16488,884,-53,26,-35
11789.637,303,304,301,305,1956,15928,812,-84,24,-11
11791.646,304,304,301,305,1956,15928,812,-84,24,-11
11800.613,303,304,301,305,1956,15928,812,-84,24,-11
11800.613,303,304,301,305,1956,15928,812,-84,24,-11
11800.613,303,304,301,305,1956,15928,812,-84,24,-11
11818.004,304,304,301,305,1956,15928,812,-84,24,-11
11822.321,303,304,301,305,1956,15928,812,-84,24,-11
11826.194,303,304,301,305,1956,15928,812,-84,24,-11
11834.391,303,304,302,305,2096,16568,836,-23,26,-69
11838.479,304,304,301,305,2096,16568,836,-23,26,-69
11840.518,303,304,301,305,2096,16568,836,-23,26,-69
11846.487,304,304,301,305,2096,16568,836,-23,26,-69
11846.487,304,304,302,305,2096,16568,836,-23,26,-69
11856.253999999999,305,304,301,305,2096,16568,836,-23,26,-69
11867.146,304,304,301,305,2096,16568,836,-23,26,-69
11871.316,303,304,302,305,1976,15972,808,-109,-8,51
11875.337,304,304,301,305,1976,15972,808,-109,-8,51
11879.431,303,305,302,305,1976,15972,808,-109,-8,51
11887.190999999999,304,304,302,305,1976,15972,808,-109,-8,51
11891.742,304,304,302,305,1976,15972,808,-109,-8,51
11893.756,304,304,302,305,1976,15972,808,-109,-8,51
11904.008,304,304,302,305,1976,15972,808,-109,-8,51
11906.326,304,304,302,305,2092,16444,884,-29,37,-51
11911.815,303,304,302,305,2092,16444,884,-29,37,-51
11911.815,303,304,302,305,2092,16444,884,-29,37,-51
11922.801,304,304,302,305,2092,16444,884,-29,37,-51
11922.801,304,304,302,305,2092,16444,884,-29,37,-51
11936.771,303,304,302,305,2092,16444,884,-29,37,-51
11940.864,304,304,301,305,2092,16444,884,-29,37,-51
11945.148,304,304,302,305,2092,16444,884,-29,37,-51
11950.703000000001,303,304,302,305,2056,16228,904,-53,-2,-1
11956.231000000002,303,304,302,305,2056,16228,904,-53,-2,-1
11956.231000000002,303,304,301,305,2056,16228,904,-53,-2,-1
11956.231000000002,303,304,302,305,2056,16228,904,-53,-2,-1
11967.322,304,304,301,305,2056,16228,904,-53,-2,-1
11977.597,304,304,302,305,2056,16228,904,-53,-2,-1
11982.018,304,304,302,305,2056,16228,904,-53,-2,-1
11989.795,304,304,301,305,2056,16228,904,-53,-2,-1
11994.104,304,304,301,305,2092,16308,792,-84,13,-10
11994.812,303,304,302,305,2092,16308,792,-84,13,-10
12000.66,304,304,302,305,2092,16308,792,-84,13,-10
12000.66,304,304,302,305,2092,16308,792,-84,13,-10
12011.784,304,304,302,305,2092,16308,792,-84,13,-10
12011.784,304,304,302,305,2092,16308,792,-84,13,-10
12026.885,304,304,302,305,2092,16308,792,-84,13,-10
12030.98,303,304,302,304,2028,16268,848,-10,9,-34
12035.068000000001,303,304,302,305,2028,16268,848,-10,9,-34
12042.57,303,304,302,305,2028,16268,848,-10,9,-34
12047.359,303,304,302,305,2028,16268,848,-10,9,-34
12050.671,303,304,302,305,2028,16268,848,-10,9,-34
12056.553,304,303,302,305,2028,16268,848,-10,9,-34
12056.553,304,304,302,304,2028,16268,848,-10,9,-34
12067.339,305,304,302,305,2028,16268,848,-10,9,-34
12067.339,304,304,302,305,2008,16124,852,-115,-7,0
12080.126,304,304,302,304,2008,16124,852,-115,-7,0
12084.224,304,304,302,304,2008,16124,852,-115,-7,0
12088.312,304,304,302,305,2008,16124,852,-115,-7,0
12091.928,303,304,302,305,2008,16124,852,-115,-7,0
12100.803000000002,304,304,302,305,2008,16124,852,-115,-7,0
12104.271,304,304,302,305,2008,16124,852,-115,-7,0
12107.132,304,304,302,305,2128,16632,812,-66,11,5
12112.008,304,304,302,305,2128,16632,812,-66,11,5
12112.008,304,304,302,304,2128,16632,812,-66,11,5
12122.723,303,304,302,305,2128,16632,812,-66,11,5
12122.723,304,304,302,305,2128,16632,812,-66,11,5
12137.212,303,304,302,305,2128,16632,812,-66,11,5
12137.212,304,304,302,305,2128,16632,812,-66,11,5
12145.702,304,304,302,304,2128,16632,812,-66,11,5
12145.702,304,304,302,304,2136,16468,852,-32,18,-20
12157.496,303,304,302,305,2136,16468,852,-32,18,-20
12160.329000000002,303,304,302,304,2136,16468,852,-32,18,-20
12166.563,303,304,301,304,2136,16468,852,-32,18,-20
12173.564,303,304,301,304,2136,16468,852,-32,18,-20
12178.502,303,303,302,305,2136,16468,852,-32,18,-20
12182.514,303,304,302,305,2136,16468,852,-32,18,-20
12190.215,304,304,302,304,2036,16072,796,-36,18,-30
12194.818,304,304,302,305,2036,16072,796,-36,18,-30
12199.189,304,304,302,305,2036,16072,796,-36,18,-30
12207.109,303,304,302,305,2036,16072,796,-36,18,-30
12210.832999999999,303,304,302,305,2036,16072,796,-36,18,-30
12214.835000000001,304,304,302,305,2036,16072,796,-36,18,-30
12219.395,303,304,302,305,2036,16072,796,-36,18,-30
12226.609,304,304,302,305,2036,16072,796,-36,18,-30
12226.609,304,304,302,305,2108,16412,808,-26,13,-4
12236.153,304,304,302,305,2108,16412,808,-26,13,-4
12243.973,304,304,302,305,2108,16412,808,-26,13,-4
12247.975,303,304,302,305,2108,16412,808,-26,13,-4
12252.17,303,304,302,305,2108,16412,808,-26,13,-4
12259.979,303,304,302,305,2108,16412,808,-26,13,-4
12264.455,303,304,302,305,2108,16412,808,-26,13,-4
12268.39,304,304,302,305,2108,16412,808,-26,13,-4
12272.626,304,304,302,305,1988,16128,844,-88,-1,1
12280.502,304,304,302,305,1988,16128,844,-88,-1,1
12284.918,304,304,302,305,1988,16128,844,-88,-1,1
12288.612000000001,304,304,302,305,1988,16128,844,-88,-1,1
12293.065999999999,303,304,302,305,1988,16128,844,-88,-1,1
12301.479000000001,303,304,302,305,1988,16128,844,-88,-1,1
12305.403999999999,304,304,302,305,1988,16128,844,-88,-1,1
12309.498,303,304,302,304,2116,16448,860,-40,41,-44
12313.469,304,304,302,305,2116,16448,860,-40,41,-44
12321.783,304,304,302,305,2116,16448,860,-40,41,-44
12325.785,305,304,302,305,2116,16448,860,-40,41,-44
12329.959,304,304,302,305,2116,16448,860,-40,41,-44
12338.168,304,304,302,305,2116,16448,860,-40,41,-44
12342.266,303,304,302,305,2116,16448,860,-40,41,-44
12346.169,303,304,302,305,2116,16448,860,-40,41,-44
12354.557,303,304,302,305,2068,16112,868,-59,-4,16
12358.28,304,304,302,305,2068,16112,868,-59,-4,16
12362.74,304,304,302,305,2068,16112,868,-59,-4,16
12370.764,304,304,302,305,2068,16112,868,-59,-4,16
12375.019,304,304,302,305,2068,16112,868,-59,-4,16
12378.5,304,304,302,305,2068,16112,868,-59,-4,16
12383.215999999999,304,304,302,305,2068,16112,868,-59,-4,16
12391.574999999999,304,304,302,305,2016,16320,832,-17,24,-50
12395.514000000001,303,304,302,305,2016,16320,832,-17,24,-50
12399.616,304,304,302,305,2016,16320,832,-17,24,-50
12407.801,304,303,302,305,2016,16320,832,-17,24,-50
12411.512999999999,304,304,302,305,2016,16320,832,-17,24,-50
12416.001,304,304,302,305,2016,16320,832,-17,24,-50
12424.169,303,304,302,305,2016,16320,832,-17,24,-50
12427.569,304,304,302,305,2016,16320,832,-17,24,-50
12432.371,304,304,302,305,1976,16140,828,-57,19,-44
12440.573,304,304,302,305,1976,16140,828,-57,19,-44
12444.168,304,304,302,305,1976,16140,828,-57,19,-44
12448.764000000001,304,304,302,305,1976,16140,828,-57,19,-44
12452.859999999999,304,304,302,304,1976,16140,828,-57,19,-44
12461.038999999999,304,304,302,305,1976,16140,828,-57,19,-44
12465.268999999998,303,304,302,305,1976,16140,828,-57,19,-44
12469.063,304,304,302,305,2124,16372,848,-44,29,-20
12477.423999999999,304,304,302,304,2124,16372,848,-44,29,-20
12481.047,303,304,302,305,2124,16372,848,-44,29,-20
12482.02,304,304,302,305,2124,16372,848,-44,29,-20
12493.305,304,304,302,305,2124,16372,848,-44,29,-20
12493.305,304,304,302,305,2124,16372,848,-44,29,-20
12501.501,304,304,302,304,2124,16372,848,-44,29,-20
12510.194,303,304,302,305,2124,16372,848,-44,29,-20
12514.288,304,304,302,305,2048,16184,828,-52,6,-9
12518.376999999999,304,304,302,305,2048,16184,828,-52,6,-9
12522.38,304,304,302,305,2048,16184,828,-52,6,-9
12526.146,304,304,302,305,2048,16184,828,-52,6,-9
12534.269999999999,304,304,301,305,2048,16184,828,-52,6,-9
12538.836,304,304,301,305,2048,16184,828,-52,6,-9
12539.298,304,304,302,305,2048,16184,828,-52,6,-9
12545.223,303,304,302,304,2092,16444,880,-50,19,-9
12555.372,303,304,302,305,2092,16444,880,-50,19,-9
12556.246,303,304,302,305,2092,16444,880,-50,19,-9
12567.527,304,304,302,305,2092,16444,880,-50,19,-9
12570.99,304,304,302,304,2092,16444,880,-50,19,-9
12575.723,305,304,302,305,2092,16444,880,-50,19,-9
12579.514,304,304,302,305,2092,16444,880,-50,19,-9
12583.531,303,304,302,305,2092,16444,880,-50,19,-9
12591.101999999999,304,304,302,305,2072,16104,836,-52,0,15
12593.605,304,304,302,305,2072,16104,836,-52,0,15
12600.738,304,304,302,305,2072,16104,836,-52,0,15
12600.738,304,304,302,305,2072,16104,836,-52,0,15
12612.579,304,305,302,305,2072,16104,836,-52,0,15
12616.586,304,304,302,305,2072,16104,836,-52,0,15
12624.876,304,304,302,305,2072,16104,836,-52,0,15
12628.107,304,304,302,305,2072,16104,836,-52,0,15
12633.166,304,304,302,305,2028,16416,864,-56,7,-32
12634.188999999998,303,304,301,305,2028,16416,864,-56,7,-32
12645.058,304,304,302,305,2028,16416,864,-56,7,-32
12645.058,303,304,301,305,2028,16416,864,-56,7,-32
12645.058,303,304,302,305,2028,16416,864,-56,7,-32
12657.640000000001,305,304,302,305,2028,16416,864,-56,7,-32
12665.831,304,304,301,305,2028,16416,864,-56,7,-32
12669.931,304,304,302,305,1972,16112,836,-65,-11,-16
12674.032000000001,304,304,302,305,1972,16112,836,-65,-11,-16
12681.776,304,304,301,305,1972,16112,836,-65,-11,-16
12681.776,303,304,301,305,1972,16112,836,-65,-11,-16
12690.221,304,304,302,305,1972,16112,836,-65,-11,-16
12695.235999999999,304,304,302,305,1972,16112,836,-65,-11,-16
12702.863000000001,304,304,301,305,1972,16112,836,-65,-11,-16
12706.787999999999,304,304,302,305,1972,16112,836,-65,-11,-16
12714.983,304,304,302,305,2008,16284,852,-94,1,-24
12719.08,304,304,301,305,2008,16284,852,-94,1,-24
12723.181,304,304,302,305,2008,16284,852,-94,1,-24
12731.372000000001,304,304,302,305,2008,16284,852,-94,1,-24
12735.473,303,305,302,305,2008,16284,852,-94,1,-24
12739.373,304,304,301,305,2008,16284,852,-94,1,-24
12744.251,305,304,302,305,2008,16284,852,-94,1,-24
12751.984,304,304,301,305,2100,16168,864,-88,11,-43
12755.382000000001,304,304,301,305,2100,16168,864,-88,11,-43
12756.503999999999,304,304,301,305,2100,16168,864,-88,11,-43
12767.322999999999,304,304,302,305,2100,16168,864,-88,11,-43
12767.322999999999,304,304,301,305,2100,16168,864,-88,11,-43
12767.322999999999,304,304,302,305,2100,16168,864,-88,11,-43
12784.618,304,304,301,305,2100,16168,864,-88,11,-43
12788.734,304,304,302,305,2100,16168,864,-88,11,-43
12792.813,305,304,302,305,2120,16392,868,-75,16,-18
12800.902,303,304,302,305,2120,16392,868,-75,16,-18
12800.902,303,304,302,305,2120,16392,868,-75,16,-18
12800.902,304,304,302,305,2120,16392,868,-75,16,-18
12811.733,304,304,302,305,2120,16392,868,-75,16,-18
12811.733,304,304,302,305,2120,16392,868,-75,16,-18
12825.587000000001,304,304,302,305,2120,16392,868,-75,16,-18
12833.78,304,304,302,305,2020,16120,832,-73,12,-5
12837.873,304,304,302,305,2020,16120,832,-73,12,-5
12841.922999999999,304,304,302,305,2020,16120,832,-73,12,-5
12846.12,304,304,302,305,2020,16120,832,-73,12,-5
12849.133,303,304,302,305,2020,16120,832,-73,12,-5
12858.333999999999,304,304,302,305,2020,16120,832,-73,12,-5
12862.08,303,304,302,305,2020,16120,832,-73,12,-5
12867.466,303,304,302,305,2020,16120,832,-73,12,-5
12867.466,304,304,302,305,2080,16400,824,-82,24,-34
12878.374000000002,304,304,302,305,2080,16400,824,-82,24,-34
12878.374000000002,304,304,302,305,2080,16400,824,-82,24,-34
12891.109,303,304,302,305,2080,16400,824,-82,24,-34
12895.251,304,304,302,305,2080,16400,824,-82,24,-34
12898.765,304,304,302,305,2080,16400,824,-82,24,-34
12906.29,303,304,302,305,2080,16400,824,-82,24,-34
12911.867,304,304,302,305,2024,16172,824,-65,9,18
12911.867,304,304,302,305,2024,16172,824,-65,9,18
12922.819000000001,304,304,302,305,2024,16172,824,-65,9,18
12922.819000000001,304,304,302,305,2024,16172,824,-65,9,18
12922.819000000001,304,304,302,305,2024,16172,824,-65,9,18
12936.163,304,304,302,305,2024,16172,824,-65,9,18
12940.259,304,304,302,305,2024,16172,824,-65,9,18
12948.439,303,304,302,305,2024,16172,824,-65,9,18
12950.549,303,304,302,305,2120,16356,792,-44,10,-9
12956.284,304,304,302,305,2120,16356,792,-44,10,-9
12956.284,304,304,302,305,2120,16356,792,-44,10,-9
12967.266,304,304,302,305,2120,16356,792,-44,10,-9
12967.266,304,304,302,305,2120,16356,792,-44,10,-9
12967.266,304,304,302,305,2120,16356,792,-44,10,-9
12985.315999999999,303,304,302,305,2120,16356,792,-44,10,-9
12989.365,304,304,301,305,2120,16356,792,-44,10,-9
12993.505000000001,303,304,302,305,2056,16288,836,-59,36,-29
13001.037,305,304,302,305,2056,16288,836,-59,36,-29
13003.049,304,304,302,305,2056,16288,836,-59,36,-29
13003.049,304,304,302,305,2056,16288,836,-59,36,-29
13016.992,304,304,301,305,2056,16288,836,-59,36,-29
13022.046,303,304,302,305,2056,16288,836,-59,36,-29
13022.94,304,304,302,305,2056,16288,836,-59,36,-29
13033.915,304,304,302,305,2112,16344,880,-54,18,-14
13033.915,303,304,302,305,2112,16344,880,-54,18,-14
13033.915,304,304,302,305,2112,16344,880,-54,18,-14
13050.836000000001,304,304,302,305,2112,16344,880,-54,18,-14
13054.364,304,304,302,305,2112,16344,880,-54,18,-14
13059.037999999999,304,304,302,305,2112,16344,880,-54,18,-14
13061.785,303,304,302,305,2112,16344,880,-54,18,-14
13067.434000000001,304,304,301,305,2112,16344,880,-54,18,-14
13067.434000000001,303,304,302,305,2044,16116,824,-32,19,11
13078.489,303,304,302,305,2044,16116,824,-32,19,11
13078.489,304,304,301,305,2044,16116,824,-32,19,11
13091.793,304,304,302,305,2044,16116,824,-32,19,11
13095.895,304,304,302,305,2044,16116,824,-32,19,11
13104.076,304,304,302,304,2044,16116,824,-32,19,11
13108.199,304,304,302,305,2044,16116,824,-32,19,11
13112.499,304,304,302,305,2092,16320,844,-60,26,-32
13116.389,303,304,302,305,2092,16320,844,-60,26,-32
13123.18,304,304,302,305,2092,16320,844,-60,26,-32
13123.18,304,304,302,305,2092,16320,844,-60,26,-32
13133.165,304,304,302,305,2092,16320,844,-60,26,-32
13134.012,304,304,302,305,2092,16320,844,-60,26,-32
13145.049,304,304,301,305,2092,16320,844,-60,26,-32
13149.649,304,304,302,305,2092,16320,844,-60,26,-32
13156.027,303,304,302,305,2064,16124,816,-54,14,-22
13156.027,304,304,302,305,2064,16124,816,-54,14,-22
13156.027,304,304,302,305,2064,16124,816,-54,14,-22
13172.877,304,304,302,305,2064,16124,816,-54,14,-22
13177.617,304,304,302,305,2064,16124,816,-54,14,-22
13178.374,304,304,302,305,2064,16124,816,-54,14,-22
13178.374,304,304,302,305,2064,16124,816,-54,14,-22
13193.786,304,304,302,305,2076,16316,884,-44,23,-23
13198.3,304,304,302,305,2076,16316,884,-44,23,-23
13202.394999999999,304,304,302,305,2076,16316,884,-44,23,-23
13210.592,304,303,302,305,2076,16316,884,-44,23,-23
13212.227,304,304,302,305,2076,16316,884,-44,23,-23
13212.227,304,304,302,305,2076,16316,884,-44,23,-23
13226.967999999999,304,304,302,305,2076,16316,884,-44,23,-23
13228.98,304,304,302,305,2076,16316,884,-44,23,-23
13234.045999999998,303,304,302,305,2072,16188,852,-59,8,5
13234.045999999998,304,304,302,305,2072,16188,852,-59,8,5
13245.150000000001,303,304,302,305,2072,16188,852,-59,8,5
13245.150000000001,303,304,302,305,2072,16188,852,-59,8,5
13255.722,304,304,302,305,2072,16188,852,-59,8,5
13259.741999999998,304,304,302,305,2072,16188,852,-59,8,5
13267.34,305,304,301,305,2072,16188,852,-59,8,5
13267.34,304,303,301,305,2028,16368,820,-58,25,-38
13267.34,303,304,301,305,2028,16368,820,-58,25,-38
13284.031,303,304,302,305,2028,16368,820,-58,25,-38
13284.031,304,304,302,305,2028,16368,820,-58,25,-38
13290.862000000001,303,304,302,305,2028,16368,820,-58,25,-38
13300.725,304,304,302,305,2028,16368,820,-58,25,-38
13304.771,304,304,302,305,2028,16368,820,-58,25,-38
13308.897,303,304,302,305,2028,16368,820,-58,25,-38
13312.99,304,304,302,305,2072,16140,824,-63,22,-15
13321.169,303,304,302,305,2072,16140,824,-63,22,-15
13325.283000000001,303,304,302,305,2072,16140,824,-63,22,-15
13326.168,303,304,302,305,2072,16140,824,-63,22,-15
13337.548999999999,304,304,302,305,2072,16140,824,-63,22,-15
13339.890000000001,304,304,302,305,2072,16140,824,-63,22,-15
13345.284,304,304,302,305,2072,16140,824,-63,22,-15
13345.284,303,304,302,305,2060,16300,900,-42,18,-28
13356.106,304,304,302,305,2060,16300,900,-42,18,-28
13356.106,303,304,302,305,2060,16300,900,-42,18,-28
13369.765,304,304,302,305,2060,16300,900,-42,18,-28
13374.418,303,304,302,305,2060,16300,900,-42,18,-28
13378.389000000001,303,304,302,305,2060,16300,900,-42,18,-28
13384.606,304,304,302,305,2060,16300,900,-42,18,-28
13389.577,304,304,301,305,2060,16300,900,-42,18,-28
13391.083,303,304,302,305,2060,16180,864,-43,29,-25
13400.539999999999,304,304,302,305,2060,16180,864,-43,29,-25
13400.539999999999,304,304,302,305,2060,16180,864,-43,29,-25
13411.292,304,304,302,305,2060,16180,864,-43,29,-25
13415.376,303,304,302,305,2060,16180,864,-43,29,-25
13423.561,303,304,302,305,2060,16180,864,-43,29,-25
13427.274000000001,304,304,301,305,2060,16180,864,-43,29,-25
13429.288,304,304,301,305,2064,16420,828,-46,9,-10
13434.135,304,304,301,305,2064,16420,828,-46,9,-10
13444.248,304,304,301,305,2064,16420,828,-46,9,-10
13445.077,304,304,302,305,2064,16420,828,-46,9,-10
13456.341999999999,304,304,302,305,2064,16420,828,-46,9,-10
13459.855,304,304,302,305,2064,16420,828,-46,9,-10
13464.533,304,304,302,305,2064,16420,828,-46,9,-10
13468.627,304,304,302,305,2064,16420,828,-46,9,-10
13476.536,304,304,302,305,2032,16116,840,-54,14,-21
13480.858,304,304,302,305,2032,16116,840,-54,14,-21
13481.868999999999,304,304,302,305,2032,16116,840,-54,14,-21
13493.205,304,304,302,305,2032,16116,840,-54,14,-21
13497.238,303,304,302,305,2032,16116,840,-54,14,-21
13500.809000000001,303,304,302,305,2032,16116,840,-54,14,-21
13500.809000000001,303,304,302,305,2032,16116,840,-54,14,-21
13511.701000000001,304,304,302,305,2040,16508,856,-50,27,-29
13511.701000000001,304,304,302,305,2040,16508,856,-50,27,-29
13522.053,303,304,302,305,2040,16508,856,-50,27,-29
13530.064,304,304,302,305,2040,16508,856,-50,27,-29
13534.559,304,304,302,305,2040,16508,856,-50,27,-29
13538.258000000002,304,304,301,305,2040,16508,856,-50,27,-29
13545.186,303,304,302,305,2040,16508,856,-50,27,-29
13545.186,303,304,302,305,2040,16508,856,-50,27,-29
13545.186,304,304,302,305,1984,16056,836,-59,13,0
